nose_x,nose_y,nose_z,nose_visibility,left_shoulder_x,left_shoulder_y,left_shoulder_z,left_shoulder_visibility,right_shoulder_x,right_shoulder_y,right_shoulder_z,right_shoulder_visibility,left_hip_x,left_hip_y,left_hip_z,left_hip_visibility,right_hip_x,right_hip_y,right_hip_z,right_hip_visibility,left_knee_x,left_knee_y,left_knee_z,left_knee_visibility,right_knee_x,right_knee_y,right_knee_z,right_knee_visibility,left_ankle_x,left_ankle_y,left_ankle_z,left_ankle_visibility,right_ankle_x,right_ankle_y,right_ankle_z,right_ankle_visibility,left_wrist_x,left_wrist_y,left_wrist_z,left_wrist_visibility,right_wrist_x,right_wrist_y,right_wrist_z,right_wrist_visibility,trunk_lateral_inclination,center_mass_x,center_mass_y,left_knee_angle,right_knee_angle,person_height,center_mass_velocity_x,center_mass_velocity_y,center_mass_acceleration_x,center_mass_acceleration_y,body_orientation,torso_leg_ratio,frame,timestamp
1.0451154091247006,1.0608924661144092,-0.16649076342582703,0.9994488954544067,0.9836832283135785,1.218742340146166,0.04397513344883919,0.9999643564224243,0.9388421063322226,1.243224484506918,-0.31729400157928467,0.9999871850013733,1.0585662835266152,1.656930169360066,0.11993489414453506,0.9999770522117615,1.0378256952743308,1.6918634606091465,-0.12002291530370712,0.9999851584434509,1.2988305845435018,1.699560067335765,0.1912223845720291,0.24711379408836365,1.333969879266838,1.7150345297117153,-0.14474116265773773,0.9766915440559387,1.2652619582675857,2.0608924661144092,0.28374677896499634,0.5431334376335144,1.3040280666048127,2.100141458119962,-0.016309577971696854,0.9710158109664917,1.2161416543274668,1.5923155229884391,0.03326492756605148,0.27807581424713135,1.210472669209345,1.614458015303465,-0.3752155601978302,0.9924084544181824,0.010129570960998535,1.048195989400473,1.6743968149846062,94.753558363472,90.02808616563541,1.0,0.0174345205262872,-0.022050912273971247,0.04842627167702274,-0.12304672431249476,139.6038114868713,1.305510388364452,0,0.0
1.0413047862149833,1.0559545213921564,-0.20497290790081024,0.9995008707046509,0.9837755144134364,1.2158494690391795,0.020895808935165405,0.9999674558639526,0.9370289565208767,1.2419142042745648,-0.3550618588924408,0.9999881982803345,1.062826375143321,1.6450007208263329,0.1207587867975235,0.9999786019325256,1.0335851889520824,1.6882835033683359,-0.12085883319377899,0.9999860525131226,1.3024929379860817,1.6948747163587907,0.18799827992916107,0.2468942552804947,1.3301515402614206,1.7137406747135704,-0.15375009179115295,0.9746367335319519,1.2625838814032986,2.0559545213921564,0.28973034024238586,0.5268403887748718,1.2956851177606004,2.09689702589786,-0.016725195571780205,0.9673629999160767,1.2099803759881897,1.593926545856269,-0.004786687903106213,0.2811239957809448,1.2056661980457055,1.6167361357355512,-0.4377474784851074,0.992425799369812,0.010808706283569336,1.0482057820477015,1.6666421120973345,95.44820530440049,89.76608001302645,1.0,0.018282412287947615,-0.030748676370251405,0.0068448557516927215,-0.06749179001071243,135.52059401418632,1.298381288507755,1,0.03333333333333333
1.0409546113492065,1.0566966640029662,-0.20572058856487274,0.9995469450950623,0.9831699657787409,1.2171626465515057,0.013096672482788563,0.9999703168869019,0.9339021331865611,1.2446657382096709,-0.3560294508934021,0.9999890923500061,1.0682365515748458,1.643620619575205,0.12111213058233261,0.9999800324440002,1.0339736961493022,1.691038135056525,-0.12120155990123749,0.9999868869781494,1.3062968210615038,1.697079822353437,0.18990981578826904,0.24276715517044067,1.331575444519417,1.7215594795881475,-0.15292319655418396,0.972970187664032,1.2691770604721428,2.056696664002966,0.2934300899505615,0.511189877986908,1.2959216307834733,2.1003591389875944,-0.009605091996490955,0.9649242162704468,1.211318577814215,1.5972379747739116,-0.0035336290020495653,0.29691529273986816,1.204158035547736,1.6234592085355097,-0.4163729250431061,0.9923641085624695,0.011389493942260742,1.051105123862074,1.667329377315865,96.76325748073076,90.47863192311793,1.0,0.01080529560941083,-0.011925312784214477,-0.055665888628074325,0.13998075714464112,132.8680893284395,1.2942728799355991,2,0.06666666666666667
1.0402526403502628,1.053921366858284,-0.2137356549501419,0.9995863437652588,0.9814750762787807,1.2137352448373766,0.016930632293224335,0.9999727010726929,0.9324260692947154,1.241951371940543,-0.3675854802131653,0.9999898672103882,1.0662536208850315,1.639373247922649,0.12249430269002914,0.9999810457229614,1.0323663392829885,1.6878531855706946,-0.12255297601222992,0.9999874234199524,1.3025892223784612,1.6992671849493302,0.19222673773765564,0.2354741096496582,1.3274646351997614,1.7191736929345824,-0.15408411622047424,0.9697923064231873,1.2679235470216705,2.053921366858284,0.3111731708049774,0.4911805987358093,1.2936342461645107,2.0963955470073037,-0.008140059188008308,0.9587045907974243,1.2081929606223702,1.5939925184837986,-0.01650996133685112,0.28917014598846436,1.2039635154865231,1.6187008453071714,-0.4405645430088043,0.9919320940971375,0.011706233024597168,1.04930998008401,1.6636132167466717,98.6382801051185,90.93370740373715,1.0,0.0010047513132443386,-0.005034171337062742,-0.07463410704507276,0.052417588646680724,133.78186049487536,1.2913826219169529,3,0.1
1.035975510913918,1.0498251060724961,-0.20705649256706238,0.9996185302734375,0.978489567733779,1.2075966407483707,0.020938724279403687,0.99997478723526,0.9297514341302056,1.2371044937093651,-0.3591788411140442,0.9999905228614807,1.0620146134387958,1.633880075904859,0.12263500690460205,0.9999819993972778,1.0285624416945691,1.6814990315081026,-0.12270178645849228,0.9999879598617554,1.2949500653235528,1.698819309434682,0.19554266333580017,0.23072436451911926,1.3218275136148885,1.713243236570025,-0.15660950541496277,0.9671080708503723,1.2628498817878078,2.049825106072496,0.3100559413433075,0.4778980016708374,1.2890900899643627,2.089187851644146,-0.011632010340690613,0.9543077945709229,1.20314884215747,1.587868247886691,-0.00836404599249363,0.28113311529159546,1.1995325188196602,1.6115328723648272,-0.42372164130210876,0.991546630859375,0.012287676334381104,1.0452885275666826,1.6576895537064809,100.35246752430389,91.20108751209466,1.0,-0.0009697757434093901,0.0017604758044557005,-0.01437698767078425,0.04943077247096913,133.8261107996228,1.287926179421346,4,0.13333333333333333
1.03203685179042,1.0451316369115922,-0.20580320060253143,0.9996476173400879,0.9753644338044681,1.202350405276584,0.024358291178941727,0.9999767541885376,0.9271250026824518,1.231997896530009,-0.36399203538894653,0.9999911189079285,1.0574940859512458,1.6279270718170598,0.124117411673069,0.999983012676239,1.02425970211631,1.6749825168306474,-0.12417467683553696,0.9999885559082031,1.2899458426345791,1.6962519179084903,0.19698849320411682,0.23115497827529907,1.3157897776234968,1.7074475627902261,-0.15805339813232422,0.9661999940872192,1.2589841104030863,2.045131636911592,0.314073383808136,0.4731396436691284,1.2843162941855069,2.0814457249631713,-0.01157482247799635,0.9520444869995117,1.1991442960879266,1.581633051000378,-0.005460101645439863,0.2766208052635193,1.195331186373758,1.60471660939231,-0.44476526975631714,0.991338312625885,0.012393176555633545,1.040876894033778,1.6514547943238536,101.30821920473961,91.54398621164151,1.0,-0.003360987551417365,0.0007960837408476627,-0.01926656793607378,-0.007704203817747518,133.84423986179914,1.2844838989130158,5,0.16666666666666666
1.0311466263541191,1.04373694012157,-0.20151832699775696,0.9996745586395264,0.9743367069839609,1.1992368203630008,0.023024260997772217,0.9999784827232361,0.9270891035081429,1.2303672130942112,-0.35808396339416504,0.9999916553497314,1.0560647391185598,1.6248545025946741,0.12404952943325043,0.9999840259552002,1.0228716082764135,1.6723733072532112,-0.12410847842693329,0.9999892115592957,1.2878259789800215,1.693653308483549,0.19699101150035858,0.23010636866092682,1.3131413171050268,1.7052211888081417,-0.15689119696617126,0.9646825194358826,1.2570702411775243,2.04373694012157,0.3138526380062103,0.46546047925949097,1.2827974006836917,2.079012317902183,-0.01193344034254551,0.9499236345291138,1.1980356746679441,1.5793589199913078,-0.0013910674024373293,0.270343542098999,1.1947909436889796,1.602146654549359,-0.4313018321990967,0.9908337593078613,0.013030290603637695,1.0394681736974867,1.6486139049239426,101.51294112953624,91.81528806869345,1.0,-0.000246842931140285,-0.005069351153774093,0.02401110321024462,-0.04528099839234841,134.1949406601919,1.279619795495687,6,0.2
1.030526759613943,1.0437914753760347,-0.20971016585826874,0.9996973872184753,0.9764556777451834,1.1969642406308352,0.014535506255924702,0.9999799728393555,0.926421937117837,1.2301772924367596,-0.3615105450153351,0.9999921321868896,1.057321331666166,1.6232768891583014,0.12347131967544556,0.9999847412109375,1.0217601059195114,1.671882615937395,-0.1235278993844986,0.9999896287918091,1.288037591288012,1.6927854294030593,0.18442219495773315,0.23027770221233368,1.312067553591636,1.7050995124233717,-0.15714925527572632,0.9627705812454224,1.2579767499381647,2.0437914753760347,0.29070454835891724,0.4575776755809784,1.282347464810854,2.0793127591688143,-0.014257038943469524,0.946671187877655,1.1976024575194892,1.5792172829475197,-0.010117603465914726,0.26682087779045105,1.195328970048661,1.601821723325147,-0.43205252289772034,0.9906123280525208,0.013902485370635986,1.0395407187928387,1.6475797525478482,101.87114896930476,91.98646994874855,1.0,0.0007923452722613356,-0.007298056454206416,0.00773566542637788,-0.016591730709626145,133.06920115844073,1.2742813106570334,7,0.23333333333333334
1.0312213063017563,1.0432614570317842,-0.21583488583564758,0.9997208714485168,0.9770178492376548,1.1951374709988771,0.012070633471012115,0.9999814629554749,0.9255625806733592,1.2298084810092251,-0.3671547770500183,0.9999926686286926,1.0608768562836295,1.6226490253565538,0.12349561601877213,0.9999854564666748,1.021687034810174,1.6712196462982385,-0.12355214357376099,0.9999900460243225,1.2875690579615284,1.6933154890073527,0.18394269049167633,0.2263011336326599,1.3115818772888668,1.7058208962979715,-0.15976926684379578,0.9607359766960144,1.2579435474944305,2.043261457031784,0.2910918891429901,0.4469744563102722,1.2819829895196972,2.0792372639753682,-0.019853683188557625,0.9437009692192078,1.196451664178441,1.5798106841442543,-0.01816669851541519,0.26640263199806213,1.194219415022448,1.6023381847149696,-0.4499770700931549,0.990787923336029,0.01451563835144043,1.0412819455469018,1.646934335827396,102.47478210991176,92.27442508016965,1.0,0.01581576924434553,-0.0025933652040395472,0.12203776000817046,0.03820485115526496,130.00322604186866,1.275798887332925,8,0.26666666666666666
1.0292181120878001,1.041272390438213,-0.21190352737903595,0.9997420310974121,0.9762203327493679,1.1934929524501945,0.014398801140487194,0.9999828338623047,0.924302590809755,1.2285668611985543,-0.36558669805526733,0.9999931454658508,1.060063249174612,1.6202870675121508,0.123573899269104,0.9999861121177673,1.0205231283594725,1.6694384402860492,-0.12362271547317505,0.9999904036521912,1.2837598442834677,1.6920306210655933,0.1871575266122818,0.2206350564956665,1.3083619129376647,1.7044095221922513,-0.1652783751487732,0.9596168398857117,1.2559867835507772,2.041272390438213,0.29433590173721313,0.43740779161453247,1.280742025799724,2.078623849740259,-0.030916791409254074,0.9422406554222107,1.1953917645797227,1.5766367174599978,-0.02433692291378975,0.2735481858253479,1.192483386282757,1.6005608116237853,-0.4535309672355652,0.9908143877983093,0.014699280261993408,1.0402931887670421,1.6448627538991,103.23517359173029,92.70600709645682,1.0,0.0005440445066828266,-0.0030258563408202435,-0.11677328371896632,-0.0033306818746421667,130.07072917173528,1.2746372942735245,9,0.3
1.0297208090040808,1.041395507645886,-0.21466505527496338,0.9997619390487671,0.9764291405268624,1.193575946560619,0.014812926761806011,0.999984085559845,0.9246714213000968,1.228789003641325,-0.3706478476524353,0.9999935030937195,1.0598100815932419,1.6180875296234125,0.12408436834812164,0.9999868869781494,1.0206501046042586,1.6692232487507548,-0.12412512302398682,0.9999908208847046,1.2854800527213714,1.6908703599173065,0.18527457118034363,0.21961714327335358,1.3084917806164542,1.7051378161196737,-0.16482329368591309,0.9584978818893433,1.2561986833027394,2.0413955076458863,0.29230791330337524,0.4322701692581177,1.2809355973871444,2.080023804696236,-0.031193751841783524,0.940728485584259,1.195740927926574,1.5760320447396294,-0.025336870923638344,0.27657583355903625,1.1924631595087465,1.6006470621660867,-0.4630528390407562,0.9902877807617188,0.01475614309310913,1.0402300930987503,1.6436553891870838,103.10033486987811,92.90815623186214,1.0,-0.001310985801729851,-0.010843226637589468,-0.014689181143555186,-0.061898219582758644,131.4425792031947,1.2668477090393853,10,0.3333333333333333
1.0292814930174852,1.0417357534661478,-0.21123027801513672,0.9997798204421997,0.9766839787338562,1.193926735058508,0.017306113615632057,0.9999851584434509,0.9239979764414191,1.2289695514468857,-0.35917192697525024,0.9999939203262329,1.0604209496925754,1.6184234879611494,0.12241001427173615,0.9999873638153076,1.0205983581917775,1.669480357724868,-0.12246103584766388,0.9999911189079285,1.285711846908347,1.6910003000341005,0.18596471846103668,0.22016702592372894,1.3089399492204021,1.707570035342566,-0.16275867819786072,0.9581300020217896,1.255549812845016,2.0417357534661478,0.2921302616596222,0.4285907447338104,1.2812370851253223,2.0808854377617028,-0.02850761078298092,0.9400255680084229,1.1965590399250214,1.5762266579089146,-0.018974483013153076,0.2897873520851135,1.192514839168776,1.6023048707811884,-0.42534273862838745,0.9907055497169495,0.014681994915008545,1.0405096539421763,1.6439519228430088,102.9410494442683,93.2811464384349,1.0,0.0006400426388637248,-0.00014179232334933357,0.015496526727105393,0.08500434136942586,130.88800470690188,1.2666508025162877,11,0.36666666666666664
1.0298434133503187,1.0422568292002123,-0.19977697730064392,0.9997957348823547,0.9768518607458694,1.193740376228326,0.01965046301484108,0.9999862313270569,0.9237882310233151,1.2292475710971753,-0.3537314534187317,0.9999942779541016,1.0597088838641247,1.619696648542082,0.12249312549829483,0.9999879598617554,1.017461019833588,1.671041598316142,-0.12254579365253448,0.9999915361404419,1.2861022580060566,1.6911755194515365,0.18710163235664368,0.2223014086484909,1.3093701463122807,1.707671431654349,-0.1618458330631256,0.9584215879440308,1.2570405932210083,2.042256829200212,0.294615238904953,0.427743524312973,1.2828153137336225,2.0806700197824295,-0.024233510717749596,0.9397531747817993,1.1968996735610955,1.5769621038720212,-0.002753462176769972,0.30640488862991333,1.19221857425199,1.6036257992253098,-0.42142534255981445,0.9911288022994995,0.014872312545776367,1.0385849518488564,1.645369123429112,102.79038049085497,93.08012228910896,1.0,-0.01689323957182113,0.0072087344368096575,-0.13332272511680765,0.05589298298247112,129.5439141162072,1.2669511585022053,12,0.4
1.030840229429867,1.0430503537867335,-0.19258448481559753,0.9998094439506531,0.9780347345962257,1.1945531553014752,0.02801538072526455,0.9999871253967285,0.9245895770579247,1.2302599192219354,-0.3501341640949249,0.9999945759773254,1.0599834018065772,1.6208914807664732,0.12282216548919678,0.9999884366989136,1.0174639880007708,1.6721502221945017,-0.12287914752960205,0.9999918341636658,1.284280659274091,1.6927008817861455,0.19160282611846924,0.22191493213176727,1.310044598388796,1.708564004220179,-0.16130203008651733,0.9579774737358093,1.255928165251705,2.0430503537867333,0.2949509620666504,0.427613765001297,1.2846372299358157,2.080372935318452,-0.02266506291925907,0.9392966032028198,1.1978381906829967,1.5779952042385201,0.010306352749466896,0.30975186824798584,1.1931863960318128,1.6046246531303672,-0.4229224622249603,0.9912283420562744,0.014945805072784424,1.038723694903674,1.6465208514804874,103.12596008141104,93.18519636094206,1.0,-0.004415446972233782,0.0003144117682119294,0.09795890909924153,-0.054113722117502934,129.44369145724946,1.2695033329414984,13,0.43333333333333335
1.0315960170518685,1.0435256008811993,-0.19270074367523193,0.9998218417167664,0.9787383019133491,1.1947367086429221,0.028153305873274803,0.9999879002571106,0.9251571758996764,1.230910528976039,-0.3502047657966614,0.9999948740005493,1.0595903653865988,1.6233120650346091,0.1229257807135582,0.9999887943267822,1.0176859570534982,1.6728429164142753,-0.12298567593097687,0.9999920725822449,1.2845839689414837,1.6933584100574341,0.1931847482919693,0.22332186996936798,1.3104435571414814,1.7087011882857015,-0.16085602343082428,0.9577312469482422,1.2564420322517595,2.0435256008811993,0.2998124659061432,0.42418989539146423,1.2853808890745297,2.080439214966713,-0.016099123284220695,0.9378284215927124,1.1965859793342113,1.5787056216347433,0.009451489895582199,0.30840325355529785,1.1938483293169166,1.6047806090555428,-0.426011860370636,0.9914859533309937,0.015134990215301514,1.0386381612200486,1.6480774907244422,102.69789760192846,93.12600482992303,1.0,-0.00402339948215103,0.006749409417630271,0.00305550795761241,0.04991711823655744,129.0844319431709,1.273828457154301,14,0.4666666666666667
1.0356736097206807,1.05073128916293,-0.18798379600048065,0.9998332858085632,0.9806846905526748,1.200139276154291,0.03614264354109764,0.9999886155128479,0.9285031680607269,1.235642829433246,-0.3466493785381317,0.9999951720237732,1.0632522754788547,1.6292926831482502,0.12319829314947128,0.9999892115592957,1.0206770476629106,1.6786465079849684,-0.12326516956090927,0.9999923706054688,1.290851056362166,1.6992654405208831,0.18665429949760437,0.2230260670185089,1.3151011478416663,1.7147329281095864,-0.16047118604183197,0.9565447568893433,1.2634052762387833,2.05073128916293,0.29319655895233154,0.41757187247276306,1.290110928410241,2.087832758246147,-0.01705412194132805,0.935749351978302,1.20094016407909,1.5827561195478914,0.0202428437769413,0.31433767080307007,1.1980594980239785,1.6095036603594717,-0.4310089945793152,0.9917219281196594,0.014802098274230957,1.0419646615708826,1.6539695955666092,102.62433800279273,93.15572331635273,1.0,-0.0026428505996986453,0.00038619917936861826,0.010408500675414399,-0.04766282495398144,128.32677181874948,1.264481300083764,15,0.5
1.0427032550850734,1.057007449421678,-0.18830201029777527,0.9998440742492676,0.9850729833996503,1.2066633666453874,0.036426495760679245,0.9999892115592957,0.9326594216742577,1.2405005088030636,-0.34713900089263916,0.9999954104423523,1.066192213933139,1.6329216909251685,0.12379608303308487,0.9999895095825195,1.0239955037508768,1.682618290887676,-0.12386320531368256,0.9999924898147583,1.294765332284782,1.7027116210332987,0.18414011597633362,0.2207803726196289,1.3178595072693065,1.7188591197975827,-0.1627422422170639,0.9547877907752991,1.266927012299091,2.0570074494216777,0.2860584259033203,0.41400229930877686,1.293815470982454,2.093867516213057,-0.028134876862168312,0.9336791634559631,1.20621990687058,1.582877836008059,0.01943478174507618,0.32356688380241394,1.2015845120275739,1.6123150772380614,-0.4334939420223236,0.991877019405365,0.014066934585571289,1.045093858842008,1.657769990906422,102.48622534919687,93.36195830863143,1.0,0.001108809213104177,-0.007733083928108985,0.030586636815584146,-0.06607047203105948,128.89101365792325,1.2532208142456382,16,0.5333333333333333
1.055201680150163,1.0681588681215033,-0.18602672219276428,0.9998542070388794,0.991348420260692,1.2147275788853364,0.04061504825949669,0.9999898076057434,0.9400645725911161,1.2491985367159488,-0.34666523337364197,0.9999956488609314,1.0718705595892402,1.6418497393469424,0.12450909614562988,0.9999896883964539,1.0310108881376514,1.691789201641805,-0.12458165735006332,0.9999926090240479,1.2997026524005553,1.7122601574542535,0.18504013121128082,0.21748219430446625,1.3237724266646138,1.7281849110833085,-0.1643739938735962,0.9539656639099121,1.2705677195571168,2.068158868121503,0.2828345000743866,0.41080695390701294,1.3008950988748882,2.1052166794315523,-0.04072170704603195,0.9329886436462402,1.211842757941871,1.5839836505670535,0.01631978340446949,0.3408771753311157,1.2075759993622603,1.6202269886445133,-0.43775343894958496,0.9923564195632935,0.014252960681915283,1.0514407238634458,1.6668194704943737,102.49354568058043,93.61426854196914,1.0,0.0049939583502226865,0.0002942704401417844,0.02905930821987522,0.0604494264139796,130.03427631087553,1.245117992421788,17,0.5666666666666667
1.0689297356446112,1.0842813131153175,-0.16634252667427063,0.9998632073402405,0.998610101007753,1.2302125715906216,0.06139012426137924,0.9999902248382568,0.9506476170939416,1.259902104156273,-0.3280615210533142,0.9999958872795105,1.080041736195515,1.6550250943088671,0.12485138326883316,0.9999898076057434,1.0390869321019742,1.706271790266029,-0.12493596971035004,0.9999926686286926,1.3097122660656313,1.724468905168704,0.17979221045970917,0.2207890897989273,1.3311065699640605,1.7418013102561964,-0.16456708312034607,0.9540994763374329,1.2794761880825205,2.0842813131153175,0.2711413502693176,0.4150526523590088,1.3111557735796866,2.120872833903366,-0.04080379381775856,0.9334386587142944,1.2215696865746537,1.5872496852496951,0.046080414205789566,0.3685896694660187,1.2163732193326566,1.632772327658772,-0.4155574440956116,0.9929412603378296,0.012180805206298828,1.0595643341487446,1.680648442287448,102.0199158030116,93.92424508719282,1.0,-0.0006916695998732095,0.006276282045103561,-0.04438852491894236,0.04636638053283637,130.51790692299696,1.2340313967239391,18,0.6
1.0800020527477443,1.091231661767821,-0.1726166307926178,0.9998710751533508,1.0021358490378984,1.2352377476983494,0.05220421031117439,0.999990701675415,0.9648134543618629,1.265572635706235,-0.3294411301612854,0.9999960660934448,1.0823025006637168,1.6620102727778094,0.1243852749466896,0.9999901056289673,1.0422708580237725,1.7138395290693427,-0.12447179853916168,0.9999927878379822,1.3140285626435775,1.730319827720813,0.1743328869342804,0.22916866838932037,1.3349324743672601,1.748749507770627,-0.1597762405872345,0.9549816846847534,1.2837923756458391,2.091231661767821,0.25910302996635437,0.425895094871521,1.315855770561119,2.128210279513388,-0.03652016445994377,0.9351821541786194,1.2258611517343605,1.5901104503667318,0.034437451511621475,0.38921791315078735,1.2201878847352983,1.6371573001060344,-0.4134053587913513,0.9933410286903381,0.012401938438415527,1.0622866793437447,1.6879249009235762,101.63587118341667,93.92433509115094,1.0,-0.007383424382463021,0.010002762334153134,-0.049099106104100225,0.027189984404253416,131.6796913651401,1.2331638769966498,19,0.6333333333333333
1.098556385410881,1.105138758908012,-0.1763552874326706,0.9998784065246582,1.0091430049282486,1.2464234383604913,0.050216931849718094,0.9999909996986389,0.9819687983269553,1.276045917139197,-0.3335269093513489,0.9999962449073792,1.0889646773623478,1.6771562702187945,0.1249602884054184,0.9999901056289673,1.0497255381208308,1.7286604017514833,-0.12505421042442322,0.9999927878379822,1.322596847658759,1.7406148098743455,0.17715956270694733,0.2349025309085846,1.3437653017011089,1.7606965128854268,-0.15918967127799988,0.9557394981384277,1.2922997730210974,2.1051387589080117,0.26817065477371216,0.4313511252403259,1.3251977698999908,2.14271973683129,-0.035380374640226364,0.9359028935432434,1.2341919116602338,1.597796144059388,0.029750775545835495,0.40016913414001465,1.2284873494195188,1.6481448320320895,-0.42797690629959106,0.9938291311264038,0.01202923059463501,1.0693451077415892,1.702908335985139,100.44474210517946,93.43537696654211,1.0,-0.0010642221349098757,0.028149866978675643,0.05044230118344171,0.14318374251149232,132.19881076339468,1.2356935347539786,20,0.6666666666666666
1.1184926592414586,1.1201165308414012,-0.1783764809370041,0.9998781085014343,1.0378280996385556,1.258134529361445,0.0365762934088707,0.9999908208847046,1.0006820275503059,1.2867787994762867,-0.32647985219955444,0.9999963641166687,1.097484998461428,1.6922383017713571,0.11830200999975204,0.9999896287918091,1.0572183934706894,1.7444384301051854,-0.11839333921670914,0.9999924898147583,1.3333849270506968,1.7528940342657677,0.14794450998306274,0.2344379425048828,1.351523297113509,1.7744516338096734,-0.15414747595787048,0.9531600475311279,1.3019001936538397,2.120116530841401,0.21899573504924774,0.4298863112926483,1.3343965482768252,2.1579770059071848,-0.037110425531864166,0.9349625706672668,1.243083651525389,1.6064528809288703,0.021197617053985596,0.4079112112522125,1.2370619698939571,1.658276035110042,-0.4041416049003601,0.9942201375961304,0.011549055576324463,1.0773516959660587,1.7183383659382714,99.51939309862357,93.26598385213119,1.0,0.0024751159848371233,0.02421977901546835,0.026841063804467998,-0.03126994308902599,134.52891729072212,1.2370022297626406,21,0.7
1.1392877437981628,1.1259763459397047,-0.179197758436203,0.9998841285705566,1.0516660681432617,1.265353089500683,0.04615034908056259,0.9999909996986389,1.0166358356654979,1.2910544410065814,-0.3329176902770996,0.999996542930603,1.1007010066318172,1.699782143413921,0.12288546562194824,0.9999895691871643,1.0604911362911218,1.752519694535014,-0.12296740710735321,0.9999924898147583,1.343642472526144,1.7530412331451137,0.15371069312095642,0.24078544974327087,1.3556420138806997,1.7804541984228945,-0.16003820300102234,0.9539185762405396,1.3099627372826386,2.1259763459397045,0.22494924068450928,0.43629300594329834,1.3387430355831436,2.16628166852602,-0.04865586757659912,0.935784637928009,1.2480119307148714,1.6104788914070878,-0.0012431162176653743,0.4178885221481323,1.242600596802743,1.6633766421012488,-0.438082754611969,0.9945613145828247,0.010327577590942383,1.0805960714614695,1.7261509189744677,97.20473517117485,92.89873103770444,1.0,-0.003089511886035821,0.015498960362198848,-0.04315481443045612,-0.06816437504000186,136.23636395733195,1.2418557023204928,22,0.7333333333333333
1.1668379483196085,1.1442747133867854,-0.207248717546463,0.9998912215232849,1.0696979422068322,1.278056826635636,0.035709016025066376,0.9999911785125732,1.0391685364997054,1.303927001638218,-0.3658607602119446,0.9999967217445374,1.111879696723549,1.7151786473136386,0.1279165893793106,0.9999892711639404,1.0719767426696525,1.7709027947139924,-0.12798765301704407,0.999992311000824,1.3616249852164646,1.768228042833804,0.16105124354362488,0.24876545369625092,1.3699973003653125,1.7987051346871878,-0.16681109368801117,0.9556407332420349,1.3244367304411018,2.1442747133867854,0.23748593032360077,0.44736823439598083,1.3521276973675038,2.189154753523053,-0.05175083875656128,0.9370604753494263,1.2612035214268702,1.6242931446517028,-0.03103334829211235,0.432664155960083,1.2560156060170224,1.6805729581145907,-0.4810463488101959,0.9949429035186768,0.010286986827850342,1.0919282196966007,1.7430407210138155,96.34441620909003,92.70928587450469,1.0,-0.0004470673299467971,-0.010092936374907848,0.020695816322361192,-0.19926142938439295,138.8823916187462,1.2312603361860466,23,0.7666666666666667
1.1818682894069679,1.1478248517876655,-0.20200176537036896,0.9998967051506042,1.0737386489477847,1.2818459788834315,0.042396701872348785,0.9999912977218628,1.044180401073582,1.308315268225957,-0.3580053746700287,0.9999968409538269,1.1146602999084796,1.7196795135027545,0.12843568623065948,0.9999889135360718,1.07551085797611,1.7771851699009908,-0.12850365042686462,0.9999920725822449,1.366204873168772,1.7742335936628788,0.1817546784877777,0.24769513309001923,1.3750472698107787,1.8046336558646485,-0.1633286327123642,0.9568400382995605,1.3288192935572367,2.1478248517876657,0.272401362657547,0.4502245783805847,1.3557967545143845,2.1963550153974194,-0.0336325541138649,0.9375926852226257,1.2645207707815909,1.6291169852715204,-0.01628461666405201,0.4422244131565094,1.2592933256343104,1.684527542893993,-0.45783060789108276,0.9952443838119507,0.010490596294403076,1.0950855789422946,1.7484323417018726,96.52198987070724,92.42232000601032,1.0,-0.0036160473430281483,-0.0029239109012960548,-0.025664831675127484,0.05835720362460916,140.4136666480764,1.2371528079694065,24,0.8
1.2125639330333886,1.1549562013729942,-0.2044525146484375,0.9998992085456848,1.1176216741622658,1.289133935564612,0.030492935329675674,0.999991238117218,1.0753007650247302,1.3125624449670386,-0.35429832339286804,0.9999969005584717,1.1223527431823335,1.7275833945996184,0.1261177659034729,0.999988317489624,1.08189388092765,1.785025021797906,-0.1261850744485855,0.9999917149543762,1.3733190609893435,1.7827169326918886,0.16993525624275208,0.2422950714826584,1.3792278174440202,1.8132260696836544,-0.160476416349411,0.9560321569442749,1.3362216424218862,2.154956201372994,0.24232575297355652,0.4434107542037964,1.359265973882396,2.2072454932550936,-0.042023174464702606,0.9358950257301331,1.2743174779737854,1.6375309066471018,-0.04233131930232048,0.4425721764564514,1.2697783468519503,1.6917882229292593,-0.4512484669685364,0.9952470064163208,0.009243547916412354,1.1021233120549916,1.756304208198762,96.69889009620894,92.51784562656246,1.0,0.015768467370158138,-0.00039787175996794437,0.1474605201637093,0.019300397612533732,144.2229235674808,1.2459923138892268,25,0.8333333333333334
1.2557068407185443,1.2054934672511384,-0.17716264724731445,0.999896764755249,1.148307675641378,1.3207651266892872,0.05340143293142319,0.9999907612800598,1.1191468156476456,1.3442704871414919,-0.3437117040157318,0.9999968409538269,1.1547414563561307,1.7685974611846,0.12713569402694702,0.9999876618385315,1.1119766933496347,1.8284468036538513,-0.12721547484397888,0.9999912977218628,1.409037439982667,1.8285356351100914,0.15758880972862244,0.24496057629585266,1.4119274027245257,1.8574601786688436,-0.1717928946018219,0.9575780034065247,1.3713941044698164,2.2054934672511384,0.22037658095359802,0.44607841968536377,1.3909422866362051,2.2608880824244486,-0.06868676841259003,0.9370028972625732,1.3078017696649862,1.6778675807743348,-0.02781977877020836,0.4364466369152069,1.3014373208185184,1.7317814653321313,-0.44121789932250977,0.9952557682991028,0.00905299186706543,1.1333590748528826,1.7985221324192258,97.55998348573243,92.54719749250626,1.0,0.034331881668778194,-0.00499908531853015,0.1436088376657363,-0.036272185426019427,143.6295843573728,1.2101919717049734,26,0.8666666666666667
1.3061124919458567,1.2330420733468295,-0.14312055706977844,0.9998782277107239,1.1770996427202816,1.3440600629526818,0.08305002748966217,0.9999892711639404,1.1589390933863457,1.361861552560455,-0.3163914084434509,0.9999966621398926,1.1705524289539677,1.7930072040131257,0.1281924992799759,0.9999867081642151,1.1267364779981233,1.8536502667306425,-0.12827791273593903,0.9999907612800598,1.428152650647276,1.850889764743346,0.15611857175827026,0.24127453565597534,1.423746700026261,1.8793960802032315,-0.19633838534355164,0.9591522216796875,1.3923249356433078,2.2330420733468297,0.21508093178272247,0.44592219591140747,1.4076377077169142,2.2912125719050622,-0.09442340582609177,0.9378863573074341,1.332746427379249,1.7005363469362262,0.03014487586915493,0.4197697043418884,1.3231472451477733,1.7519451682315184,-0.41740989685058594,0.9951440095901489,0.0067656636238098145,1.1486444534760456,1.8233287353718841,97.30801352248264,92.71410867853078,1.0,0.000964373489329086,0.005805735535885148,-0.2628021360371483,0.08446281562508945,144.98657098574623,1.2081226746012204,27,0.9
1.3578929492281038,1.2715933403977067,-0.1083773747086525,0.9998629093170166,1.2185887033328808,1.3789427229823121,0.11036841571331024,0.9999866485595703,1.2075772242196705,1.389752701874784,-0.27805233001708984,0.9999961256980896,1.1844242969110153,1.836401818797467,0.12807632982730865,0.9999836087226868,1.149648670486505,1.8916802326683613,-0.12815767526626587,0.999988853931427,1.4505894501395744,1.8875694361841442,0.20080582797527313,0.22815513610839844,1.4531920746659508,1.917220125672464,-0.15984180569648743,0.9595174193382263,1.4195486571038187,2.2715933403977067,0.2860511541366577,0.4329582750797272,1.4359257695264633,2.3370041996677604,-0.04774605482816696,0.9378290176391602,1.3660743861382567,1.7352658263064897,0.0435948446393013,0.40493905544281006,1.363924037216507,1.787232085298507,-0.35909929871559143,0.994972825050354,0.004027426242828369,1.1670364836987601,1.864041025732914,96.26060063648208,92.45416401397138,1.0,-0.037575089197362,0.03206408460792334,-0.3070373124793812,0.20816035636663846,152.09710996790574,1.2164969177084235,28,0.9333333333333333
1.3872803297805048,1.287535452636663,-0.043938957154750824,0.9998376965522766,1.2220679619322192,1.394083820742061,0.151590958237648,0.9999853372573853,1.2402627734004317,1.4000916486552384,-0.22964389622211456,0.9999951720237732,1.160464487434879,1.8662246996589476,0.12802734971046448,0.9999808073043823,1.1556438712720614,1.9065310983992254,-0.12814101576805115,0.9999864101409912,1.4483169809460528,1.895743009373568,0.21311192214488983,0.2180480808019638,1.4635736064438558,1.930860763557827,-0.14445148408412933,0.9611419439315796,1.42018943031154,2.287535452636663,0.2804158329963684,0.4380270540714264,1.4449890183517209,2.3550733749057478,-0.04163816198706627,0.941092848777771,1.3830563400804667,1.7519683558410069,0.1616286337375641,0.4066530168056488,1.3879788507316628,1.7988949160127632,-0.30876076221466064,0.9944199919700623,0.0022228360176086426,1.1580541793534702,1.8863778990290865,91.74869253907912,92.00907842646544,1.0,-0.13539988059202154,0.07409031787675405,-0.7722250816725588,0.3308761644295212,179.38635826069876,1.2467046580407035,29,0.9666666666666667
1.439926473520714,1.3262877554712262,-0.020771514624357224,0.9997990131378174,1.2571534236319692,1.4250277472704982,0.17541828751564026,0.9999823570251465,1.2878800299170157,1.4244251812959525,-0.21657106280326843,0.9999940991401672,1.1707020761665339,1.9047098990419462,0.12798818945884705,0.9999779462814331,1.1747775448114426,1.9382057865168862,-0.12812025845050812,0.9999841451644897,1.4714249997399909,1.930469717292718,0.20089122653007507,0.2033149152994156,1.488307493069222,1.9665897722164674,-0.1388222724199295,0.960058867931366,1.444244344351632,2.3262877554712262,0.2732984721660614,0.4183480143547058,1.4702757185648383,2.393024025414231,-0.031881917268037796,0.9399217367172241,1.4150409409921834,1.7904664039168918,0.15705356001853943,0.39493945240974426,1.4193645443072298,1.828511263225762,-0.32047733664512634,0.9934977889060974,0.0002192854881286621,1.1727398104889883,1.9214578427794162,90.96767471454372,92.75159766684287,1.0,-0.033728417031526875,0.026313753043594214,0.7568231346167696,-0.3569108257900506,162.84634588083966,1.2486763089433779,30,1.0
1.465460234165084,1.3187241540790007,-0.015324090607464314,0.9997768402099609,1.2663748941207211,1.4175179009992656,0.18005666136741638,0.9999797344207764,1.3166688768176045,1.4207959381503532,-0.22234518826007843,0.9999937415122986,1.1582267445226995,1.8977766860230219,0.13059505820274353,0.9999754428863525,1.1742313364171055,1.929364880913642,-0.13077309727668762,0.9999830722808838,1.461687482047621,1.939058390882891,0.2226935625076294,0.19395944476127625,1.4826534142427998,1.9663580774003013,-0.12537895143032074,0.9627479314804077,1.4384177733324657,2.3187241540790007,0.30103474855422974,0.42432287335395813,1.4650491950238818,2.3831861829518908,-0.030665073543787003,0.9443911910057068,1.4058647782354123,1.7904119574548392,0.236654594540596,0.37510189414024353,1.429588261113593,1.8210050135357472,-0.33321937918663025,0.993476927280426,0.0011978745460510254,1.1662290404699025,1.913570783468332,94.23948778427152,94.42119804011924,1.0,-0.013121310528301063,0.00020113190040956276,0.15974271336864357,-0.2029484264301806,140.43972775944488,1.2748240394743273,31,1.0333333333333334
1.4646964038337844,1.3119966769494382,0.0587453618645668,0.9997866153717041,1.2778556775627672,1.4094951817877863,0.21999242901802063,0.9999802708625793,1.3421498207998217,1.4191915263509758,-0.16080902516841888,0.9999940395355225,1.1499472166934575,1.8887836813275054,0.12969526648521423,0.9999744296073914,1.1785835204687345,1.9151082695145998,-0.12993036210536957,0.9999828338623047,1.4277789424404579,2.0012076586702245,0.23584206402301788,0.20359113812446594,1.476729146534286,1.9582199140430228,-0.09746892750263214,0.9659140110015869,1.4271334613036901,2.3119966769494384,0.310119092464447,0.4452190399169922,1.4612656918900127,2.3729115843484707,-0.017921168357133865,0.9490651488304138,1.3708710520303264,1.8002282161483305,0.42825037240982056,0.36693450808525085,1.4374582365585251,1.8143014911669764,-0.30276423692703247,0.9936487078666687,0.003559112548828125,1.164265368581096,1.9019459754210526,111.91160783222175,96.0923842442193,1.0,0.024940657257362466,-0.024077061091941326,0.2939790011372362,-0.187798420338572,117.6491203420545,1.2684430288711996,32,1.0666666666666667
1.4686164213245867,1.2898419604073617,0.061819471418857574,0.999763548374176,1.2904945854320535,1.374009993721369,0.21959197521209717,0.9999793767929077,1.355357611507805,1.4004818558783734,-0.17190340161323547,0.999994158744812,1.1395623870337255,1.8492133280069813,0.1302747279405594,0.9999743103981018,1.174837234405295,1.8693685748709716,-0.13049368560314178,0.9999832510948181,1.4113158800480974,1.9589099463211108,0.23415593802928925,0.21459561586380005,1.4614500472199528,1.9337769912015024,-0.10469821840524673,0.9689581394195557,1.4053803900764774,2.2898419604073617,0.3115478754043579,0.47788166999816895,1.4457737441035161,2.339382001605118,-0.016352156177163124,0.9535852074623108,1.2886565933438499,1.7855984152366788,0.4523621201515198,0.33951377868652344,1.4272011770329522,1.7947151316609282,-0.2984200716018677,0.9933053851127625,0.009844839572906494,1.1571998107195103,1.8592909514389764,110.95453999782393,100.45192861792368,1.0,0.06789039589565943,-0.1501867673632529,0.3631514212852541,-1.060921432450258,102.12198395078593,1.228003652294077,33,1.1
1.459164196548921,1.2791706773735623,0.03353028744459152,0.9997477531433105,1.3087522979459607,1.3651473352584726,0.22036167979240417,0.9999772310256958,1.3526643434423051,1.390751051143579,-0.1762559711933136,0.9999937415122986,1.135710139942819,1.8293923709388358,0.1301657110452652,0.9999717473983765,1.166665790879553,1.8451539912405366,-0.1303739994764328,0.9999817609786987,1.4060566252100895,1.9352162756277205,0.1916101574897766,0.20451736450195312,1.4520074234900435,1.9203221622706135,-0.11799321323633194,0.9700645208358765,1.3967285370453968,2.2791706773735623,0.23986634612083435,0.4689069986343384,1.4362434146780327,2.3247991859956865,-0.02248486503958702,0.9542586803436279,1.3418622259482984,1.769688689527895,0.34281522035598755,0.3223813772201538,1.4217543926695027,1.7880964607850396,-0.2606392204761505,0.9923509359359741,0.009584009647369385,1.151187965411186,1.837273181089686,109.82377777788437,102.52635494206798,1.0,0.011008500139836647,-0.07435555480930872,-0.4203716332918939,0.5575349945946297,96.54135011059203,1.191228391962429,34,1.1333333333333333
1.457458618153609,1.2642539744707002,0.11905558407306671,0.9996398687362671,1.2987078090289497,1.3500079653127943,0.25438788533210754,0.9999743103981018,1.3628489625573628,1.3761563871104239,-0.12467509508132935,0.9999926686286926,1.121281647163719,1.8032888870978303,0.1285710483789444,0.9999713897705078,1.163507013882942,1.8013731191787101,-0.12883727252483368,0.9999814033508301,1.3634904378466328,1.9804287856959353,0.19630202651023865,0.1984802782535553,1.438748161366533,1.8983133371449297,-0.08932160586118698,0.9707921743392944,1.3773916402625468,2.2642539744707,0.25183913111686707,0.46802112460136414,1.4197938652609097,2.2993172499080683,-0.01083596795797348,0.9553593397140503,1.3388000146083208,1.7806151362351839,0.28657323122024536,0.3057359457015991,1.413007450243556,1.7729497032999693,-0.16351865231990814,0.9868220686912537,0.009900867938995361,1.1423943305233304,1.8023310031382702,128.9839426452165,106.69612490743502,1.0,0.03434712747235057,-0.11061830268592963,0.18566449318596193,-0.2936475965541652,66.02557666324236,1.1470107286100286,35,1.1666666666666667
1.4334424539855677,1.196574420796319,0.09880214184522629,0.9996156096458435,1.2753094760856523,1.294899233684052,0.262129545211792,0.9999704957008362,1.3334731588871547,1.3237844786342654,-0.1365731656551361,0.9999918937683105,1.0813022038401334,1.7203821142201068,0.1286126971244812,0.9999722242355347,1.129226766713091,1.7165196168769696,-0.12888357043266296,0.9999818801879883,1.31879314695767,1.909979791890351,0.1878855675458908,0.20913036167621613,1.39117512869547,1.8312055388543107,-0.07085059583187103,0.9726011157035828,1.3228297552222261,2.196574420796319,0.24779704213142395,0.48946452140808105,1.3702651059076019,2.2189952280541614,0.04169737547636032,0.9579979777336121,1.291941626958691,1.7243701051244065,0.29584747552871704,0.2853037714958191,1.3734428581173748,1.7127438711360403,-0.13355396687984467,0.985050618648529,0.011332213878631592,1.1052644852766123,1.7184508655485382,129.4085850087381,110.55824914861695,1.0,0.02115016825458065,-0.1650345147868165,-0.09409592349821984,-0.4569531891251132,60.88064039635367,1.1299458596447065,36,1.2
1.4368917249098438,1.175222625355854,0.1834772527217865,0.9991078972816467,1.2747836830580663,1.2704467424749044,0.28873223066329956,0.9999633431434631,1.3500862951925676,1.3021453569847976,-0.09389028698205948,0.999989926815033,1.0686881010380838,1.6904280082149234,0.1286974549293518,0.9999716877937317,1.129442563282264,1.6793044473641432,-0.12897220253944397,0.9999814629554749,1.3109111199367083,1.862145741955945,0.21980507671833038,0.20430879294872284,1.3904866110493637,1.8102329842376872,-0.07788270711898804,0.973197340965271,1.3091916823976002,2.175222625355854,0.2563912868499756,0.4901471436023712,1.3526475563580467,2.196062797816913,0.018837150186300278,0.9588180780410767,1.2554452740205078,1.7320584271913542,0.316963791847229,0.26052331924438477,1.3813832464466487,1.7031349132890086,-0.10709631443023682,0.9708867073059082,0.012564122676849365,1.0990653321601738,1.6848662277895332,125.01907760401514,111.03519319531169,1.0,0.036364314873322784,-0.1150072426944908,0.11053657500133769,0.3463238366258496,53.486235782887285,1.1079926551072468,37,1.2333333333333334
1.4296577035869407,1.1501189684987367,0.18251319229602814,0.9986342191696167,1.274872399300853,1.242287209842933,0.31175416707992554,0.9999528527259827,1.3486124086588205,1.2682657249080478,-0.09818015992641449,0.9999880194664001,1.0588313194756354,1.6526283515759634,0.13420352339744568,0.9999720454216003,1.1241164967989994,1.644486369381695,-0.13445372879505157,0.9999819397926331,1.3009018036146693,1.8160911655594658,0.2672337591648102,0.19638608396053314,1.3798813224032551,1.7912453082753879,-0.0933733657002449,0.9750064015388489,1.2955941442545034,2.1501189684987367,0.35646289587020874,0.49303746223449707,1.3364713052712855,2.1750420524497036,-0.00916975736618042,0.9614673256874084,1.198783002961174,1.6979105573838402,0.3541643023490906,0.23631925880908966,1.3748200741420642,1.6868841071016318,-0.13447114825248718,0.9591954946517944,0.010406255722045898,1.0914739081373173,1.648557360478829,123.11961044704249,113.3942699150125,1.0,0.030187827645216662,-0.1418437875712196,-0.0441825745053411,-0.21384871959651786,55.12469409161548,1.0738057703213622,38,1.2666666666666666
1.412410803600218,1.1247738374216045,0.24266639351844788,0.9983447790145874,1.270913419153958,1.2060697373958416,0.32136067748069763,0.9999501705169678,1.349443223563007,1.2367100807490443,-0.06889389455318451,0.9999880194664001,1.0578678652270626,1.6016613218426614,0.13495104014873505,0.9999734163284302,1.1208917879728866,1.6021633243288111,-0.1351882517337799,0.9999829530715942,1.2960732004470297,1.7819079069957906,0.2496771365404129,0.19412842392921448,1.3691463792407832,1.7791208210097467,-0.11133749783039093,0.9767376780509949,1.2947336433434367,2.1247738374216043,0.3475698232650757,0.4948412775993347,1.3195482979272806,2.1574361106827102,-0.03699226304888725,0.9634484648704529,1.2013186108730969,1.6620910495225159,0.3687693476676941,0.21562285721302032,1.3641833599432949,1.6696084189116474,-0.12379179149866104,0.9464966654777527,0.012398451566696167,1.0893798265999746,1.6019123230857362,126.89042393736342,118.01249775593305,1.0,0.07051774079540409,-0.23830765487934505,0.32222951135299616,-0.7762894697617829,62.15171477871482,0.9908776118761357,39,1.3
1.3697863534678774,1.0364234203379121,0.17290589213371277,0.9984293580055237,1.237959635665562,1.139679746200332,0.3094164729118347,0.9999482035636902,1.292908952249081,1.1615137373644397,-0.10520622879266739,0.9999876618385315,1.032484412107098,1.497694321723719,0.13875697553157806,0.9999743700027466,1.0792610789591752,1.5073589141458135,-0.13893112540245056,0.999983549118042,1.2674740681781669,1.7072560819111549,0.18258465826511383,0.19220861792564392,1.3155200439564039,1.7083132040598685,-0.12516379356384277,0.978216290473938,1.2479938255483045,2.036423420337912,0.26072585582733154,0.4829173982143402,1.2649028387852017,2.0697038505053094,-0.061483513563871384,0.9649359583854675,1.1804412073215873,1.5690310080693093,0.3408602774143219,0.2031353861093521,1.3118290104924455,1.6006146498946408,-0.0781807005405426,0.9405327439308167,0.009218364953994751,1.0558727455331365,1.5025266179347663,128.33947107749935,122.41030989241399,1.0,0.08972724461017523,-0.24925233895091958,0.16842410940989885,-0.15863395881533435,71.82090347695508,0.9590684311590942,40,1.3333333333333333
1.3187122034594736,0.9550797526958446,0.1365566998720169,0.9985057711601257,1.2036716992803376,1.074321659299097,0.28364649415016174,0.9999471306800842,1.2448601381845488,1.0895446937535929,-0.11291459947824478,0.9999867081642151,1.0096083085606895,1.4140086106246055,0.14109724760055542,0.9999756217002869,1.0404433786395315,1.4270018868488525,-0.14122909307479858,0.9999842643737793,1.2294273860754934,1.638008755949315,0.1748499870300293,0.19512885808944702,1.266010441553269,1.6446084227734394,-0.12902683019638062,0.9798702597618103,1.1987192717713733,1.9550797526958446,0.27136701345443726,0.4807163178920746,1.2150211252917933,1.9879540456697813,-0.048359595239162445,0.9672192931175232,1.1837708901728163,1.505433442808118,0.2557726502418518,0.1943286508321762,1.2613206016958118,1.5365684484465676,-0.11111734807491302,0.928891122341156,0.006693243980407715,1.0250258436001105,1.4205052487367291,130.00794250287183,125.52383104384981,1.0,0.08265494452456466,-0.16572648977695834,-0.02605509284601371,0.5471262952477173,83.11021809338365,0.9484595869506784,41,1.3666666666666667
1.2925772467241279,0.9134091960761859,0.10440737009048462,0.9986296892166138,1.1855000254126167,1.0264072916560227,0.2695520520210266,0.9999485611915588,1.2152952899606098,1.0452998801559579,-0.1360577493906021,0.9999869465827942,1.003712829735336,1.3633336681871329,0.14061430096626282,0.9999761581420898,1.0201151145087197,1.3805214881256729,-0.14082254469394684,0.999984622001648,1.214002895843969,1.6026708859130103,0.1315477043390274,0.20229120552539825,1.2375694816104885,1.612648025174282,-0.1409892588853836,0.981432318687439,1.1774266427995972,1.9134091960761859,0.21610231697559357,0.4795125424861908,1.190789034542182,1.9571944046593601,-0.059798337519168854,0.9695625901222229,1.1863112386003183,1.4718878734311027,0.23043489456176758,0.20314806699752808,1.2362543952878773,1.4967728630942057,-0.09553015232086182,0.932532787322998,0.008485764265060425,1.0119139721220278,1.3719275781564029,131.9830706773261,129.13719912952385,1.0,0.0683250576549246,-0.14910878656428286,-0.10090681404501432,0.10519276333086111,107.99077780869764,0.9125674748854382,42,1.4
1.2743608812509455,0.8744296783925419,0.1020028218626976,0.9987251162528992,1.162926025259122,0.9885400293457322,0.2707594335079193,0.9999483823776245,1.1913769134814507,1.0018659485550552,-0.14261814951896667,0.9999869465827942,0.983258278655469,1.3262767828240933,0.14014843106269836,0.9999762773513794,1.004957854111702,1.3409496489050807,-0.14032098650932312,0.999984860420227,1.1849092540217103,1.5702708970342398,0.15509231388568878,0.19830313324928284,1.2126700904004322,1.5811153861732048,-0.13635015487670898,0.9826263189315796,1.1530415234503528,1.874429678392542,0.24678334593772888,0.4669794738292694,1.1666681944807165,1.9175730667317321,-0.057974763214588165,0.9712154865264893,1.1491664669131063,1.4310594714296496,0.24142637848854065,0.201552614569664,1.2078280250896973,1.452417791739181,-0.114959716796875,0.9358649253845215,0.006108641624450684,0.9941080663835855,1.333613215864587,134.4464385465616,131.35899765444756,1.0,0.019732654214726572,-0.08075722132762592,-0.35813450958044385,0.4956553320957339,96.0539643877571,0.9175254552633226,43,1.4333333333333333
1.2457996025958804,0.8231607394416813,0.03584159165620804,0.9988194108009338,1.1428796866563886,0.9463056095685003,0.23304370045661926,0.999950110912323,1.1600668005700794,0.9594181217443682,-0.19240131974220276,0.9999874234199524,0.970811669227752,1.2825995685522107,0.1395024061203003,0.9999768733978271,0.9819077145514271,1.2981411117715234,-0.1396522969007492,0.9999854564666748,1.1585032994370004,1.527330240442284,0.15805211663246155,0.1943049281835556,1.1809844066567026,1.5431179923454936,-0.13754341006278992,0.9839228987693787,1.1226446004244566,1.8231607394416813,0.2558322846889496,0.4721522331237793,1.1364178485591157,1.86702957961767,-0.04684543237090111,0.9736171364784241,1.1584673306786533,1.3946227466174486,0.20327162742614746,0.21267971396446228,1.178211266048367,1.4106220049517835,-0.1885010451078415,0.9411931037902832,0.006171047687530518,0.9763596918895896,1.290370340161867,135.60295530208876,133.0674341912151,1.0,0.06829939229417441,-0.07297050433665883,0.4156918188508009,0.04819199461639888,117.3776793052754,0.9371832641305599,44,1.4666666666666666
1.2359055068883764,0.8144736731817126,0.042097799479961395,0.9988874793052673,1.130605922397359,0.9381655377047727,0.22624966502189636,0.9999498128890991,1.1593081896126598,0.9521367129231921,-0.1894286423921585,0.9999875426292419,0.9610997983491694,1.2776578227974655,0.1379214972257614,0.999977171421051,0.982232833131464,1.2891450570715903,-0.1380104124546051,0.999985933303833,1.1502679655122061,1.521438721988625,0.18142381310462952,0.2025931477546692,1.177130374506374,1.5360229732081123,-0.10358728468418121,0.9853091239929199,1.113188967631818,1.8144736731817126,0.298220694065094,0.49833765625953674,1.1310619480905877,1.8598938574360075,0.011617843993008137,0.9760438203811646,1.1468950391576456,1.3872486872087881,0.21310022473335266,0.22030602395534515,1.1750170017041723,1.3974106992223805,-0.1771247833967209,0.9459622502326965,0.0066068172454833984,0.9716663157403167,1.283401439934528,134.9778282252744,133.61507980442212,1.0,-0.0001024717791034408,-0.0056714714007784365,-0.491944056770586,0.4838126170698026,91.99443684753363,0.9379507246185506,45,1.5
1.2258590215596128,0.7906269875616039,0.022353149950504303,0.9989734888076782,1.1202369580817855,0.9138659761049147,0.2194146364927292,0.9999518990516663,1.139559368826625,0.924733541574953,-0.20602817833423615,0.9999876618385315,0.95706157897336,1.2547514578509749,0.13771040737628937,0.9999780654907227,0.9747043155175251,1.2619162267623611,-0.13780364394187927,0.9999865889549255,1.1328263668670675,1.5013854233437023,0.19361552596092224,0.21519416570663452,1.1616498896201657,1.5150423700087285,-0.09573373198509216,0.9866317510604858,1.0989033666751296,1.7906269875616039,0.3124951422214508,0.530329704284668,1.118991787471643,1.8350821905897194,0.017944032326340675,0.9783365726470947,1.1478880799357238,1.363690327437577,0.20088407397270203,0.24241214990615845,1.162450854011645,1.3696472435393248,-0.1865089237689972,0.9503192901611328,0.005207359790802002,0.9658829472454425,1.258333842306668,137.83502087934335,135.96018381171325,1.0,0.05172037225681819,-0.06150887609042563,0.386004934468294,-0.4164716823594114,86.52267117180234,0.9343862033374465,46,1.5333333333333334
1.2028434228671565,0.7581666518786727,0.0029770771507173777,0.9990041851997375,1.1019545372079464,0.8822652585076713,0.21087953448295593,0.9999516606330872,1.1186535919223235,0.8857180770006065,-0.21446004509925842,0.9999877214431763,0.9481970972338187,1.2221351905181133,0.13656844198703766,0.9999780654907227,0.9608267565434736,1.2270117478144862,-0.13664129376411438,0.9999869465827942,1.1108327073625341,1.473626391274933,0.17671969532966614,0.21520265936851501,1.1403032151460162,1.4872457978943077,-0.10374162346124649,0.9875722527503967,1.0785439112129247,1.7581666518786727,0.2897333800792694,0.5440093278884888,1.0995263343437003,1.7996223351917762,0.0025985115207731724,0.9802218079566956,1.1226599678784008,1.326981111324772,0.18764463067054749,0.24522730708122253,1.1414765249195205,1.3269366557447204,-0.2316494882106781,0.9546446204185486,0.001685112714767456,0.9545119268886462,1.2245734691662997,140.63579015156654,137.96981019992842,1.0,0.04950775334359738,-0.0869731065873366,-0.010170342532597286,-0.2125205917520681,86.77050984399357,0.9263423744619926,47,1.5666666666666667
1.1697365904517616,0.7164120393445,-0.002756733912974596,0.9990559816360474,1.0738275752041702,0.8395909277569695,0.20774273574352264,0.9999516010284424,1.0922896856379603,0.8477010925477152,-0.22830884158611298,0.999988317489624,0.93372396274263,1.17880685414271,0.13675980269908905,0.9999776482582092,0.9443949874538492,1.1861269524514955,-0.1368294507265091,0.9999873042106628,1.0846626704676345,1.4371931725664497,0.16633713245391846,0.20972271263599396,1.1133458039671686,1.4495003717819637,-0.10399883985519409,0.9882023334503174,1.0527335394072188,1.7164120393445,0.2576963007450104,0.544292151927948,1.0711533205924282,1.75570765203116,-0.027883121743798256,0.9817705154418945,1.0865544897858928,1.2694341330659873,0.18844608962535858,0.24610751867294312,1.114614369814071,1.2763537132170752,-0.2812919318675995,0.9588978886604309,0.004054129123687744,0.9390594750982396,1.1824669032971027,143.18474715072364,139.47490951777263,1.0,0.0526979199759833,-0.09637000876459884,0.03210842313029984,-0.08431673093166259,102.00760421325813,0.9170274242398174,48,1.6
1.1407044415408105,0.6639771975104332,-0.06328889727592468,0.9990805387496948,1.0563969655309782,0.7901970028634154,0.16384953260421753,0.9999508857727051,1.0682863858036564,0.7879157638108906,-0.2699386179447174,0.999988853931427,0.9373670031924767,1.1243628514876627,0.13671308755874634,0.9999774694442749,0.9342293894806977,1.1300347028591347,-0.13679268956184387,0.9999876618385315,1.0663014183705295,1.391141496052284,0.15796497464179993,0.2011638730764389,1.0875350137201074,1.4135556350867833,-0.1411406695842743,0.9885464906692505,1.0288386379659238,1.6639771975104332,0.24383635818958282,0.526893675327301,1.0432416203675527,1.7119909050961106,-0.07761447131633759,0.9826356172561646,1.062092928648161,1.207379591969857,0.11931546032428741,0.2375282496213913,1.087748408493741,1.2173737358441776,-0.3380665183067322,0.9626653790473938,0.0011673271656036377,0.9357981963365871,1.1271987771733987,146.38713782020665,143.1568543777201,1.0,0.1435941866329298,-0.2175974191863631,0.7173228389512992,-0.9613806624663961,170.65496504013393,0.8891339524245053,49,1.6333333333333333
1.1128822021658207,0.6300279450624843,-0.06097642704844475,0.9991427659988403,1.0345405614739318,0.7671436520946394,0.17142541706562042,0.999951958656311,1.043327960588467,0.753228696135464,-0.254447340965271,0.9999895691871643,0.9239775281167358,1.0904755177892549,0.13564664125442505,0.9999764561653137,0.9226422025572415,1.0903349931361956,-0.13567855954170227,0.999987781047821,1.0428072797687111,1.356067112071028,0.11860834062099457,0.18978101015090942,1.0627219557026468,1.377337765568126,-0.15837712585926056,0.9883331656455994,1.0046429459155883,1.6300279450624842,0.1816740781068802,0.5030959844589233,1.0176731654862121,1.6697732097088085,-0.11616887897253036,0.9831940531730652,1.0373825730200517,1.1652243925537409,0.13497118651866913,0.24072521924972534,1.0596001464869946,1.1735443622959953,-0.3761247992515564,0.9662125110626221,0.007289141416549683,0.9233098653369887,1.0904052554627253,147.96492918295596,145.2266113854957,1.0,0.0659237865049802,-0.0768472580821047,-0.5340875624112135,0.9749327733755351,102.87059474665435,0.8791008567229895,50,1.6666666666666667
1.0925519363156684,0.6026301889709755,-0.0875932052731514,0.9992077946662903,1.0234204564377676,0.737670115774398,0.15395738184452057,0.9999538064002991,1.0243887414424697,0.7219361272881687,-0.27380090951919556,0.9999903440475464,0.9172690405207877,1.060453416977834,0.1356143206357956,0.9999763369560242,0.9149262514183709,1.0594263260716803,-0.13563472032546997,0.9999882578849792,1.021788983966504,1.3320881612261053,0.14175327122211456,0.18711932003498077,1.0455598721497095,1.3505073769823304,-0.16511088609695435,0.9889287948608398,0.984766756062444,1.6026301889709755,0.2233012616634369,0.5024193525314331,1.0001677533367457,1.6400740082331615,-0.1288701295852661,0.9844142198562622,1.0225776091163905,1.1301507080101967,0.11826606839895248,0.25040924549102783,1.03963612786393,1.1417277565140533,-0.3813629150390625,0.9695016741752625,0.008388489484786987,0.9160976459695793,1.059939871524757,151.16199214516587,146.920924942577,1.0,0.0704219648265785,-0.0903014268540869,0.044649888793188354,-0.11694208297131882,84.53121662944886,0.8651340843761515,51,1.7
1.0740968472933594,0.5755746080901837,-0.05081706494092941,0.9992669224739075,1.0017947104970992,0.7027135512517836,0.17884120345115662,0.9999554753303528,1.0076815632476013,0.6931025807567495,-0.25796443223953247,0.9999909996986389,0.905796721382136,1.0360673914781269,0.13883595168590546,0.9999768733978271,0.9074219888651419,1.035593478830014,-0.1388486921787262,0.999988853931427,1.0042700519203742,1.3088985731270857,0.14406269788742065,0.17809511721134186,1.0280946633367432,1.3251956703956225,-0.17315883934497833,0.9890658259391785,0.9685504529494355,1.5755746080901838,0.2310628592967987,0.4807022213935852,0.9808043386208131,1.614304047181028,-0.16065117716789246,0.9852091670036316,1.0034999163780582,1.0963286284033333,0.1524488925933838,0.24238114058971405,1.021724661589534,1.1129254671750617,-0.3822489380836487,0.9720734357833862,0.005209863185882568,0.9066093551236389,1.0358304351540706,152.52489056394188,148.0895034087668,1.0,0.04498458299533081,-0.05337029734038841,-0.19489756059854174,0.28454014480582207,57.67867031413194,0.8695831859381083,52,1.7333333333333334
1.0568924692487158,0.5528721757116252,-0.08356599509716034,0.999329149723053,0.9849081823733538,0.6794619759729869,0.1591276228427887,0.9999555349349976,0.9924519513639419,0.6730329733681997,-0.27604609727859497,0.999991774559021,0.9042602678852207,1.0210652275934422,0.13756220042705536,0.9999774098396301,0.9026557258703973,1.0238611904034314,-0.13755498826503754,0.9999896287918091,0.9919765315076979,1.2886736257313522,0.14583739638328552,0.1733618825674057,1.0066279790327708,1.305989721375036,-0.15929044783115387,0.9893025755882263,0.9645221182641563,1.552872175711625,0.2363574504852295,0.4736193120479584,0.9579958214408396,1.59065721973753,-0.11242097616195679,0.9861499071121216,0.9800871346652203,1.065721323680259,0.1320900171995163,0.22543881833553314,1.006519958614203,1.08856693796188,-0.38940557837486267,0.9747722148895264,0.003536820411682129,0.903457996877809,1.0224632089984367,155.91932618142823,150.07501745440015,1.0,0.07645575242515004,0.013655594074464806,0.24244874393858032,0.4998634702034654,163.4329574584895,0.894423172669876,53,1.7666666666666666
1.0435973419780806,0.5425939235936041,-0.08041909337043762,0.9993903040885925,0.9743904609723455,0.6599227185131469,0.15447306632995605,0.9999575614929199,0.9812787752069554,0.6530556225025052,-0.27318066358566284,0.9999924898147583,0.9036841588061898,1.0066256583409428,0.13508497178554535,0.9999775886535645,0.9008428457239009,1.0092179251984734,-0.13507404923439026,0.9999902248382568,0.9821297545833775,1.2753526431316555,0.14344297349452972,0.17250743508338928,0.9895726360353384,1.291757973792493,-0.15707190334796906,0.9895005822181702,0.958238463046159,1.5425939235936041,0.2295992374420166,0.47095394134521484,0.9456865976159933,1.5727736323059676,-0.1021098643541336,0.9868476390838623,0.9543671016366859,1.0710530808164644,0.1370203047990799,0.22176004946231842,0.9955164178151209,1.0636258451256113,-0.3921097218990326,0.9772658348083496,0.0038195252418518066,0.9022635022650454,1.007921791769708,158.61800748325393,153.68930721993863,1.0,0.0618608640664855,-0.024123700673931235,-0.09820610615158029,-0.2685639576504402,143.90248788366864,0.8810020307200729,54,1.8
1.025337051382642,0.5196412904919707,-0.07058350741863251,0.999444842338562,0.9567292643191063,0.6372485514979576,0.16409407556056976,0.9999591708183289,0.9642579032692585,0.6295326895827436,-0.26312753558158875,0.999993085861206,0.891192376390436,0.9862423255178369,0.13359251618385315,0.9999778866767883,0.8938738686154151,0.9892785615376178,-0.13361015915870667,0.9999906420707703,0.9637900038951227,1.2542120162585813,0.14201945066452026,0.17984682321548462,0.9731293428326424,1.2700692851401543,-0.14604893326759338,0.9894371032714844,0.9416548128997781,1.5196412904919707,0.23260597884655,0.47506392002105713,0.9311682196760696,1.546762807467889,-0.10128135979175568,0.9872457385063171,0.939148111276396,1.017931261040966,0.13122440874576569,0.22753475606441498,0.9794975576200537,1.0358536719248892,-0.4103426933288574,0.9794819951057434,0.004365086555480957,0.8925331225029256,0.9877604435277274,160.07435959138505,155.61453461412083,1.0,0.04234982785085554,-0.024808433068045466,-0.1433565211713264,-0.008466241097023791,127.9146368200208,0.8892321482711703,55,1.8333333333333333
1.0235539860792213,0.5179494514875984,-0.09171219170093536,0.9994949102401733,0.9560988517481124,0.6314022343408081,0.14079901576042175,0.9999604225158691,0.9617676175463974,0.630374219272446,-0.28483206033706665,0.9999937415122986,0.9019773896679697,0.9839676697839195,0.13338130712509155,0.9999790191650391,0.8923870731973147,0.9911471451425814,-0.1334017664194107,0.9999913573265076,0.9653351992748846,1.2522135031626436,0.15785491466522217,0.19751602411270142,0.9705862122517988,1.269731650386253,-0.12553946673870087,0.9897887110710144,0.9442105263711863,1.5179494514875984,0.2536410987377167,0.4969289004802704,0.9294022466555171,1.5466905087853609,-0.09308664500713348,0.9880353212356567,0.9164807487679897,1.013120269921581,0.10641398280858994,0.21353930234909058,0.9785362515825585,1.032483518419726,-0.4380408227443695,0.9815077781677246,0.0005821585655212402,0.8971822314326422,0.9875574074632505,162.16551672585734,155.86253637519715,1.0,0.0445015848787818,0.006283924642098235,0.01762594853989281,0.24958821636590284,135.54636596951386,0.8903534127834789,56,1.8666666666666667
1.019314339708251,0.5127369110866542,-0.13921420276165009,0.999542236328125,0.9562371077779929,0.6309308153486459,0.11444314569234848,0.9999628067016602,0.9539208529572463,0.6244621004390964,-0.3143335282802582,0.9999942779541016,0.9110562448097526,0.9790182797899296,0.1337769329547882,0.9999802708625793,0.8962281873290092,0.9831292152778444,-0.13379062712192535,0.9999919533729553,0.9601296196708325,1.2475905900850264,0.17499297857284546,0.19845372438430786,0.9662021731102938,1.266475789820716,-0.12259382009506226,0.9889748692512512,0.9392657097867665,1.5127369110866542,0.27558740973472595,0.4904639422893524,0.9266915153653345,1.541672741998899,-0.0807860866189003,0.9873939156532288,0.9528145788679314,1.012373859194168,0.09434178471565247,0.20624656975269318,0.9751802951507812,1.026966400883006,-0.47536391019821167,0.9832286238670349,0.0036769509315490723,0.9036422160693809,0.981073747533887,165.1459412583745,157.95779755893867,1.0,0.07410090050400486,-0.021049170548214074,0.22468139416287658,-0.20614095226418064,112.89101823559452,0.8820482884362544,57,1.9
1.0078045333371712,0.5062956874832747,-0.09664132446050644,0.9995808005332947,0.9470771378149434,0.619315416988136,0.13913045823574066,0.9999637007713318,0.9450508124803286,0.6151900250980676,-0.28702688217163086,0.9999947547912598,0.9088435178342702,0.9714908644326821,0.13419273495674133,0.9999805688858032,0.8993844476245481,0.9747653143995496,-0.13421949744224548,0.999992311000824,0.9539476634476982,1.240266703209353,0.1814124435186386,0.19697420299053192,0.9592272681859831,1.2601352246259327,-0.11091575771570206,0.9877884984016418,0.9332453555643019,1.5062956874832747,0.2884431481361389,0.48162996768951416,0.9217373294179263,1.533257077590427,-0.05499688535928726,0.9865047931671143,0.9491774036880164,1.002968258964169,0.1368410289287567,0.1978083997964859,0.9738166020182325,1.0135289284795803,-0.42789801955223083,0.9848416447639465,0.0023578107357025146,0.9041139827294091,0.9731280894161158,166.0239961682004,160.34070611934885,1.0,0.03923742785011741,-0.018882787091546626,-0.25049568711302783,0.014913927189663227,115.29033810640023,0.8740010437712714,58,1.9333333333333333
0.9995335738122935,0.4968123922117019,-0.09315582364797592,0.9996171593666077,0.9339370297224979,0.611255735709832,0.14808961749076843,0.9999641180038452,0.9359212165553926,0.6052495737102643,-0.2787509560585022,0.9999951124191284,0.9055230603642408,0.9624746550528702,0.1342238336801529,0.9999801516532898,0.9012393898390076,0.9654317401701392,-0.13425786793231964,0.9999924302101135,0.9469583657585334,1.2295800400014134,0.1831274926662445,0.19255661964416504,0.9520583726553289,1.2513759831231845,-0.10213129222393036,0.9838973879814148,0.9256679116943212,1.4968123922117018,0.2865983545780182,0.462618887424469,0.9174029327781819,1.5213309397538273,-0.04435693472623825,0.9828206300735474,0.9474671661057221,0.9925869020800435,0.13314120471477509,0.18882936239242554,0.9719831267028243,1.0073437677933312,-0.40627628564834595,0.9862732291221619,0.003459632396697998,0.9033812251016242,0.9639531976115047,166.62700657989208,162.6070931584184,1.0,0.04782030730774188,-0.012231758311736502,0.06751324987226683,0.049406833043894295,129.24314275689036,0.8744300554770607,59,1.9666666666666666
0.9886635556828852,0.48324311008607007,-0.11201219260692596,0.9996491074562073,0.9144253493882837,0.5998457242210973,0.13808293640613556,0.999962568283081,0.9272870656071005,0.5978426414745454,-0.29412299394607544,0.9999954700469971,0.8943365774867611,0.9529720393482718,0.13565102219581604,0.9999784827232361,0.9020627757712879,0.9572083416810071,-0.13570226728916168,0.9999923706054688,0.9369237893753595,1.218040964254898,0.22175323963165283,0.18539206683635712,0.9434714080872281,1.2404946895975533,-0.08417432010173798,0.9815599918365479,0.9169945954250253,1.4832431100860701,0.34434276819229126,0.4497131109237671,0.9097961530124876,1.5077614008113553,-0.013008547946810722,0.9808595776557922,0.9374869272480941,0.9834148153462096,0.1307944506406784,0.1768314391374588,0.9711090580434544,0.9972541003508407,-0.3975988030433655,0.987594485282898,0.001164168119430542,0.8981996766290244,0.9550901905146394,166.57505563788948,164.50248628399612,1.0,0.022635054003413358,-0.0022212783950590767,-0.19586109200995333,0.07832685857878932,115.48016446343792,0.8886727390586427,60,2.0
0.9885621618562972,0.48731772872885615,-0.08998949080705643,0.9996731281280518,0.9178050671882776,0.5993697457918109,0.14793868362903595,0.9999616742134094,0.928143869977919,0.59334627072587,-0.2688867449760437,0.9999957084655762,0.9080115381993876,0.9530402486654295,0.13562069833278656,0.9999746084213257,0.9121091164892597,0.9561080825266753,-0.13567902147769928,0.9999915957450867,0.9392955422580765,1.2205596000982522,0.21727943420410156,0.1750437170267105,0.9482815516126086,1.2444180038092005,-0.0937170684337616,0.9766595959663391,0.919542741621238,1.4873177287288561,0.33489182591438293,0.4269092082977295,0.9155670783226658,1.5107383701714654,-0.02410145476460457,0.9756432771682739,0.9769606901314444,0.977453699952803,0.15510013699531555,0.1754560023546219,0.9864590510949843,0.9948883667635042,-0.3685123324394226,0.9887843728065491,0.0034897029399871826,0.9100603273443237,0.9545741655960525,169.09517686099363,165.84576342747167,1.0,0.06765916060168611,-0.026621821109447545,0.3375089393323005,-0.1831501895328878,125.2358132586649,0.8701536782648244,61,2.033333333333333
0.9855606198742528,0.48600470335403395,-0.11195410788059235,0.9996863603591919,0.9147438335855159,0.6009878204742498,0.13273563981056213,0.9999563097953796,0.9271083919779589,0.5928607202625542,-0.2915734648704529,0.9999958276748657,0.9107242936041035,0.9489432714377478,0.13561636209487915,0.9999701380729675,0.9203736354228012,0.9525962402250893,-0.1356753408908844,0.999990701675415,0.9390335171139265,1.2108923542158847,0.2153002768754959,0.16243761777877808,0.9472513095260056,1.2395450262624572,-0.08054051548242569,0.9643139243125916,0.921202762530669,1.486004703354034,0.3283848166465759,0.399175226688385,0.9175688057060141,1.509156238305395,-0.00979648344218731,0.9643591642379761,0.9689065516302475,0.9713235373082277,0.12369848787784576,0.16250135004520416,0.9938388394974655,0.9886525816112905,-0.3705422580242157,0.9897975325584412,0.004713684320449829,0.9155489645134522,0.9507697558314185,170.12359620432045,168.36627623484338,1.0,0.0302234624314693,-0.012747959056156666,-0.17368178256052189,0.0643593582007672,110.07340840875241,0.8595216656166066,62,2.066666666666667
0.9843722050099609,0.4884546604664766,-0.13659921288490295,0.999707043170929,0.9175036597152245,0.6045166266668246,0.12024851888418198,0.9999558329582214,0.9264367117709726,0.594991686795315,-0.31720224022865295,0.9999960064888,0.9217240592742565,0.9523711298801137,0.13813236355781555,0.9999675750732422,0.9243853145913348,0.9565341685842733,-0.13818314671516418,0.9999899864196777,0.9437942918225768,1.2136133682716206,0.2207961529493332,0.1517457813024521,0.9492987712728188,1.2429722397148228,-0.08715106546878815,0.9542698264122009,0.9225842661337702,1.4884546604664766,0.3457375764846802,0.37307047843933105,0.9196481524295206,1.513108603046922,-0.0033743425738066435,0.9511380791664124,1.018255169299482,0.9522650586404036,0.11266674846410751,0.1621580719947815,0.999127435326151,0.9866898101067355,-0.4288124144077301,0.9907267093658447,0.005512923002243042,0.9230546869327956,0.9544526492321935,170.7581342047577,168.76530195748578,1.0,0.042113087946890865,0.012788281746951308,0.08901016988188482,0.19239335858013729,148.1060476856892,0.8603065636901814,63,2.1
0.9832927709438172,0.48531316294473953,-0.13977918028831482,0.999719500541687,0.9159107662726871,0.5982905763238154,0.11868162453174591,0.9999533295631409,0.9227353431176187,0.5929696701408262,-0.31720656156539917,0.9999960660934448,0.926539419657041,0.9507396093005832,0.13882096111774445,0.9999633431434631,0.9302102615075166,0.9558262753302044,-0.13887938857078552,0.9999889731407166,0.9432246999430925,1.2091674101576955,0.2204703390598297,0.14050063490867615,0.947643033632558,1.24023237322285,-0.0827072486281395,0.9392240643501282,0.9171769070358556,1.4853131629447396,0.3453523516654968,0.3479596674442291,0.9180269978096978,1.5107008478753359,-0.001624762429855764,0.9373032450675964,0.9955263060636228,0.9603308620320357,0.11609350144863129,0.15283887088298798,1.0038931566767464,0.9812985684004636,-0.4091495871543884,0.9915394186973572,0.0030849874019622803,0.9283748405822788,0.9532829423153938,170.91729772636705,170.24348669759718,1.0,0.05561257933831552,0.0038074427304469224,0.1092475738131095,-0.07211408315993871,145.91085521149128,0.8648187065773068,64,2.1333333333333333
0.9838851138549671,0.48537790314062795,-0.17153391242027283,0.9997377991676331,0.9136709394483827,0.5983363792982819,0.09023811668157578,0.9999537467956543,0.9208290898794506,0.5930632811363016,-0.3483951687812805,0.9999961256980896,0.925752567367781,0.9514932031139836,0.1390957534313202,0.9999603033065796,0.9304120172454857,0.9570172200390993,-0.13915778696537018,0.9999879598617554,0.9452309781498132,1.2100055360462205,0.22605788707733154,0.13051967322826385,0.947425450626914,1.2410313506569923,-0.07833624631166458,0.9213070273399353,0.9156372665719094,1.485377903140628,0.36006271839141846,0.3232802152633667,0.917352212267095,1.5108305555000072,0.007960431277751923,0.9168456196784973,1.0300814121117834,0.942968853738214,0.087827667593956,0.15026092529296875,1.00556673634576,0.9800666865064361,-0.4444074034690857,0.9922033548355103,0.0030569732189178467,0.9280822923066333,0.9542552115765415,169.5570950136736,170.2116455885997,1.0,-0.0029982722058565256,0.0069007020559367915,-0.4596300892777612,0.024252424641072468,141.81206858635497,0.8680306985545488,65,2.1666666666666665
0.9823511836301673,0.48465357683324944,-0.17020176351070404,0.9997533559799194,0.9124429699540804,0.5970486840597671,0.09003853052854538,0.9999551177024841,0.9170647402397724,0.591540519457343,-0.3471021056175232,0.9999961853027344,0.9286392284823867,0.9497639933441664,0.1391482651233673,0.9999586343765259,0.9269542839629743,0.9544680661759677,-0.13921192288398743,0.9999871253967285,0.9450263632398244,1.2100844837688245,0.21845901012420654,0.12168224155902863,0.9448194780366368,1.239095618164213,-0.08418874442577362,0.9026941657066345,0.9144421419001595,1.4846535768332494,0.3427644670009613,0.30187249183654785,0.91700983766849,1.5083625595455585,-0.0027626443188637495,0.895045816898346,1.0313396704583477,0.940817029279336,0.08208057284355164,0.14741632342338562,1.0048896640470615,0.9775447970346864,-0.4408811032772064,0.9927409291267395,0.003199249505996704,0.9277967562226805,0.952116029760067,170.04202298269345,170.51188309501813,1.0,0.011149885544768328,-0.0026750448149819657,0.10834808576898032,-0.07326207369266155,157.66395704038442,0.8642997314779172,66,2.2
0.9855530867631016,0.4883913860952719,-0.17767511308193207,0.9997739791870117,0.915533846376013,0.5982733674773951,0.08193929493427277,0.999957263469696,0.9180242995188822,0.5935329531642269,-0.358724981546402,0.9999963641166687,0.9374769247617801,0.9521743654804832,0.13945342600345612,0.9999570250511169,0.9312481157688111,0.9576532388808359,-0.13951285183429718,0.9999866485595703,0.9474494418764405,1.2133173574888212,0.22361552715301514,0.11559563130140305,0.9476730021436877,1.2426441003917348,-0.11111794412136078,0.8978006839752197,0.9156012644124065,1.4883913860952718,0.3519538938999176,0.2861643433570862,0.9197754186840185,1.5119827582746377,-0.03754080832004547,0.8847794532775879,1.0430261908263918,0.9352441011534043,0.07897815108299255,0.15476804971694946,1.0110730264965235,0.9801758035946885,-0.4845666289329529,0.9933809041976929,0.002745121717453003,0.9343625202652956,0.9549138021806596,171.20873221223266,170.78801952660876,1.0,0.030226614465739647,-0.0003785247290126544,0.15175130918699592,0.018363993210930393,127.78693277197489,0.8603058199033029,67,2.2333333333333334
0.9845708428232895,0.4870958533227427,-0.15607814490795135,0.9997833371162415,0.915684969513537,0.5986997954406253,0.09828772395849228,0.9999575614929199,0.9154871149806321,0.5936391824370989,-0.3380522131919861,0.9999964237213135,0.9405733009910414,0.951775322809337,0.13938479125499725,0.9999550580978394,0.9335659186723262,0.9564931867701543,-0.13944374024868011,0.9999858736991882,0.9446658253392834,1.2125038923046105,0.22196412086486816,0.1077042818069458,0.9468633063754819,1.2404945499508655,-0.11385800689458847,0.888264000415802,0.9149820923137422,1.4870958533227427,0.3426779508590698,0.27053335309028625,0.9189413425067634,1.5101840581897996,-0.03966899961233139,0.8708478808403015,1.0386758307730848,0.9370367026328639,0.0888289362192154,0.15255102515220642,1.0125285932707246,0.9793416832608073,-0.45015016198158264,0.9938552975654602,0.002933204174041748,0.9370696098316837,0.9541342547897457,172.9309445610916,171.40829380221248,1.0,0.02731290744341339,0.0006614653375231333,-0.02218110620632463,0.007989628291898218,119.91910426888612,0.8615640560201171,68,2.2666666666666666
0.9847499305954427,0.4879722776898459,-0.15174490213394165,0.9997960329055786,0.9163253718571672,0.5975205028985278,0.1037883311510086,0.9999583959579468,0.9152443277080485,0.5950164852544384,-0.33522146940231323,0.9999966025352478,0.9445258480269658,0.9524525790404205,0.13831979036331177,0.9999542832374573,0.936799047413448,0.9570107452042943,-0.13838419318199158,0.9999857544898987,0.9453485158331911,1.2131026543307313,0.22332549095153809,0.10055084526538849,0.9475118389048712,1.239729514645545,-0.11082927137613297,0.8768857717514038,0.9156545811843988,1.4879722776898459,0.34695976972579956,0.25337982177734375,0.9197531029342128,1.5111084334820344,-0.03973286226391792,0.8555586934089661,1.0325626220496376,0.9421284324900997,0.11331264674663544,0.1450028121471405,1.0153351658743195,0.981045095778289,-0.4328109622001648,0.9943329691886902,0.0014504790306091309,0.9406624477202069,0.9547316621223574,173.6534588273606,171.9896405871945,1.0,0.023507534883137008,0.00011531152143247476,-0.029744077630264047,-0.004253438876417283,115.99426260316267,0.8597874393737974,69,2.3
0.9858707829366702,0.48893726506042345,-0.12154446542263031,0.9997982382774353,0.9161171885279371,0.5989141532345686,0.11465661227703094,0.9999582767486572,0.9159459440244787,0.5962221525475299,-0.30574989318847656,0.9999966025352478,0.9453396199917551,0.953825083940202,0.13712793588638306,0.9999513626098633,0.9399387208447733,0.9579417523464464,-0.13720710575580597,0.9999849796295166,0.9462551907846141,1.2147673964890344,0.22232642769813538,0.09273431450128555,0.9485108373969557,1.2412414670110652,-0.12221089750528336,0.8585642576217651,0.9169323000001751,1.4889372650604233,0.3452546000480652,0.23377157747745514,0.9221073459873611,1.513048635396651,-0.0631355568766594,0.8288929462432861,1.0248206646574116,0.9460098639718978,0.12140701711177826,0.139155313372612,1.01712723229626,0.9833832040876949,-0.39824041724205017,0.9946944117546082,0.0015572905540466309,0.9426391704182642,0.9558834181433242,173.69430025380998,172.71853226814957,1.0,0.0054404247646656105,-0.000930465897117127,-0.13665524768943596,-0.00789744963369746,122.60837539623174,0.8594978486622048,70,2.3333333333333335
0.9853610595435075,0.49024160049884563,-0.0890066996216774,0.9997998476028442,0.9136350796438338,0.6004039811909444,0.13883887231349945,0.9999569058418274,0.9170711430716767,0.5974468826171403,-0.2825939953327179,0.9999966025352478,0.945406776055327,0.9556977370161578,0.1370956003665924,0.9999494552612305,0.9435548817893075,0.959186829616855,-0.1371787041425705,0.9999845623970032,0.9433531852271867,1.2178488973955661,0.2293391227722168,0.08623194694519043,0.9485689242031542,1.2436598671712074,-0.1202128678560257,0.8510860800743103,0.914697726492859,1.4902416004988457,0.3460915684700012,0.21890130639076233,0.9232348043048133,1.5152711637468639,-0.06843269616365433,0.8177085518836975,1.011537249692503,0.9480150066369002,0.13526955246925354,0.13120414316654205,1.016901656057737,0.9853158712600247,-0.3722185492515564,0.9950221180915833,0.0017084181308746338,0.9444808289223172,0.9574422833165064,174.4434496580926,173.66146828347385,1.0,0.004720279625989124,0.00240628446465601,-0.005608158612503774,0.025740874519768277,146.9321138204359,0.8590861638894585,71,2.3666666666666667
0.9868918176255315,0.49155231571754127,-0.10390345007181168,0.9998096823692322,0.9157192885486934,0.6021920705130024,0.13376055657863617,0.9999582171440125,0.9180290275466358,0.5990517456493497,-0.29067152738571167,0.9999967217445374,0.9479085101423544,0.957700604166308,0.13683053851127625,0.9999481439590454,0.9460978360568144,0.9584247497321804,-0.13692303001880646,0.9999841451644897,0.9451003265737281,1.220504961260435,0.22908702492713928,0.07920064777135849,0.9504353687417149,1.244925436734786,-0.10930649191141129,0.8284748196601868,0.916743679506241,1.4915523157175412,0.34996503591537476,0.20181159675121307,0.9251935608322857,1.5185264278754274,-0.04143486171960831,0.7897667288780212,1.0184995722485377,0.9516895963059064,0.1345297396183014,0.12743228673934937,1.0178643423289604,0.9879139339967785,-0.37798386812210083,0.9953061938285828,0.0018104016780853271,0.9470031730995845,0.9580626769492442,174.6397193317914,173.8615678858768,1.0,0.003749268147549863,-0.010662500095858776,-0.007327399774338262,-0.09764252948731889,106.6243343606942,0.8550302736615383,72,2.4
0.9884923641012642,0.4916151638386078,-0.11923985183238983,0.9998212456703186,0.9230076788357431,0.6036901794000359,0.12614929676055908,0.9999598860740662,0.9174121943379709,0.6004560749235758,-0.30049195885658264,0.9999968409538269,0.955670880639574,0.959409974044087,0.136844664812088,0.9999486207962036,0.9465055646672247,0.9579399642229588,-0.1369362622499466,0.9999842047691345,0.9468066934495529,1.2217980775615342,0.21135619282722473,0.07419838011264801,0.9514769346436596,1.2420454920959132,-0.12281372398138046,0.8228673934936523,0.9184366744402159,1.491615163838608,0.3106672167778015,0.19105567038059235,0.9268702485073822,1.5211520957247688,-0.07739804685115814,0.7836007475852966,1.0254591074468309,0.9518849656975265,0.13003139197826385,0.130227729678154,1.0131303336542128,0.9901308071525492,-0.41982483863830566,0.9956279993057251,0.0018609166145324707,0.9510882226533993,0.9586749691335229,175.9325407311909,173.95921999329363,1.0,0.01718017876363918,-0.009158987574061006,0.10119800258298636,0.011487867690709716,75.64168004466215,0.8543292074855006,73,2.433333333333333
0.9876680043321456,0.49063360657642935,-0.12819890677928925,0.9998317360877991,0.9267298259298927,0.6029509674567778,0.11984220892190933,0.9999613165855408,0.9162244608851267,0.6003515455075887,-0.30642688274383545,0.9999970197677612,0.957112307421442,0.9585855185386831,0.13692083954811096,0.9999495148658752,0.9458568253941466,0.9569511021568736,-0.13700953125953674,0.9999845027923584,0.9459791011921269,1.2198637396194345,0.21228210628032684,0.06909149140119553,0.949849787650631,1.2378337263466606,-0.13306398689746857,0.8168897032737732,0.9156731326681536,1.4906336065764294,0.31899553537368774,0.1798253357410431,0.9250913716512829,1.5203219839615774,-0.09133734554052353,0.776652991771698,1.0248292862649853,0.9521540807580395,0.12965109944343567,0.12807144224643707,1.0078894809009293,0.9897903850119069,-0.4316703677177429,0.995914876461029,0.0014964640140533447,0.9514845664077943,0.9577683103477783,176.05366613293913,174.176715896359,1.0,0.006973680576777865,-0.0034329350395495275,-0.08168440498102685,0.045828523335451725,76.85476776789646,0.8540638456223418,74,2.466666666666667
0.9886118806105368,0.4893091065936784,-0.1476093828678131,0.9998413920402527,0.9293772855583826,0.6025291133496015,0.10110612958669662,0.9999624490737915,0.9164940852509618,0.6009774480777668,-0.3217724859714508,0.9999971389770508,0.9556395765272555,0.9589264435008077,0.1367887556552887,0.9999496936798096,0.9457993915731078,0.9575256180221374,-0.13687635958194733,0.999984622001648,0.9465511551317579,1.2188098828408518,0.21568839251995087,0.06419073790311813,0.9479640021947682,1.2381423522437174,-0.12582004070281982,0.8059897422790527,0.9166802125395385,1.4893091065936783,0.3224050998687744,0.16896097362041473,0.9259647101209978,1.5208934358574118,-0.07647667825222015,0.7676330804824829,1.024207895476055,0.9537808945001821,0.10852377116680145,0.12535269558429718,1.004669711892886,0.9920035219096742,-0.4367515444755554,0.9961830973625183,0.0008924305438995361,0.9507194840501816,0.9582260307614725,175.70130277680045,175.10913900689226,1.0,-0.012223041715439425,-0.0033200116719014593,-0.14050369261433962,0.0008501211041093178,77.68353880257683,0.8589998216182471,75,2.5
0.9879022830691372,0.4883705546984083,-0.15045972168445587,0.9998525977134705,0.9303656811068649,0.6025702529268143,0.09961927682161331,0.999963641166687,0.9170071092477244,0.6013677181117804,-0.32432782649993896,0.9999973177909851,0.9547347793058051,0.9591423283442075,0.13671550154685974,0.9999505281448364,0.9455926738740305,0.9579849462568493,-0.13680368661880493,0.9999849796295166,0.9468065616711092,1.218286533300059,0.21629366278648376,0.05999917536973953,0.9476446087383955,1.23814170657404,-0.10573991388082504,0.7973430156707764,0.9171391978242087,1.4883705546984083,0.3239450454711914,0.16043299436569214,0.9263705719093217,1.5208383207830178,-0.05264497548341751,0.7628946304321289,1.01834465642092,0.9616665265255946,0.10852779448032379,0.1223815456032753,0.9985707684247753,0.9948910543996538,-0.4432235360145569,0.996478259563446,0.0006913244724273682,0.9501637265899178,0.9585636373005284,175.48383118501224,175.27673764106265,1.0,-0.00812028731111535,-0.0007182584900620214,0.034165482199235514,0.021649664168824866,78.87512198457382,0.8626947318206774,76,2.533333333333333
0.9867320954887923,0.4872526375903255,-0.14976099133491516,0.9998617172241211,0.9295846289033469,0.6019367015623723,0.09978149831295013,0.9999644160270691,0.9166149837480513,0.6011025908050013,-0.32439735531806946,0.9999974370002747,0.9532373159600669,0.9584927318127201,0.13664473593235016,0.9999510645866394,0.9446728117661217,0.9575227801605772,-0.1367337703704834,0.9999852180480957,0.9461207451479233,1.2173692115627646,0.21628859639167786,0.05599042400717735,0.9469148600354378,1.237538838605941,-0.09893007576465607,0.7859581112861633,0.9166636833823326,1.4872526375903254,0.32513687014579773,0.15174026787281036,0.9257969371349373,1.5195409095837926,-0.04320660978555679,0.7549437880516052,1.0104703695623556,0.9695874410481861,0.10843195766210556,0.11778129637241364,0.9958190327807082,0.9958533297571914,-0.4399692118167877,0.9967306852340698,0.00047981739044189453,0.9489550638630944,0.9580077559866487,175.34565182112854,175.2586096640039,1.0,-0.004647470160425897,0.00026455306172863793,0.025888916660629,0.007333870895297539,79.74339744417462,0.8648100656616683,77,2.566666666666667
0.9851600829529151,0.4846387428275959,-0.1616283357143402,0.9998705983161926,0.925963390142411,0.5997583411445103,0.08989225327968597,0.9999657869338989,0.9154458388065898,0.6001759720174898,-0.3375329375267029,0.9999975562095642,0.9486973688478929,0.9563378615136646,0.13710340857505798,0.9999527335166931,0.9432015286780011,0.9555586839929672,-0.13719399273395538,0.9999856948852539,0.9433081094012838,1.2148412311977506,0.21631410717964172,0.05403835326433182,0.9446881745531487,1.235755473398719,-0.10143526643514633,0.7859554290771484,0.9157307094194026,1.484638742827596,0.3260432183742523,0.1483156979084015,0.9245426587534101,1.5173130813402866,-0.04360366612672806,0.7570475935935974,0.9937600090810915,0.9784710560644095,0.08631576597690582,0.11723649501800537,0.9906580961278447,0.9956672866456993,-0.45301395654678345,0.996936023235321,0.00024056434631347656,0.9459494487629471,0.9559482727533158,175.3580962826731,175.60345474708808,1.0,-0.012617096037652585,-0.005608144804883907,-0.05833239366590768,-0.04294785989707257,78.28262476309993,0.8667574517139096,78,2.6
0.9837538950576376,0.48379785765433264,-0.15610188245773315,0.999878466129303,0.9234565445626435,0.5993209652583835,0.09031354635953903,0.9999668002128601,0.9147360814961611,0.5996681689761977,-0.3337830901145935,0.9999976754188538,0.9477620453767398,0.9551293598761624,0.1375863254070282,0.9999534487724304,0.943054093222725,0.9546961951962037,-0.1376824826002121,0.9999858736991882,0.9425478384643102,1.2135425887461646,0.21636851131916046,0.05098036304116249,0.9439333451566271,1.2345509723435724,-0.09302572160959244,0.7762008309364319,0.9149069696145316,1.4837978576543327,0.3229915499687195,0.14117880165576935,0.9236222636514201,1.5163282149774597,-0.034909967333078384,0.7488588690757751,0.9822115600074455,0.9803339616978008,0.09495405107736588,0.1127125695347786,0.9848967675008222,0.9949903315885963,-0.4400078356266022,0.9970873594284058,0.00020018219947814941,0.9454080692997324,0.9549127775361831,175.31621669280156,175.6971212600175,1.0,0.0025313765113581595,-0.0011351323948400392,0.11446549222711633,0.03378596923234504,80.83534509522056,0.8660526095685234,79,2.6333333333333333
0.9823531798752713,0.4821209101503883,-0.14727313816547394,0.999885082244873,0.9218331579565262,0.5983811228679482,0.10136494785547256,0.9999673366546631,0.9137149206374774,0.5990551129231488,-0.32603269815444946,0.9999977350234985,0.944989608007797,0.9539769336906333,0.13778503239154816,0.9999544620513916,0.9416605979166867,0.9537416179746927,-0.13788504898548126,0.9999861717224121,0.9409319349033507,1.211984560232718,0.21638496220111847,0.048224832862615585,0.942707386301156,1.2331681373640777,-0.09180451184511185,0.7690427303314209,0.913451210089644,1.4821209101503883,0.319618821144104,0.13467928767204285,0.9220730168455696,1.514480073591144,-0.03867266699671745,0.7437520027160645,0.9794410059163472,0.9818749076522626,0.10866378247737885,0.10814708471298218,0.9808638451290111,0.994249478645073,-0.43284696340560913,0.9971860647201538,0.0003890693187713623,0.9433251029622418,0.953859275832663,175.0923487191353,175.59019864497705,1.0,-0.007044524689567182,0.0008869076642830659,-0.07292798740803327,0.015393812868369312,82.23084462791925,0.8684641019532768,80,2.6666666666666665
