nose_x,nose_y,nose_z,nose_visibility,left_shoulder_x,left_shoulder_y,left_shoulder_z,left_shoulder_visibility,right_shoulder_x,right_shoulder_y,right_shoulder_z,right_shoulder_visibility,left_hip_x,left_hip_y,left_hip_z,left_hip_visibility,right_hip_x,right_hip_y,right_hip_z,right_hip_visibility,left_knee_x,left_knee_y,left_knee_z,left_knee_visibility,right_knee_x,right_knee_y,right_knee_z,right_knee_visibility,left_ankle_x,left_ankle_y,left_ankle_z,left_ankle_visibility,right_ankle_x,right_ankle_y,right_ankle_z,right_ankle_visibility,left_wrist_x,left_wrist_y,left_wrist_z,left_wrist_visibility,right_wrist_x,right_wrist_y,right_wrist_z,right_wrist_visibility,trunk_lateral_inclination,center_mass_x,center_mass_y,left_knee_angle,right_knee_angle,person_height,center_mass_velocity_x,center_mass_velocity_y,center_mass_acceleration_x,center_mass_acceleration_y,body_orientation,torso_leg_ratio,frame,timestamp
0.7746095903577553,0.4509438249571924,0.21785418689250946,0.9999975562095642,0.684707659588971,0.5982775910174692,0.035677868872880936,0.999997615814209,0.8501577924715222,0.5918137983941417,0.00119891413487494,0.999995768070221,0.7292143131382717,0.9170360732851585,0.021886125206947327,0.9999884963035583,0.8155900144388127,0.9108191686403043,-0.022027475759387016,0.9999891519546509,0.7307013613497351,1.1955121572380312,0.14926157891750336,0.9890974760055542,0.8213203536401099,1.1942228213037214,0.06794319301843643,0.9611149430274963,0.7385675507573274,1.4509438249571924,0.25362545251846313,0.9892153143882751,0.8193880321917697,1.4559157142900405,0.2007182538509369,0.9762423634529114,0.6378065387531205,0.9275554431997336,0.09064479172229767,0.991795539855957,0.8939678142871708,0.9297502273354696,0.003566139843314886,0.9839237928390503,0.004007399082183838,0.7724021637885422,0.9139276209627314,178.5420491986483,178.41859367455473,1.0,-0.09178871063298531,0.12292794855470889,-0.6408188362630496,0.6133709313894445,93.83176287114206,0.8581120381727532,0,0.0
0.757299861681092,0.43790948896914533,0.2157423496246338,0.9999974966049194,0.6616584102343286,0.5874294596800904,0.034341514110565186,0.9999977946281433,0.8516983678710219,0.5795661335915817,-0.006141704972833395,0.9999960660934448,0.7082524529156728,0.9128276065841203,0.027104776352643967,0.9999892115592957,0.8095349490167714,0.9059887526160594,-0.02722654864192009,0.999989926815033,0.7124632760786423,1.1888669920563584,0.16111025214195251,0.9877588748931885,0.8185039160645933,1.1896094593557944,0.07534804940223694,0.9629809856414795,0.7176012825435129,1.4379094889691453,0.2601366639137268,0.985541045665741,0.8175770172329221,1.4509737842666912,0.1938699334859848,0.9716584086418152,0.6203781766197901,0.9177642081263852,0.09653188288211823,0.9912773966789246,0.8921306905543273,0.9194651504529856,0.006390534341335297,0.9844167828559875,0.004942774772644043,0.7588937009662221,0.9094081796000899,179.6920425853668,177.9855411153584,1.0,-0.022700154973323464,0.061977749699201355,0.5256344988410467,-0.4592643255542168,94.28594558050678,0.881136907609942,1,0.03333333333333333
0.7501533060192694,0.43861913926749196,0.2141721546649933,0.9999972581863403,0.6603812974374469,0.5774548506611631,0.03569062799215317,0.9999979138374329,0.8529153807119602,0.5783621154701268,-0.006522720213979483,0.9999963045120239,0.7055624314999918,0.917263140838929,0.02692084014415741,0.9999896287918091,0.8106752221629248,0.9082876540346105,-0.02704288624227047,0.9999904632568359,0.7078734685437734,1.1893322590666466,0.17092940211296082,0.9868656396865845,0.8166967596758695,1.190459557254205,0.08138342946767807,0.9645302295684814,0.7147609347048226,1.438619139267492,0.271938294172287,0.9821399450302124,0.8188412209878035,1.4465858911680913,0.1955898106098175,0.9667746424674988,0.6212366633469895,0.9170648409057345,0.12366224825382233,0.988479495048523,0.8902558073873165,0.9201939835478292,0.003872570116072893,0.9839882254600525,0.0005710422992706299,0.7581188268314583,0.9127753974367697,178.90407205016783,179.25720328390017,1.0,0.0017271788593264932,0.03580447352925885,0.1915942162186034,-0.20490076994853132,92.69306645305001,0.8949298071537203,2,0.06666666666666667
0.7486072576413292,0.43846442638672345,0.21025867760181427,0.9999970197677612,0.657458693809795,0.5741271127994316,0.030906101688742638,0.9999980330467224,0.8503799548113316,0.5758026328317909,-0.021547827869653702,0.999996542930603,0.7011433730177388,0.917224594486869,0.03052922710776329,0.9999899864196777,0.809330611837938,0.9098943242928432,-0.03065345250070095,0.9999909400939941,0.7040516936063681,1.1874720169772925,0.17849360406398773,0.9857245683670044,0.8161095264073497,1.1896208295993103,0.08363059908151627,0.9659783244132996,0.7113989278618643,1.4384644263867234,0.26992228627204895,0.9793432950973511,0.819316159308131,1.4422258171751436,0.19598543643951416,0.9620102047920227,0.6197654942956571,0.9145350110585362,0.10749164968729019,0.9868297576904297,0.889634604039195,0.9195789604999626,0.0032534722704440355,0.9840996265411377,0.0010567307472229004,0.7552369924278384,0.913559459389856,178.9398506079948,179.33904955373654,1.0,-0.010211620548434181,0.019968785991736588,-0.09052524887984507,-0.11955834476366678,93.3799333139839,0.901794088579443,3,0.1
0.7504411417238522,0.43729017817086185,0.21720370650291443,0.9999964237213135,0.6599701433352498,0.5710295613884058,0.03608095645904541,0.999998152256012,0.8525181172317998,0.5739229008220369,-0.024124089628458023,0.9999966621398926,0.7011012020668776,0.9190189261452689,0.032736945897340775,0.9999902844429016,0.8110453586255534,0.9117776118128691,-0.03287661075592041,0.9999912977218628,0.7050567515839075,1.1834392234203779,0.17529113590717316,0.9839491248130798,0.8169537219805394,1.1879672667782533,0.08290984481573105,0.9662882089614868,0.7118196482722646,1.4403278465637086,0.2580271065235138,0.9765353202819824,0.8192836915461806,1.4372901781708618,0.19624480605125427,0.9561917781829834,0.6201273139317014,0.9154794865198265,0.0899449810385704,0.9856283068656921,0.8893711200069059,0.9199368072694522,-0.021725989878177643,0.9839279055595398,0.0018239915370941162,0.7560732803462156,0.9153982689790691,179.34901153347806,179.30991616925132,1.0,0.0037436914832665435,0.010678236794600768,0.10378193156196235,-0.06913447137693406,92.972613173834,0.9133580861818201,4,0.13333333333333333
0.7507862610799171,0.43903102081556505,0.19410483539104462,0.9999960064888,0.6569177961023633,0.5707760624426799,0.011672875843942165,0.9999982118606567,0.8521622268268563,0.5725686890499749,-0.04043371230363846,0.9999968409538269,0.7007166680168799,0.9213305277239726,0.0302172489464283,0.9999904632568359,0.8104095066981994,0.9134730894619829,-0.030357494950294495,0.9999915957450867,0.7054555623551719,1.1835251620314986,0.17564323544502258,0.9827877283096313,0.8166433823763865,1.187948035605006,0.08486144989728928,0.9670034050941467,0.7139233600045726,1.439031020815565,0.2573677897453308,0.9744639992713928,0.8198052905843999,1.4399896643731935,0.19638577103614807,0.9517374634742737,0.6192133066943732,0.9147829931701252,0.07657383382320404,0.984390139579773,0.8896196153946988,0.9189474760734727,-0.015926113352179527,0.9846587181091309,0.0011309683322906494,0.7555630873575397,0.9174018085929778,179.13728649705115,179.41767009346398,1.0,0.0006010500968932971,0.021302980392850463,-0.02464514003851015,0.0834632362942706,93.02455563544358,0.9160569578991835,5,0.16666666666666666
0.7506827916463672,0.43816196142579933,0.18269279599189758,0.9999955296516418,0.6590641373924125,0.5701619022468207,0.0016981083899736404,0.9999982714653015,0.8525096779136819,0.5728041585616597,-0.04379698261618614,0.9999969601631165,0.7012705187864661,0.9217672336677718,0.028294334188103676,0.9999906420707703,0.8107347074925361,0.9137481984562322,-0.028440017253160477,0.9999918341636658,0.7053874282768031,1.182696709483351,0.15812528133392334,0.9817613363265991,0.8165869034556884,1.1871745540223484,0.0745973140001297,0.967685341835022,0.7146662856271514,1.4428291597894345,0.24281057715415955,0.9732220768928528,0.819955662088221,1.4381619614257992,0.17588521540164948,0.949029266834259,0.6214745198809936,0.9165938943270473,0.05661569908261299,0.9842378497123718,0.8888917984694861,0.9192228211914251,-0.04435870796442032,0.9852972030639648,0.001665949821472168,0.756002613139501,0.917757716062002,178.8610703884102,179.54285387509287,1.0,-0.000289558257899236,-0.001754887225386736,-0.007033679099724325,-0.18213065672078482,92.65513937446845,0.9173080149444583,6,0.2
0.7496271999106462,0.43873441043063793,0.21019670367240906,0.9999951720237732,0.6605104468432587,0.5690385571403529,0.020538952201604843,0.9999983310699463,0.852496286421688,0.5731562751020894,-0.0259401835501194,0.999997079372406,0.7013233262369504,0.9221904562893403,0.027390986680984497,0.9999908208847046,0.8118115552115572,0.9140250999260288,-0.02754569612443447,0.9999920725822449,0.7049584788063474,1.1823741110783725,0.1641211211681366,0.9798890352249146,0.8180289646104368,1.186329397670909,0.08228885382413864,0.9680144190788269,0.7148831063951949,1.445366906455089,0.23756101727485657,0.9705358147621155,0.8192930447738878,1.4387344104306379,0.18024340271949768,0.9445579051971436,0.6211367992262687,0.9173879730707232,0.07440195232629776,0.9835512042045593,0.8890801811835625,0.9194104445876614,-0.01954321376979351,0.9859337210655212,0.00259515643119812,0.7565674407242539,0.9181077781076845,178.63929492759544,178.9789598549305,1.0,0.00202311761702286,-0.00024508798821721624,0.018613597143593466,0.01215686073594835,92.36566698682594,0.914843105346475,7,0.23333333333333334
0.7465620356762146,0.4388114708682115,0.1928282380104065,0.9999950528144836,0.6598812587051304,0.5674735275979811,0.015303613618016243,0.9999983906745911,0.8515018021588133,0.5723150897991489,-0.04454099386930466,0.9999972581863403,0.6996874923421766,0.9197076714593447,0.03102489747107029,0.9999911189079285,0.8095954539807957,0.9120916577070625,-0.03118770755827427,0.9999923706054688,0.7044360865015455,1.1795698266247534,0.16932184994220734,0.9775416851043701,0.8172749258581047,1.1852782249251523,0.0756155252456665,0.9685470461845398,0.7151807652379413,1.439986201635076,0.23858027160167694,0.9681058526039124,0.8194418508506481,1.4388114708682116,0.17205381393432617,0.9412195086479187,0.6200855542063884,0.9156532449741897,0.07618686556816101,0.9829293489456177,0.8888864756334729,0.917872107420252,-0.04414721950888634,0.986505389213562,0.003055959939956665,0.7546414731614861,0.9158996645832036,178.68421701333423,178.8794880231135,1.0,-0.005970060736239711,-0.0062636290970599145,-0.060732581278448466,-0.04574944904434008,92.48373729034283,0.911205783158398,8,0.26666666666666666
0.7447852373988927,0.43820483019855794,0.18253377079963684,0.9999950528144836,0.6584803471756823,0.5663885349846617,0.007124121300876141,0.9999984502792358,0.8488806117163724,0.569546234671619,-0.048813797533512115,0.9999973773956299,0.6985827226863413,0.9193167409987439,0.030582481995224953,0.9999913573265076,0.8087607775771188,0.9120384746650999,-0.030743498355150223,0.9999926686286926,0.7037182490656448,1.1815850726649355,0.17708157002925873,0.9765399694442749,0.8183280116759534,1.1845473772680823,0.08051992952823639,0.9694864153862,0.7139220153259391,1.438204830198558,0.25677284598350525,0.9667806625366211,0.8191122343982263,1.4398834065596975,0.1798335611820221,0.9396412372589111,0.6194252534532814,0.9151307280875691,0.07226931303739548,0.98211669921875,0.8885198145289669,0.917235766841242,-0.03793792799115181,0.9870117902755737,0.001994401216506958,0.75367175013173,0.9156776078319219,178.8447694904368,178.16526142647706,1.0,-0.003834254793528769,0.002909466696000922,0.016885979660681033,0.07262253844760751,92.70315833328691,0.9121910540457557,9,0.3
0.7433010253265054,0.43521471984770443,0.19008830189704895,0.9999948740005493,0.655851220258417,0.5655887663170313,0.011398842558264732,0.9999985098838806,0.847227452454948,0.5681024326444116,-0.04055922478437424,0.9999974966049194,0.6975027847752249,0.9172108384421681,0.029759522527456284,0.9999915361404419,0.8075984695483688,0.9102874385237739,-0.029919514432549477,0.9999929070472717,0.7014649862246735,1.1795957548810196,0.1717226207256317,0.9753294587135315,0.8169658045893397,1.1839229504558142,0.08041563630104065,0.9699037075042725,0.7124476745231746,1.4352147198477043,0.2523224949836731,0.9652447700500488,0.8181187001199415,1.4361728765106034,0.1804477870464325,0.9374237060546875,0.6161025030818744,0.9130213160900917,0.06219589710235596,0.9820219874382019,0.8858327379578541,0.9145315781598288,-0.03656820207834244,0.987623393535614,0.0015910565853118896,0.7525506271617969,0.913749138482971,178.40493740075257,178.3012310276066,1.0,0.0036286097039289165,0.0003144953912794596,0.053888359942905306,-0.018713406933376753,93.15719591984609,0.916725552863461,10,0.3333333333333333
0.7437569682004614,0.4349420585857887,0.18728548288345337,0.9999946355819702,0.6573278215552746,0.5649988180028762,0.006294756196439266,0.9999985694885254,0.848491429649312,0.5681528988891676,-0.03986773267388344,0.999997615814209,0.6984090290447174,0.9176795771154427,0.02954205498099327,0.9999916553497314,0.8082888290295102,0.9105818469173808,-0.02970028854906559,0.999993085861206,0.7019720272301233,1.179616640974286,0.16795967519283295,0.974696934223175,0.817789749234764,1.1839052789244684,0.07972513139247894,0.9704920649528503,0.7132126832578423,1.4349420585857888,0.24726060032844543,0.9644303321838379,0.8190095288094957,1.4365928972949555,0.17870858311653137,0.9362505674362183,0.6160981224383192,0.9132506447278452,0.060053206980228424,0.981893002986908,0.8863196717581268,0.9143456762601743,-0.03596135228872299,0.9881528615951538,0.001995295286178589,0.7533489290371138,0.9141307120164117,178.25850888960196,178.28573622782463,1.0,0.0029094684744792915,-0.0010152699788779384,-0.0055806240959859685,-0.010291371163073796,92.94811660005637,0.9185315288026851,11,0.36666666666666664
0.7441473381942609,0.43545264629304287,0.2014487087726593,0.999994158744812,0.6580145530013274,0.5649911996549509,0.01428704522550106,0.9999985694885254,0.848975843970549,0.5681886434340322,-0.028526443988084793,0.9999976754188538,0.6995978149717028,0.9180437208285797,0.02842583693563938,0.9999915957450867,0.8089114314104863,0.9106226014989544,-0.0285947285592556,0.9999931454658508,0.7018488994585494,1.1802434409497577,0.16166068613529205,0.9725341200828552,0.817273302465958,1.185219284354838,0.08139021694660187,0.9698548316955566,0.7124184081419602,1.4354526462930428,0.22745835781097412,0.9615225791931152,0.8185368426771804,1.4397049722668145,0.173888698220253,0.9323879480361938,0.6170588672423737,0.9132659800209478,0.08027616888284683,0.9793435335159302,0.8854359578927369,0.9138097725933916,0.00024776835925877094,0.9882999658584595,0.0020222067832946777,0.7542546231910945,0.914333161163767,178.12034021920522,178.54027405009063,1.0,0.005757179557315842,-0.0002644701381947506,0.023023507063167123,0.006073862079759073,92.83371166012891,0.9152022171796623,12,0.4
0.741408580223311,0.43283337488351303,0.20784492790699005,0.9999940991401672,0.6559329381038891,0.5628394706848525,0.020496301352977753,0.9999985694885254,0.8465624689019693,0.5658435815684844,-0.022061096504330635,0.9999977946281433,0.6975193274114382,0.9151962867764901,0.027268892154097557,0.9999915361404419,0.8068912719344777,0.9077256177108448,-0.027447113767266273,0.9999932050704956,0.7004083256599407,1.1764909740887566,0.160895437002182,0.9717174768447876,0.8143870308561063,1.1818555987637749,0.07982740551233292,0.96993488073349,0.7098547034223973,1.4328333748835131,0.20023617148399353,0.9600721001625061,0.8160327186757141,1.4360688386713802,0.15609054267406464,0.93043053150177,0.6149731374094357,0.9106453439852145,0.10493160784244537,0.976902425289154,0.8833496480043557,0.9108802677303763,0.01243465393781662,0.9887036681175232,0.0019055008888244629,0.7522052996729579,0.9114609522436674,178.52303320845957,178.8046129144846,1.0,0.0011021533936348721,-0.001439286621392047,-0.03318133999597615,-0.00841006311506105,92.82358224386711,0.9152122708710073,13,0.43333333333333335
0.7405373283355922,0.4316367148634157,0.1934572160243988,0.9999939203262329,0.6560605978849298,0.5615918417045185,0.012014653533697128,0.9999985694885254,0.8452764003125895,0.5647971276673863,-0.03060571849346161,0.9999978542327881,0.6964632387079852,0.9138494939188858,0.026512857526540756,0.9999914765357971,0.8059340394828431,0.9063246356152634,-0.026696544140577316,0.9999932646751404,0.6995976735494699,1.174600482960657,0.15810486674308777,0.9710257649421692,0.8129340364329604,1.1801350347299528,0.08220474421977997,0.9699689745903015,0.7084095823561001,1.4316367148634157,0.2055892050266266,0.9593123197555542,0.81453236265733,1.43297275117485,0.16315577924251556,0.9291511178016663,0.6141075843779377,0.909828903926114,0.08367612957954407,0.9756580591201782,0.8828123859959709,0.9091441348761361,-0.0034356224350631237,0.9891098141670227,0.002035856246948242,0.7511986390954142,0.9100870647670746,178.72521991647372,178.89773855111224,1.0,7.738644714103985e-05,-0.0011520717645457747,-0.008272915118436166,0.0023063309775762358,92.61078053678116,0.9162369351243522,14,0.4666666666666667
0.7406308911596722,0.43180002579648524,0.19361422955989838,0.9999934434890747,0.655565150487946,0.5619360656454838,0.010600309818983078,0.9999985694885254,0.8454737963846245,0.5642455926780038,-0.033439766615629196,0.9999979138374329,0.6966018387599513,0.9141514937084926,0.026298969984054565,0.9999914169311523,0.8060614042712897,0.9064949692160065,-0.02648605778813362,0.9999933242797852,0.7000006758904435,1.1745868197233091,0.1569667011499405,0.9695703387260437,0.8131281204782226,1.1801056529411467,0.0814557820558548,0.9698062539100647,0.7081806399818862,1.4318000257964854,0.20420697331428528,0.9580819010734558,0.8146916803706583,1.4326787772465988,0.1549225151538849,0.9279940128326416,0.6144546305723647,0.910726043391791,0.07285812497138977,0.9742297530174255,0.8833747284938701,0.9094334967924305,-0.014790843240916729,0.9895660281181335,0.0014664232730865479,0.7513316215156205,0.9103232314622496,178.9261798352171,178.8752009178668,1.0,-0.0008353834313149374,-0.00047244467939443034,-0.006562701120682254,0.0048890437177321186,92.64434766140569,0.9169129835649683,15,0.5
0.7403523992031487,0.43051688018224465,0.19578920304775238,0.9999930262565613,0.6556063176996227,0.5606532522273076,0.008946279063820839,0.9999985694885254,0.845459774880872,0.5633905524563141,-0.03046441078186035,0.9999979734420776,0.6956750102908492,0.9134116501043719,0.024896007031202316,0.9999912977218628,0.8052826859698108,0.9057176220990031,-0.025077417492866516,0.9999933242797852,0.6995061705695595,1.1734842057509431,0.15594695508480072,0.9684458374977112,0.8125065431789775,1.1791100263453245,0.08077338337898254,0.9693189859390259,0.7074594397950611,1.4305168801822448,0.20824281871318817,0.9567339420318604,0.8139270931324669,1.4310053437368784,0.15914587676525116,0.9259660840034485,0.6139679188169257,0.9105551655185068,0.07558766007423401,0.9729865193367004,0.8826826302097307,0.9087773908260034,-0.007896609604358673,0.9898912906646729,0.0017392337322235107,0.75047884813033,0.9095646361016875,179.0716528878557,178.80953677454687,1.0,-0.002609372657130551,-0.0010242567917616739,-0.013810150307661275,-0.004296886114508762,92.46491733487906,0.9191568993171564,16,0.5333333333333333
0.7398694775296577,0.4292283595966964,0.1932903379201889,0.9999927282333374,0.6549513431677179,0.5592927305907284,0.007336670067161322,0.9999985694885254,0.8448949730987869,0.5624621296104886,-0.03309682011604309,0.9999980330467224,0.6949414905410474,0.9123476071161566,0.024541649967432022,0.9999911785125732,0.8043659487074917,0.9047262058691068,-0.024723133072257042,0.9999932646751404,0.6983785241601137,1.172186599040826,0.15759679675102234,0.967372715473175,0.8117884044873401,1.1775723705134893,0.0805598646402359,0.9685671329498291,0.7067925211497867,1.42986089935346,0.21063630282878876,0.9556189775466919,0.8131198303931324,1.4292283595966964,0.1617584377527237,0.9232155680656433,0.6138350407533651,0.9096677001585379,0.07419208437204361,0.9718948006629944,0.8813996389931616,0.9077893850645274,-0.009922290220856667,0.9900639653205872,0.002015918493270874,0.7496537196242695,0.9085369064926317,178.88758897055732,178.74485028401602,1.0,-0.0002208998860934059,-0.0004734812373318078,0.017726661446405993,0.004084394054709107,92.47807838867531,0.9199734147963673,17,0.5666666666666667
0.7401725498929342,0.4295625910452439,0.18749599158763885,0.9999922513961792,0.6546977143250265,0.5594877978049977,0.006374523043632507,0.9999985098838806,0.8447728618579219,0.5624925368909565,-0.03896983712911606,0.9999980330467224,0.6948251528285394,0.9124725634085428,0.025084111839532852,0.9999911189079285,0.8045605524565884,0.9048159056029415,-0.025263693183660507,0.9999932646751404,0.6985695949797669,1.1724384500877578,0.15941451489925385,0.9668347835540771,0.8120345339730096,1.177592939491127,0.08033536374568939,0.9686821699142456,0.7074222247966239,1.4298148136692477,0.2153262346982956,0.9554404616355896,0.8133769094546086,1.4295625910452439,0.16211389005184174,0.9229516386985779,0.6141874897953407,0.9098988803789919,0.07060056924819946,0.9712788462638855,0.8817602645984974,0.9076841764092459,-0.037471331655979156,0.9904042482376099,0.0019108057022094727,0.7496928526425639,0.908644234505742,178.85525835414242,178.7357532669647,1.0,-0.0008356364857116431,-0.0005569721317181935,-0.004677029936406434,-0.0006345437026942473,92.4942862181428,0.919448683049487,18,0.6
0.7401998127370661,0.42960150860069224,0.18360456824302673,0.9999919533729553,0.6543591586851855,0.559349134775889,0.005834864918142557,0.9999985098838806,0.8445208721316576,0.5621981463031503,-0.045255906879901886,0.9999980330467224,0.69457242098732,0.9123939382294749,0.026331013068556786,0.9999911785125732,0.8044701293126476,0.9047424009957364,-0.02650410495698452,0.9999933838844299,0.6985579910567422,1.1723099229672647,0.16417601704597473,0.9660621881484985,0.8120237237206277,1.1774108228228342,0.07837443798780441,0.9690625071525574,0.7075688716142946,1.4296015086006924,0.22740571200847626,0.9548429846763611,0.8137740416833419,1.429794207595677,0.16161449253559113,0.9223658442497253,0.6144266501960263,0.9098514549430198,0.05905913561582565,0.9712772965431213,0.8818626757230196,0.9075738390494766,-0.04245278611779213,0.9906337261199951,0.0018118321895599365,0.7495212751499838,0.9085681696126057,178.87271242541172,178.81051880362327,1.0,-0.00116604174533173,-0.00036996015318425257,-0.002613848607471614,0.0014791962121644075,92.5154755407456,0.9190539434014606,19,0.6333333333333333
0.7407051638739574,0.4310635841426332,0.18297497928142548,0.999991774559021,0.6551042614191368,0.5602247560652684,0.0004024690424557775,0.9999985098838806,0.8453178024827266,0.5629178296569609,-0.04967210069298744,0.9999980926513672,0.6950536231342814,0.9134026776754844,0.026393979787826538,0.999991238117218,0.8052876030504955,0.9057170422797681,-0.0265666451305151,0.9999935030937195,0.6995160715515606,1.173240904654282,0.16263341903686523,0.964853048324585,0.8131969379442204,1.1786138212884978,0.07185377180576324,0.9692614078521729,0.7084397954650932,1.4310635841426331,0.22064180672168732,0.9543323516845703,0.8148401533842901,1.4315830474064652,0.14599867165088654,0.9226799607276917,0.6151136598007311,0.9111584575018808,0.05646442249417305,0.9704404473304749,0.8828039831272027,0.9086029910049156,-0.04029052332043648,0.990885317325592,0.0017106831073760986,0.7501706130923884,0.9095598599776263,179.00157558829858,178.71203966675617,1.0,-0.0016285752656400802,-0.0004477531738507443,-0.003441227612958051,-0.0005772748800269063,92.46525206723346,0.9170302224868202,20,0.6666666666666666
0.7410172113892638,0.4320602524193138,0.18102331459522247,0.9999915957450867,0.6556156643334321,0.5605783586337071,-0.001119531225413084,0.9999985098838806,0.845622304229278,0.5632473198080369,-0.04942139610648155,0.9999980926513672,0.6952009912197998,0.9134737311027602,0.026172107085585594,0.999991238117218,0.8056481127463233,0.9060843649346842,-0.026348039507865906,0.9999935626983643,0.6999547717239484,1.1737874092647318,0.15007247030735016,0.9640453457832336,0.8136695012379686,1.1785611869101342,0.06504784524440765,0.9694676399230957,0.7085456093248641,1.4320602524193138,0.19674274325370789,0.9539788365364075,0.8159134058065408,1.4322132821857156,0.13983997702598572,0.9223722815513611,0.6153607148649407,0.9115447110964653,0.04247722774744034,0.9707977175712585,0.883283868573718,0.9086998595740656,-0.044811222702264786,0.9911509156227112,0.0016944706439971924,0.7504245519830616,0.9097790480187222,179.14109758354454,178.8206158817954,1.0,-0.0010750406617564667,-0.0019718215789742725,0.004177190027431624,-0.011481573894960588,92.57266475909402,0.9144844321598242,21,0.7
0.7401122528936813,0.43111970436875596,0.184177428483963,0.9999918937683105,0.655132669802178,0.5601043880054075,0.0027978583239018917,0.9999985098838806,0.8448867485169141,0.5626066307274543,-0.04559781029820442,0.999998152256012,0.6946564069149104,0.9124083715656897,0.026129713281989098,0.9999912977218628,0.8049259116079991,0.9051628057200927,-0.02630520425736904,0.999993622303009,0.6994865965286987,1.172816004297171,0.14732973277568817,0.9642810225486755,0.8132125620201881,1.1775412224178958,0.06134537607431412,0.9702335000038147,0.707755423362977,1.431119704368756,0.1919984519481659,0.954422116279602,0.8154956685422386,1.4312531935864763,0.134180948138237,0.9234724640846252,0.6149894695487454,0.9106318298895211,0.04271424934267998,0.971450924873352,0.8827892436020626,0.9070615796174066,-0.044894732534885406,0.9915676116943359,0.0015898942947387695,0.7497911592614547,0.9087855886428912,179.22910471323743,178.77299086006994,1.0,-0.0002603515821572085,-0.0020425928266347613,0.006230814718096811,-0.0005538940002491379,92.64167109294975,0.9143169299200945,22,0.7333333333333333
0.7401617816632906,0.43122360676089116,0.17500820755958557,0.9999921321868896,0.6548318218734509,0.5593083328904213,-0.00835302285850048,0.9999985694885254,0.8448904452915101,0.5627030485969367,-0.05023215338587761,0.9999982118606567,0.6941547194949967,0.9117331227870913,0.025360535830259323,0.9999914169311523,0.8048072244218755,0.9043465223866363,-0.02553628385066986,0.9999937415122986,0.6993003646952757,1.1729420620831514,0.14503999054431915,0.9647718667984009,0.8132826144686869,1.1776623709747913,0.0625874400138855,0.9709059000015259,0.7078800834010055,1.4312236067608912,0.19419662654399872,0.9553089737892151,0.815751131865092,1.431363868761865,0.13910362124443054,0.9248744249343872,0.6150256067281477,0.909916378046717,0.034362323582172394,0.9723992347717285,0.8828544433664963,0.9071699636289842,-0.05666991323232651,0.9920738935470581,0.002156674861907959,0.7494809719584361,0.9080398225868638,179.22596466036552,178.7813259714623,1.0,-0.003157703572918606,-0.006678540344074458,-0.022338781889055984,-0.03574181083385142,92.54751241865797,0.9111702366044163,23,0.7666666666666667
0.739442029783397,0.43054151579854855,0.1870671659708023,0.9999922513961792,0.6546561013496112,0.5587227361153655,0.0004461294156499207,0.9999985694885254,0.8445158786447277,0.5623617661000346,-0.04418312758207321,0.9999982714653015,0.6937236674444311,0.9092340573439845,0.02534852921962738,0.9999914765357971,0.8044903003906705,0.9027106271493021,-0.02552393451333046,0.9999938607215881,0.6989997919750385,1.1720939484994723,0.14530491828918457,0.9644431471824646,0.8130073187645831,1.177198063210701,0.05680602043867111,0.9713496565818787,0.7076725477017743,1.4305415157985486,0.1906055510044098,0.9552978873252869,0.8157974605948388,1.4321719512947726,0.12777552008628845,0.9251478910446167,0.6149425136430798,0.9094306399947027,0.057801663875579834,0.9727252721786499,0.882454360655258,0.9064265644686988,-0.035170890390872955,0.9924638271331787,0.0023126602172851562,0.7491069839175508,0.9059723422466434,179.22792658127676,178.8497046753815,1.0,-0.0009791404457978865,-0.013942144769739671,0.01720545445319766,-0.0574105198086914,92.9894148062284,0.9048428882860245,24,0.8
0.736450707918455,0.43448186871681016,0.20369407534599304,0.9999924302101135,0.6538352748385838,0.5615458050042198,0.01474100910127163,0.9999985694885254,0.8461879319022525,0.5651368071465288,-0.024248138070106506,0.9999983310699463,0.6946158903490666,0.9118884488882466,0.023966137319803238,0.9999914169311523,0.8060208490112071,0.9051452800757362,-0.024152090772986412,0.9999938607215881,0.7009784403969778,1.1752880139934532,0.13038252294063568,0.9651176929473877,0.8150818704191081,1.1804425908729652,0.052318274974823,0.9720578789710999,0.7096849418065698,1.4344818687168102,0.16249120235443115,0.9556686878204346,0.8186580127233132,1.4365082615762252,0.11754957586526871,0.9257827997207642,0.6160508447230152,0.9109432503253059,0.05482378602027893,0.9736344814300537,0.8846456631633031,0.9087540575940051,-0.03433956950902939,0.9929091930389404,0.002275824546813965,0.7503183696801368,0.9085168644819914,179.45985790564606,178.9149960100522,1.0,-0.00696647614226878,0.0002517456923901795,-0.048105791936044105,0.1144047473474886,93.17567053856835,0.8996057192170991,25,0.8333333333333334
0.7373855309102039,0.43628033517117426,0.1965971291065216,0.9999927282333374,0.6517484133770282,0.5628741691559279,0.012396151199936867,0.9999985694885254,0.8464063443538958,0.5671593827156366,-0.028890326619148254,0.9999983906745911,0.6951212959469846,0.9146214664447614,0.02361699752509594,0.9999914169311523,0.8060967235936005,0.9070160553289656,-0.023799452930688858,0.9999938607215881,0.7019013669066476,1.1769390184009036,0.13999977707862854,0.9658560752868652,0.8153218282692519,1.181928544831497,0.06414447724819183,0.9726325869560242,0.7107384307922423,1.4362803351711741,0.18328793346881866,0.9561999440193176,0.819959104079745,1.4385191044866228,0.14095565676689148,0.9264779686927795,0.615858690237068,0.9118465980572248,0.050994981080293655,0.9740608334541321,0.8847066296250966,0.9077157531516188,-0.03351377695798874,0.9931766986846924,0.0027118921279907227,0.7506090097702925,0.9108187608868634,179.52898280719762,179.11344941472478,1.0,-0.005928769463503514,0.007515381558513043,0.007895089532093632,0.05473288902184215,93.10899715689443,0.9011631219108033,26,0.8666666666666667
0.7378138757628658,0.43855566004801266,0.19331051409244537,0.9999930262565613,0.6512211018305856,0.5644346942609773,0.01096249744296074,0.9999985694885254,0.8458538981611597,0.568722464695352,-0.031341634690761566,0.9999984502792358,0.6957783480234675,0.917102397382545,0.02373337186872959,0.9999914169311523,0.8056448945885365,0.9094970530186823,-0.023913448676466942,0.9999938607215881,0.7030096799365693,1.179068850036479,0.14051105082035065,0.9660992622375488,0.8150439326656833,1.1838514357828076,0.06420020759105682,0.9731664061546326,0.7120352716052568,1.4385556600480127,0.186680406332016,0.9563404321670532,0.8213145492824494,1.4410349253288788,0.14125284552574158,0.9269941449165344,0.6151547731823686,0.9116719762220724,0.05314472317695618,0.97463458776474,0.885070346557984,0.9076126981967637,-0.03307999670505524,0.9934737086296082,0.002709031105041504,0.750711621306002,0.9132997252006136,179.58910782012939,179.4345876359055,1.0,-0.00860133911322196,0.007366466934754419,-0.02011797598991226,-0.0012189751908853646,93.24089626392005,0.901621385039389,27,0.9
0.7360601327866163,0.44651338671635854,0.1894521266222,0.9999930262565613,0.6550782489166492,0.5709514688885075,0.008139087818562984,0.9999985694885254,0.8479220515838237,0.5729769009981139,-0.03529449179768562,0.9999984502792358,0.6988387966067966,0.9244515011053513,0.024354448541998863,0.9999915361404419,0.807488486992473,0.9165988592386219,-0.024532688781619072,0.9999939799308777,0.7076206425768305,1.1877073068372126,0.1439041793346405,0.9652102589607239,0.8194070085985711,1.1925374575455174,0.057316284626722336,0.9738754630088806,0.7173120204180663,1.4465133867163584,0.19140410423278809,0.9560096859931946,0.8273505038657362,1.4516295925871228,0.129166379570961,0.9280402660369873,0.6179727128084097,0.9182812627406214,0.04344966262578964,0.9748899936676025,0.8899063962884676,0.9121971260294423,-0.038777634501457214,0.9935722947120667,0.0012703239917755127,0.7531636417996348,0.9205251801719866,179.76607517114138,179.2828591212363,1.0,-0.024297062556310083,0.003963120286226392,-0.12352399706767761,-0.027321087020131064,92.92301234721819,0.896813077028574,28,0.9333333333333333
0.7364525147040332,0.4474467265289842,0.18880023062229156,0.9999927878379822,0.6546718902635505,0.5719185376554892,0.008044230751693249,0.9999985694885254,0.844176378843129,0.5730432218911128,-0.03521654009819031,0.9999984502792358,0.6983086395207665,0.9259339767535761,0.024318691343069077,0.9999914765357971,0.8056650782642735,0.9183352218418246,-0.02449677884578705,0.9999939203262329,0.7075499377165665,1.1888125508671035,0.1502101570367813,0.9648436307907104,0.8175896808413513,1.193895038891286,0.0621039979159832,0.9742934107780457,0.7176877005930711,1.447446726528984,0.20521089434623718,0.9558618664741516,0.828224131679781,1.4533947075994638,0.1401376873254776,0.9284694790840149,0.6175795758104018,0.9193516242957105,0.035917676985263824,0.9754003882408142,0.8886814280996838,0.9109001265650369,-0.0387066975235939,0.9937155842781067,0.0007045269012451172,0.75198685889252,0.9221345992977004,179.76866978618054,179.86882480577353,1.0,-0.016755563958479984,0.0038823334381616675,0.060518597982202896,-0.0006844251852531326,92.97828460948077,0.8983140852683719,29,0.9666666666666667
0.7353735515086831,0.44928787002730297,0.18946394324302673,0.9999927878379822,0.6526529223636818,0.5734510424314796,0.0083566689863801,0.9999985694885254,0.8427402935004168,0.5739408880822063,-0.03150556609034538,0.9999984502792358,0.6978268990597242,0.9276625355667067,0.024149365723133087,0.9999914765357971,0.8057532536087576,0.9203445398650916,-0.024327827617526054,0.9999939799308777,0.708467781961833,1.1907807035982998,0.15145084261894226,0.9651021957397461,0.8158743158709085,1.1959308737671237,0.06129990890622139,0.9751846194267273,0.7185277505257418,1.449287870027303,0.2085234671831131,0.9564155340194702,0.8293216964928929,1.4559083872831513,0.1401986926794052,0.930095374584198,0.6182739924650787,0.9208397705297819,0.03881612420082092,0.9763708710670471,0.8879786044340777,0.9117618760168682,-0.01802624762058258,0.9940083026885986,0.0003063380718231201,0.7517900763342409,0.9240035377158992,179.9127136624539,179.1422792738931,1.0,-0.010455103476184925,0.0023571368916409444,0.04551722451837025,-0.011016583659248944,93.3888912398648,0.8978186875507936,30,1.0
0.7366607560825333,0.4503911887682227,0.18209873139858246,0.9999925494194031,0.6502181290032243,0.5756765111273572,0.00809845607727766,0.9999985098838806,0.8421706971860795,0.5747669163342719,-0.044857390224933624,0.9999984502792358,0.6957669379094632,0.929263157573169,0.025900274515151978,0.9999914169311523,0.8044985992354745,0.9221846809649724,-0.02607368305325508,0.9999939799308777,0.709010048120314,1.1926968168191792,0.1521989405155182,0.9654141068458557,0.8149140705951717,1.1970665567922998,0.05823514983057976,0.9759189486503601,0.719591533894912,1.4503911887682226,0.2077573835849762,0.9573558568954468,0.8306358934429938,1.4580582098662778,0.1364404857158661,0.9320525527000427,0.6189920013319339,0.9214046327854698,0.03503787890076637,0.9770311713218689,0.8884206520786552,0.9123963221363182,-0.05427321046590805,0.9943112730979919,0.0005679130554199219,0.7501327685724689,0.9257239192690707,179.47346570220822,178.72267702700526,1.0,-0.022505192333351444,0.0016637260945473549,-0.09391221003010213,-0.005441754618528344,93.61565792317424,0.8987533446542513,31,1.0333333333333334
0.738001476523567,0.45026226059995333,0.14207829535007477,0.9999926090240479,0.6479559684737302,0.5794543902520559,-0.020605329424142838,0.9999985098838806,0.840984380289802,0.5757457689833159,-0.07223100960254669,0.9999984502792358,0.6932787474580854,0.9316768059496334,0.025982823222875595,0.9999914765357971,0.8022813757312496,0.9241664019200067,-0.02615078166127205,0.9999940395355225,0.7098958308175825,1.1949804511512643,0.16669152677059174,0.9663326144218445,0.8141918429461757,1.1945000094930986,0.07319952547550201,0.9763961434364319,0.7208585185400217,1.4502622605999533,0.24523556232452393,0.9592123627662659,0.8322272956763551,1.4530922083085225,0.17998714745044708,0.934692919254303,0.619251277156539,0.9231161830454979,0.027650604024529457,0.9773910045623779,0.889113290543769,0.9141777491619172,-0.07808054983615875,0.9946478605270386,0.0023110806941986084,0.7477800615946675,0.92792160393482,178.84782361215477,178.53310886961876,1.0,-0.03129043652307881,0.0035015469687638854,-0.07217784181568186,0.015147329629035415,93.39081940490219,0.9108048571413727,32,1.0666666666666667
0.7421520012619898,0.4556918583812087,0.14293190836906433,0.9999925494194031,0.6497728080767344,0.5866274915975893,-0.018636908382177353,0.9999984502792358,0.8441528532015512,0.5825061013055516,-0.07059259712696075,0.9999984502792358,0.6965857774334429,0.9422164997440804,0.025996562093496323,0.9999913573265076,0.8056329317575185,0.934599793431189,-0.026161586865782738,0.9999939203262329,0.715421070887064,1.2054385197284792,0.17156068980693817,0.9669320583343506,0.821061528271513,1.20121606412606,0.07797422260046005,0.9764771461486816,0.7271361081992188,1.4620391458027504,0.2468286007642746,0.9604690074920654,0.8396886127133889,1.4556918583812086,0.18373259902000427,0.9359849691390991,0.6235049932052272,0.9309763005465246,0.02762921154499054,0.9779593348503113,0.8955833735745329,0.9222552567227728,-0.08079647272825241,0.9949076771736145,0.0025461018085479736,0.7511093545954807,0.9384081465876347,178.52108984747403,179.12544611527596,1.0,-0.024005169136447718,0.01801630526892949,0.05685266193309373,0.1089512966736846,93.50431183581979,0.9258599786066836,33,1.1
0.7432036234321493,0.45652249789493293,0.1432388573884964,0.9999925494194031,0.6494264036753324,0.5886467442741645,-0.018538685515522957,0.9999984502792358,0.8448220668456558,0.5867879330953666,-0.07408246397972107,0.9999984502792358,0.6963007283933202,0.9451075670162559,0.026352237910032272,0.9999912977218628,0.8062018093376316,0.9378367829296635,-0.026510298252105713,0.9999938607215881,0.7165666093100959,1.2083471552130296,0.17907696962356567,0.9672555923461914,0.8225611943883055,1.201532045989805,0.08218217641115189,0.9762822985649109,0.7286130844721418,1.465160403256301,0.2619397044181824,0.9612811207771301,0.841434719330679,1.456522497894933,0.19593651592731476,0.9363564252853394,0.6244089061666548,0.9326533242462632,0.03016655147075653,0.9782551527023315,0.8970963755719986,0.9239934714641472,-0.07782252132892609,0.9951742887496948,0.0011459290981292725,0.751251268865476,0.9414721749729598,178.28332002252856,179.3169024458413,1.0,-0.011602414528140323,0.008880367547981957,0.10084197855552847,-0.07428642951331477,93.70633644989225,0.9318856102952265,34,1.1333333333333333
0.7586878756994143,0.46877946973796086,0.1448301374912262,0.999992311000824,0.6618930620028592,0.6024083781787434,-0.017543163150548935,0.9999983906745911,0.8604006489053242,0.602073256955988,-0.07037345319986343,0.9999983906745911,0.7102556231587781,0.9656669418595548,0.026298483833670616,0.9999911785125732,0.8218422974350261,0.9582641461533541,-0.026454290375113487,0.9999936819076538,0.7307055252525078,1.2343953408024784,0.17255914211273193,0.9682142734527588,0.8396721294471784,1.2153525527124445,0.0786251500248909,0.9764397740364075,0.744430035850809,1.4945736786357875,0.2382580041885376,0.9628669619560242,0.8592847964860922,1.4687794697379608,0.16958221793174744,0.9388144612312317,0.6380080809407892,0.9528955881303373,0.01960976980626583,0.9785945415496826,0.9159379158917349,0.9442531649445914,-0.08517791330814362,0.9954137206077576,0.0002022087574005127,0.7660489602969021,0.9619655440064545,178.6678251967558,179.54198688039142,1.0,-0.011388968551834132,0.0004619445560658683,0.0035176423747038214,-0.06510722314739295,93.78798839236634,0.9468200216352368,35,1.1666666666666667
0.7767064860492158,0.4827378103512717,0.14970959722995758,0.999990701675415,0.6766761137041013,0.6191252258569966,-0.015539577230811119,0.9999982118606567,0.8770550545057592,0.6211348002808303,-0.06975168734788895,0.9999982714653015,0.72561637592644,0.9893476159935648,0.02627979777753353,0.9999908804893494,0.8395766331916396,0.9817615130265581,-0.026436185464262962,0.9999934434890747,0.745500849686849,1.2595377108441417,0.15641342103481293,0.9696066975593567,0.857626368336896,1.2277634406229763,0.06236762925982475,0.9771533012390137,0.7627030233387334,1.5284744530726015,0.1864754557609558,0.9652673006057739,0.87956854064677,1.4827378103512716,0.12791171669960022,0.9422707557678223,0.6537401857904992,0.9768108511351272,0.01596381887793541,0.9781031012535095,0.9370735815350716,0.9693474115545874,-0.10834898799657822,0.9956682920455933,0.0011835098266601562,0.7825965045590398,0.9855545645100615,179.45080130496217,179.27785557075882,1.0,-0.01802773612203308,-0.00016515254539062335,-0.05086844068800822,-0.0051069221974354055,93.72191077731013,0.9642784159240472,36,1.2
0.8129732217925384,0.5070370161830808,0.17879870533943176,0.9999899864196777,0.7061656419757849,0.6566826061453646,-0.0054133920930325985,0.9999980330467224,0.9153266029381164,0.6536941595299701,-0.04879423603415489,0.9999982714653015,0.7593692574904467,1.0375212890933772,0.019026530906558037,0.9999908208847046,0.8769443835188546,1.0295481710497625,-0.019284691661596298,0.9999933838844299,0.7816586125483979,1.3152044604713682,0.0316116064786911,0.9709640741348267,0.8951631190460788,1.270813400582448,0.0232782494276762,0.9759382009506226,0.7998560145373734,1.5988771553838872,-0.05779903009533882,0.9671839475631714,0.913840048029118,1.5070370161830808,-0.007752957288175821,0.9436749815940857,0.6867693163646441,1.0287287933618094,0.029669728130102158,0.9709340929985046,0.9771176574883452,1.0190292507751584,-0.09180819988250732,0.9958925247192383,0.0016782581806182861,0.8181568205046507,1.0335347300715698,179.08121787046167,179.79773360339294,1.0,-0.019313232031188253,-0.00018148785143348468,-0.003075658931857143,-6.259274451693884e-05,94.0733606727788,1.010866681800299,37,1.2333333333333334
0.825589520607682,0.5188277424625036,0.20772723853588104,0.9999858736991882,0.7155447921655889,0.6708523547923443,0.017005551606416702,0.999997615814209,0.9296994080921228,0.6644697489909637,-0.02457086183130741,0.9999982118606567,0.772326988279681,1.0550112713126214,0.01763158291578293,0.9999898076057434,0.8917415806849307,1.046550863900054,-0.017903197556734085,0.9999927282333374,0.7949849689741337,1.3294455073423987,0.043692413717508316,0.9696671366691589,0.9057512492747101,1.2839236658915305,0.03684472665190697,0.9696570038795471,0.8137121195395564,1.624094315308176,-0.032292142510414124,0.966487467288971,0.9230594252232441,1.5188277424625036,0.028745457530021667,0.9373443722724915,0.7045376041228697,1.0519035295907246,0.06334555894136429,0.9543789029121399,0.9897705031090103,1.0367472159363906,-0.07610387355089188,0.9959073066711426,0.0035238265991210938,0.8320342844823059,1.0507810676063376,178.91690779981136,179.1636146169825,1.0,-0.0013445798723797453,-0.0038651015786945447,0.1394436717177115,-0.028044290600775488,94.35538267364932,1.0192416945187333,38,1.2666666666666666
0.819300180577748,0.5151581242249298,0.23305563628673553,0.9999785423278809,0.7097428923970327,0.6662256271215795,0.03643939644098282,0.9999967813491821,0.9221455795962685,0.659866930415138,-0.007333824876695871,0.999998152256012,0.766325009723376,1.0468995211136853,0.017388785257935524,0.9999880194664001,0.8849740965405574,1.0381785450828656,-0.017649207264184952,0.9999918341636658,0.7890916421621873,1.3202977041043524,0.07799524813890457,0.9687925577163696,0.8960301296582313,1.2728790313427625,0.07613428682088852,0.9618260264396667,0.8085059203543778,1.6127208015512817,0.03390956670045853,0.9650184512138367,0.9107626116928942,1.51515812422493,0.07242074608802795,0.926578164100647,0.7066608313907123,1.045397153690001,0.1316744089126587,0.9152489900588989,0.981325866580813,1.0305269528552643,-0.0158604197204113,0.9958046078681946,0.0035363733768463135,0.8256495531319666,1.0425390330982753,179.03815574785315,179.21728668895045,1.0,-0.0026245714124941205,-0.004748958219870558,-0.010351575179927752,-0.007319541500515004,94.25054906083689,1.0093979667829223,39,1.3
0.819269492393957,0.5150969971673574,0.21707212924957275,0.9999761581420898,0.7097942953230857,0.6659141600197687,0.02608361281454563,0.9999963641166687,0.919640348472694,0.6597275459439117,-0.015929747372865677,0.9999980926513672,0.7663451859113267,1.040781738209985,0.015502075664699078,0.9999864101409912,0.8824824082327306,1.0329310510739373,-0.01576026901602745,0.999990701675415,0.789003862226881,1.3186926551679279,0.059613894671201706,0.9693365097045898,0.8941122203978987,1.2700048285872942,0.08919375389814377,0.9535841941833496,0.8101826183287859,1.6126475339163786,0.00711080664768815,0.9650156497955322,0.9045654260719281,1.5150969971673574,0.12165690958499908,0.9169701337814331,0.7104000654956182,1.0473295854808902,0.11082448065280914,0.8977611660957336,0.9801557492657997,1.031896751815971,-0.03329114615917206,0.9959160089492798,0.003441154956817627,0.8244137970720287,1.036856394641961,179.45976694702233,179.6337593730397,1.0,-0.009021634480967421,-0.04461396344643254,-0.05155866363859932,-0.3212883867461744,94.71148758702627,0.9881400931040509,40,1.3333333333333333
0.8123363431846636,0.5130557904954814,0.2613990902900696,0.9999604821205139,0.7044036842262927,0.6597103026061654,0.0626385286450386,0.9999945759773254,0.9116164497181465,0.6537920472534124,0.029693027958273888,0.9999980330467224,0.7596459393351472,1.0308408314047721,0.009065053425729275,0.9999832510948181,0.8741891385731984,1.0227105998308432,-0.009357467293739319,0.99998939037323,0.7821819010779334,1.3056296138607404,0.048801347613334656,0.9702457785606384,0.8849856815888751,1.2579160237244356,0.11359503120183945,0.9434641599655151,0.8041996317303384,1.6000318257732251,-0.012462330982089043,0.9641731381416321,0.8934473962247155,1.5130557904954813,0.15269222855567932,0.9046952724456787,0.7186667507988843,1.033634828358591,0.21177347004413605,0.8181135058403015,0.9714566579921251,1.0252362659997276,0.0556161031126976,0.9956545829772949,0.003320753574371338,0.8169175389541729,1.0267757156178077,179.58862460913767,179.27133825499104,1.0,-0.0024300299402512174,-0.007865798315214844,0.04799278622086833,0.26792349048279446,94.40621243617196,0.967988526056813,41,1.3666666666666667
0.8107422618143271,0.5155945749377098,0.26051899790763855,0.9999479651451111,0.7033862491942773,0.6617085324273709,0.07475454360246658,0.9999926090240479,0.9076529799210332,0.6525408336667586,0.018961666151881218,0.9999979734420776,0.7585203498168746,1.0293297103322614,0.01028597541153431,0.9999805092811584,0.872327605841665,1.0210724284686643,-0.010564519092440605,0.9999883770942688,0.7817706622291267,1.3024768398648905,0.05961430072784424,0.9710595607757568,0.8831175415137749,1.2572369472928115,0.12944921851158142,0.9328954219818115,0.8038141207421319,1.5977691392111117,0.016277039423584938,0.963314414024353,0.8894414071583437,1.5155945749377098,0.20243528485298157,0.8910262584686279,0.7249123482450691,1.0278293891037924,0.23941132426261902,0.7416488528251648,0.9697575394562158,1.0248930188555676,0.05344753339886665,0.995246410369873,0.00515216588973999,0.8154239778292698,1.0252010694004627,179.40389490529347,178.78623619138256,1.0,-0.0015297906717607755,0.0003557931319600238,0.006749964405148491,0.06181563321914331,94.37956037515877,0.9572316343538734,42,1.4
0.8104822198540038,0.5183828313649763,0.245596244931221,0.9999380707740784,0.703445987437959,0.662176828523291,0.08388665318489075,0.9999905228614807,0.9058237057835268,0.6521218420969634,0.0034480474423617125,0.9999979734420776,0.7580699544381523,1.0290377203121137,0.014619422145187855,0.9999767541885376,0.8710928615177971,1.0205952485388061,-0.014903930947184563,0.9999870657920837,0.7820777167288655,1.3009738112799696,0.07548826187849045,0.9712307453155518,0.8820714354433594,1.2590806583317278,0.13951240479946136,0.9211111664772034,0.8035451363370246,1.5972272232504037,0.06507228314876556,0.9614158868789673,0.8896366475109545,1.5183828313649763,0.24690468609333038,0.8754610419273376,0.7348836358730841,1.0193892417216235,0.27955424785614014,0.6710284352302551,0.9694848789315348,1.0262756509015234,0.06760531663894653,0.9950180649757385,0.005653291940689087,0.8145814079779747,1.02481648442546,179.09932877325232,179.03542012732646,1.0,-0.0036079146711670202,0.00048213282810721873,-0.015460432671637433,0.0009407748513673857,94.19698043965853,0.9484963556934942,43,1.4333333333333333
0.8107910890542237,0.5199237663421636,0.264196515083313,0.999931812286377,0.7060583855168348,0.663490175910533,0.09978099912405014,0.9999887943267822,0.9053165629463585,0.6521816037798358,0.020905492827296257,0.9999979734420776,0.7581174777332901,1.0291520484482557,0.014884580858051777,0.9999731779098511,0.8714046815828418,1.0206369859186972,-0.015162050724029541,0.9999857544898987,0.7824667039629353,1.301102911515504,0.07822687923908234,0.971958339214325,0.8805431685226278,1.2609960648089986,0.1404281109571457,0.9128320217132568,0.8035527187209351,1.5973398155477945,0.06567312777042389,0.9599857330322266,0.8909789146743431,1.5199237663421636,0.25417035818099976,0.862186074256897,0.7382846197206512,1.0123955495098425,0.301456093788147,0.6078158020973206,0.9696260163842784,1.0280079286905521,0.09851382672786713,0.9948548674583435,0.006357967853546143,0.814761079658066,1.0248945171834765,178.9550649965379,179.8693619380084,1.0,0.0012685080165335352,0.00043763111754181803,0.038161413911606046,-0.00034833281121047333,93.80424995780255,0.9443800239950427,44,1.4666666666666666
0.8097294425248148,0.5196736296754816,0.2588884234428406,0.9999278783798218,0.7052294620605298,0.6631588499276967,0.09668883681297302,0.9999875426292419,0.9033206585897162,0.6514877691071204,0.014903724193572998,0.9999979734420776,0.7572267586140591,1.0279645553305978,0.015520867891609669,0.9999700784683228,0.8704744510437631,1.0193251104032606,-0.01580389216542244,0.9999846816062927,0.7821859903829222,1.2996868673724018,0.08143764734268188,0.9722751975059509,0.8783826037476172,1.2606730387333402,0.1402570605278015,0.9031082987785339,0.8025440053891043,1.5965851570285001,0.07941906154155731,0.9583839774131775,0.8904312162300814,1.5196736296754816,0.25912755727767944,0.847867488861084,0.7379683555301056,1.0084509702791362,0.29283279180526733,0.551654577255249,0.9683076702511085,1.0271277490695123,0.08109217137098312,0.9947671294212341,0.006569892168045044,0.813850604828911,1.0236448328669292,178.67435960350005,179.21325838912188,1.0,0.0006739151809591476,0.00011194604334869562,-0.00417982994473542,-0.0022917181112634007,93.74943652570244,0.9411860438030962,45,1.5
0.8086511250211972,0.5207674575353742,0.25094395875930786,0.9999260306358337,0.7063246007426991,0.6638835611756864,0.09174418449401855,0.9999862909317017,0.9021228302447891,0.6514512048385089,0.010345473885536194,0.9999980330467224,0.7578065021037284,1.0280685761795514,0.01590561680495739,0.9999681115150452,0.870583132806191,1.0193751812315173,-0.016184482723474503,0.9999842047691345,0.7837345279176083,1.3018711801743454,0.09597858786582947,0.9733471274375916,0.8788262450290878,1.267424472286382,0.14507171511650085,0.9011695981025696,0.8025796938215122,1.5968644439341888,0.11226143687963486,0.9585509896278381,0.8911236489069618,1.5207674575353742,0.2827310860157013,0.8438047766685486,0.7393166915967819,1.0052117909165506,0.3144646883010864,0.5003126263618469,0.96845760245335,1.0277376805849472,0.11416749656200409,0.9948097467422485,0.006998300552368164,0.8141948174549597,1.0237218787055342,178.24572791194845,179.12435209932272,1.0,0.002458842540280476,0.0004342274401653338,0.013332803335186912,0.0024073343141739543,93.63819716886155,0.9382447230087088,46,1.5333333333333334
0.8110445876032785,0.521379813473015,0.2466745376586914,0.9999209046363831,0.7142080346104206,0.664815708928976,0.08981598913669586,0.9999843239784241,0.9038027720241767,0.6518172316415342,0.001831130706705153,0.9999980330467224,0.7624603411656791,1.0296255416894007,0.02015959471464157,0.9999662041664124,0.8735936440645606,1.0207324803201387,-0.020431332290172577,0.9999837875366211,0.7858914041624487,1.3043865916440458,0.10836485773324966,0.9736694693565369,0.8807060354402969,1.2699262572667203,0.1421252191066742,0.8985140919685364,0.804072683325852,1.599683047529506,0.12692776322364807,0.9582251310348511,0.8935332659023546,1.521379813473015,0.2845922112464905,0.8391672968864441,0.7414214303230662,1.0006423479557298,0.29424911737442017,0.4536616802215576,0.9704572974376511,1.0294205121982472,0.09396420419216156,0.9948492646217346,0.007304459810256958,0.8180269926151199,1.0251790110047696,178.64895519545982,178.71461032849436,1.0,0.019106099742523718,-0.0023283389236422604,0.13047774716660096,-0.02166373622691466,92.95945720574257,0.9395967885479745,47,1.5666666666666667
0.8160377526785049,0.5282829041795045,0.2554536461830139,0.999912440776825,0.7209348728593807,0.6715684392438664,0.09750714898109436,0.9999822974205017,0.907926804688231,0.655469798927549,0.006487139966338873,0.9999980330467224,0.7737478961041976,1.034111295295831,0.02128184773027897,0.9999648332595825,0.879958216830389,1.0250730435985627,-0.02153848484158516,0.9999836683273315,0.7906985053879488,1.311728676932505,0.11829312890768051,0.9725843667984009,0.8846200031492871,1.2809090097249283,0.14032676815986633,0.8926809430122375,0.8074860056681843,1.606284153776591,0.1489373743534088,0.9544651508331299,0.8972836626390334,1.5282829041795045,0.27684634923934937,0.8289238810539246,0.7583030230866603,1.005335842396764,0.3083641827106476,0.4104190170764923,0.9767476213802835,1.0346264492298864,0.10909398645162582,0.9945674538612366,0.00900965929031372,0.8268530564672932,1.0295921694471968,179.76791363283445,178.1133661147284,1.0,0.0427206622972401,0.0016480742759567325,0.18371301477907676,0.031112522219046104,93.42417954210927,0.9315007723312067,48,1.6
0.8290450665561475,0.5482311937012745,0.250237375497818,0.9999083876609802,0.7416643889667948,0.6836781243756601,0.08865892142057419,0.9999805092811584,0.9220146383783101,0.6683230478625172,0.010003960691392422,0.9999979734420776,0.7986127253266979,1.0525822898494068,0.01793840155005455,0.9999634623527527,0.9015643269755093,1.0436497051696623,-0.01821316033601761,0.9999832510948181,0.8114797695643605,1.331794500375381,0.08831324428319931,0.9727103114128113,0.9004468617351018,1.3005649506732664,0.15132007002830505,0.8803820610046387,0.8199929871175458,1.629390628096354,0.08015698194503784,0.9530763626098633,0.9134272367485855,1.5482311937012745,0.2678080201148987,0.816066563129425,0.7858380867645496,1.0195458279972975,0.30961382389068604,0.37137436866760254,1.000463217918158,1.051222753099767,0.08524788916110992,0.9937996864318848,0.008463412523269653,0.8500885261511035,1.0481159975095347,179.0000745451629,176.75062073593674,1.0,0.07984727951534473,0.02045327611013182,0.2766977626688868,0.1424832885368164,93.81672781018185,0.9249016504116352,49,1.6333333333333333
0.8391419720965206,0.5592390158315874,0.25141841173171997,0.9998977780342102,0.7549596105173395,0.6919025966418836,0.09437776356935501,0.9999781847000122,0.9345056681496576,0.6758583956997801,0.00919851940125227,0.9999978542327881,0.8097709582592065,1.061060506578105,0.018744822591543198,0.9999616146087646,0.9123385033687417,1.0518208096422568,-0.019014324992895126,0.9999826550483704,0.8220981280530498,1.3420831437593141,0.0890064463019371,0.9716223478317261,0.9109967824634724,1.3107217253188248,0.14626680314540863,0.8661566376686096,0.826307570337637,1.633980237078771,0.0830637663602829,0.9504327774047852,0.9215125963421977,1.5592390158315874,0.25977787375450134,0.8016698956489563,0.8037530479415667,1.0286094302971522,0.2856979966163635,0.33582767844200134,1.0147099994278723,1.0604236468501653,0.054624784737825394,0.9923725128173828,0.00877535343170166,0.8610547308139741,1.0564406581101808,178.31451203297337,177.28009413298076,1.0,0.035141042987288595,0.0017283052250010851,-0.36285273401730245,-0.15117437069693157,93.29784849694957,0.9210853371348245,50,1.6666666666666667
0.8418176532375062,0.5570424700527494,0.24924373626708984,0.9998890161514282,0.7555786131510912,0.6930718266163595,0.08980128169059753,0.9999756813049316,0.9374567103405791,0.6763148795440406,0.011545972898602486,0.9999977946281433,0.8146538883607148,1.059361044082936,0.01688503287732601,0.9999582171440125,0.9159100745795287,1.0492181803186902,-0.017153792083263397,0.9999815821647644,0.8244254103527866,1.337752478132398,0.07803443819284439,0.9697154760360718,0.9122647670099665,1.3086276631232705,0.14287683367729187,0.8473036885261536,0.8249934120292103,1.624260335715593,0.06462746858596802,0.9451786875724792,0.9209876537836931,1.5570424700527494,0.25594592094421387,0.781924843788147,0.802225907230491,1.0113124869845416,0.30505403876304626,0.30370742082595825,1.016350353400296,1.0588204061497593,0.06647327542304993,0.991504967212677,0.009179890155792236,0.8652819814701217,1.0542896122008132,178.10333568892665,177.18384473109927,1.0,0.04246466078507122,-0.003478251013427908,0.05589972426323654,-0.03941659720612632,93.44153898477933,0.9280067465478811,51,1.7
0.8470075960928166,0.556509086362234,0.2395130842924118,0.9998810887336731,0.7606338367947723,0.6931152407060329,0.08548633754253387,0.999971866607666,0.9457174427438898,0.677179238705416,0.010237716138362885,0.9999977350234985,0.8185505583923303,1.057409826128439,0.016335641965270042,0.9999558925628662,0.9190088790972215,1.046821777912481,-0.016603786498308182,0.999981164932251,0.8266377265814321,1.3331040959643803,0.07455173134803772,0.9679616093635559,0.9162603139827094,1.3081485729973783,0.133179172873497,0.8340106010437012,0.8245140281037766,1.6114854989242606,0.058980125933885574,0.9410631656646729,0.9207365858763504,1.556509086362234,0.22409172356128693,0.7700543999671936,0.8065428331836042,1.0051737152627236,0.30638429522514343,0.27422407269477844,1.0208720352608753,1.0582314925935037,0.058648884296417236,0.9906306862831116,0.008736014366149902,0.8687797187447759,1.0521158020204602,177.8826913507826,178.36485431152198,1.0,0.0312911281420317,-0.011254018891851111,-0.08551607062114291,-0.05968142859342075,93.0168497505032,0.9326702544335793,52,1.7333333333333334
0.8542691964828759,0.5543075672208485,0.23993177711963654,0.9998781681060791,0.764490897276557,0.6916046247459614,0.0954810306429863,0.9999706745147705,0.9510005838930943,0.676015270782933,0.005958394147455692,0.9999977350234985,0.8213740371829766,1.0525074427778525,0.023524083197116852,0.9999552965164185,0.9223143183863686,1.0427008396563993,-0.02376909926533699,0.999981164932251,0.830323174541588,1.323271649029281,0.10528236627578735,0.9642950892448425,0.9201666643778477,1.3064725502123906,0.12265628576278687,0.8235161304473877,0.8232329743216769,1.5974407493980451,0.12100432068109512,0.9343358874320984,0.9203007366975425,1.5543075672208486,0.22699689865112305,0.7556797862052917,0.8031876426791384,1.0073534053527857,0.29975712299346924,0.24847997725009918,1.024960086344745,1.0567287124774594,0.04213174059987068,0.9897324442863464,0.008559256792068481,0.8718441777846726,1.047604141217126,176.62560529114504,179.50250716897747,1.0,0.03453199995479966,-0.022544339310144195,0.025747546406358436,-0.08851093870832033,93.40788666153283,0.9343855016625702,53,1.7666666666666666
0.8588867905315964,0.5544151353259431,0.24680857360363007,0.9998732805252075,0.7704885582203638,0.6916730454616423,0.09189359843730927,0.9999706745147705,0.9575639022204724,0.6762970857573433,0.005883124191313982,0.9999976754188538,0.8253894413859114,1.0453705154401234,0.023343892768025398,0.9999555945396423,0.9269455777233201,1.0377347516478743,-0.023592952638864517,0.9999812245368958,0.8329890911065705,1.3104236886586882,0.0999126136302948,0.9573785066604614,0.9239742313880158,1.3049234884020882,0.1239994540810585,0.7977975606918335,0.8234304838063689,1.581046249092057,0.08620713651180267,0.9231003522872925,0.9214181154156852,1.554415135325943,0.21604463458061218,0.7315759658813477,0.7993936094385348,1.0161062785535364,0.2572309076786041,0.22517210245132446,1.0279501734425807,1.0572449307926768,0.018430979922413826,0.9869681596755981,0.008437961339950562,0.8761675095546158,1.0415526335439989,176.3347633680699,179.94984441187086,1.0,0.029895890301306603,-0.050368451973345794,-0.0357016246212849,-0.21340367431600135,94.52319322310264,0.92635920498127,54,1.8
0.8624360151003956,0.5535846609428057,0.17153328657150269,0.9998771548271179,0.7777471397660671,0.6910303465615166,0.015419768169522285,0.9999720454216003,0.9635729966011352,0.6760245795394363,-0.06226517632603645,0.9999976754188538,0.8288268039350933,1.0440976178086294,0.023983072489500046,0.9999577403068542,0.9326617582508863,1.0365317843131028,-0.02422226592898369,0.9999820590019226,0.8333339576755684,1.2978267189702588,0.11351726949214935,0.9544638395309448,0.9248511825992018,1.302651527181825,0.11442480236291885,0.7967841625213623,0.8232235766829349,1.5592717129263545,0.12236249446868896,0.9243015050888062,0.9232154059432495,1.5535846609428057,0.20836272835731506,0.7380676865577698,0.7985403421449739,1.0291025460404895,0.11100566387176514,0.21930012106895447,1.0272769693450676,1.0571345351649906,-0.11175297200679779,0.9874079823493958,0.008237272500991821,0.8807442810929899,1.040314701060866,176.76773442123874,178.69235284220338,1.0,0.03750771960882342,-0.0071805385417244,0.059071193278527195,0.33464738263124316,94.06465738591524,0.943631166476697,55,1.8333333333333333
0.8591262904091052,0.5515231447776017,0.16706831753253937,0.9998838901519775,0.7767511991605321,0.6895021486522898,0.015616603195667267,0.999973714351654,0.9629471058171362,0.6750509970686134,-0.06487525999546051,0.9999977350234985,0.8299923609373914,1.041360005630551,0.025780007243156433,0.9999598860740662,0.9325698713615233,1.033899092095323,-0.026012886315584183,0.9999828934669495,0.8307552377480115,1.295327222408336,0.12343855947256088,0.9502744674682617,0.9237957044075586,1.300090001041912,0.10347040742635727,0.7967728972434998,0.8209838585994828,1.5583455824366685,0.1427384614944458,0.9233946800231934,0.9217102549444359,1.5515231447776017,0.19399815797805786,0.7433655261993408,0.7946898030732124,1.0357801685946915,0.11073444038629532,0.21711032092571259,1.025030974261414,1.0548139450196634,-0.1008560061454773,0.9877123832702637,0.00794878602027893,0.8812811161494574,1.037629548862937,177.7002796273085,178.58731851958046,1.0,0.018071739045667407,-0.004669592474442994,-0.15174431265795663,0.019567184899870825,94.44435553478571,0.9404892123724833,56,1.8666666666666667
0.874738700914119,0.5574609965970697,0.15572509169578552,0.9998939633369446,0.7924086342637336,0.701134749169688,-0.006053551100194454,0.999975860118866,0.9823723462989269,0.6859137449974456,-0.05816638469696045,0.9999977946281433,0.8472166394089425,1.0559254864047312,0.02236853539943695,0.9999623894691467,0.9517615721040521,1.0508954703896127,-0.02258688025176525,0.9999837279319763,0.844608099184495,1.3069022421882548,0.10807677358388901,0.9520547986030579,0.9400045118133615,1.3215341642543676,0.08471198379993439,0.8074889779090881,0.8354668544586344,1.5574609965970698,0.11626414954662323,0.9267867803573608,0.9373407451414643,1.578775980199169,0.1392136663198471,0.7589541077613831,0.8018549472397276,1.0527348087172468,0.04968530312180519,0.2729458212852478,1.0420454597439157,1.0704507034785662,-0.14226596057415009,0.988488495349884,0.008230268955230713,0.8994891057564973,1.053410478397172,178.50606498096752,178.10580897234945,1.0,0.02262976013333859,-0.015944562200292174,0.03196647415268558,-0.08427272356280258,96.02705252301402,0.9644390577875631,57,1.9
0.9138059381945262,0.5786525923100139,0.1225304827094078,0.9999017715454102,0.8284436476944192,0.7271803857220646,-0.04260805621743202,0.9999778866767883,1.0254042305502902,0.71281627345389,-0.08383870124816895,0.9999978542327881,0.8820941562827871,1.0953546517139412,0.02167733572423458,0.9999647736549377,0.9912270739098358,1.090990285277522,-0.02187209576368332,0.9999845027923584,0.8775060187498311,1.3470113249126554,0.12968823313713074,0.9503710865974426,0.9771704250746361,1.3701911253608159,0.0928061380982399,0.8142755031585693,0.8682465093082823,1.5786525923100139,0.15585732460021973,0.9284035563468933,0.9734801769377351,1.6398519550117627,0.15427176654338837,0.7732176780700684,0.8242686480493389,1.0927772483242069,-0.014699493534862995,0.33254602551460266,1.0814238276088997,1.109697068089154,-0.15921416878700256,0.9891818165779114,0.007478088140487671,0.9366606150963115,1.0931724684957316,178.75539224922633,177.90185051641464,1.0,0.019452013338683394,-0.007420662687346206,-0.03245611676414251,0.07321167413177507,96.00069818068368,0.9974895080889778,58,1.9333333333333333
0.949892991323956,0.5938781435579813,0.11680618673563004,0.9999105930328369,0.8583443820724197,0.7464030411959164,-0.06396888941526413,0.9999799132347107,1.0638872440404825,0.7381103609348788,-0.06338733434677124,0.9999979138374329,0.909383827349033,1.1227822385048014,0.00568042928352952,0.9999672770500183,1.0220333687492358,1.1195200031684511,-0.005916068330407143,0.9999852776527405,0.9010093502800807,1.3718646833996375,0.08137813210487366,0.9524210095405579,1.0048339445470529,1.4050874676419292,0.08653388172388077,0.8251896500587463,0.8940094944234497,1.5938781435579814,0.07306857407093048,0.9325584173202515,0.9992460238201472,1.6830919005353167,0.10844182968139648,0.7903814911842346,0.8408050780304528,1.1194265714697553,-0.046123191714286804,0.3976357877254486,1.109489552073746,1.136445478578609,-0.11379987001419067,0.9900505542755127,0.004205793142318726,0.9657085980491343,1.1211511208366263,179.88024513892316,177.70479649903115,1.0,0.031963080224918866,-0.007486535369026332,0.09071042900179266,0.0009888964968110337,96.06379622566833,1.0189737707111917,59,1.9666666666666666
0.9701581144557363,0.6026183247279149,0.0986529067158699,0.999919056892395,0.877102794897399,0.7561124672123022,-0.09181340783834457,0.9999818205833435,1.087466348388235,0.7552327969069315,-0.05659804865717888,0.9999980330467224,0.925095527396636,1.132324818991377,-0.008518906310200691,0.9999698400497437,1.0407497018377823,1.1330935382758045,0.008243680000305176,0.9999861121177673,0.9163521811007141,1.3800239580198101,0.006003660149872303,0.955393373966217,1.0234528017400748,1.4259298683311588,0.07666510343551636,0.8355445265769958,0.908138045510927,1.6026183247279149,-0.040440432727336884,0.9370484352111816,1.014295254214811,1.7094576524303795,0.06774184107780457,0.8069421648979187,0.8504468568781367,1.1366458808075683,-0.08759395033121109,0.45719441771507263,1.1267923081041216,1.147115622602042,-0.10971637070178986,0.990892767906189,0.0004392564296722412,0.9829226146172091,1.1327091786335908,179.90824227179425,178.46957992733755,1.0,0.01625773655437247,-0.04710287986090697,-0.12688804016442212,-0.3092580648314517,97.65067606277903,1.0123405636170844,60,2.0
0.9695993314630902,0.60455833258381,0.13465644419193268,0.9999185800552368,0.8830996987545169,0.7535961992243346,-0.06935184448957443,0.9999834895133972,1.093949365855278,0.7574555305927483,-0.015164367854595184,0.9999977946281433,0.9274371878929193,1.1327407814166297,-0.008878087624907494,0.9999716877937317,1.0429230920694952,1.135072583125639,0.008654283359646797,0.9999862313270569,0.9206080061801074,1.3663865456587376,0.06638409197330475,0.9552159309387207,1.0291432069841637,1.4298671117507311,0.08583734184503555,0.8425450325012207,0.915409000380684,1.60455833258381,0.06967618316411972,0.9387657642364502,1.0183618149223925,1.7163353693404568,0.10104934871196747,0.8178369402885437,0.8409772234973274,1.139273229767078,-0.057446397840976715,0.5100482106208801,1.1241468990734453,1.1454775456675461,0.0013822054024785757,0.9895535111427307,0.0019194483757019043,0.9851801399812072,1.1339066822711343,179.5762905429424,179.47905355923427,1.0,-0.012671790528916295,-0.025228397390992547,-0.21942595642578117,0.16696835491011539,97.82663778358325,1.0051582820227356,61,2.033333333333333
0.9576670961699755,0.5899567911653565,0.1449204832315445,0.9999181032180786,0.8716141956363183,0.7431487665845518,-0.04604746773838997,0.9999849200248718,1.0815994869895096,0.7455896424395322,-0.03779200091958046,0.9999971389770508,0.9165907102042297,1.1188269908971327,0.006976655684411526,0.9999738335609436,1.030661488613166,1.1213394341800942,-0.007096949033439159,0.9999868273735046,0.9103814064030453,1.3429752274206097,0.17452409863471985,0.9509241580963135,1.018798831957961,1.4124459904378095,0.0885583907365799,0.8493824005126953,0.9121971336652648,1.5899567911653565,0.2476680725812912,0.9367231130599976,1.0067411422125958,1.696862769516091,0.12230949103832245,0.8267187476158142,0.8221266225677812,1.1254402241055805,-0.0264987014234066,0.5554552674293518,1.1064374131289618,1.1240507022050292,-0.02035505138337612,0.9767454862594604,0.0012278556823730469,0.9736260994086978,1.1200832125386133,177.99199892662105,179.9059558410513,1.0,-0.003016335268753538,-0.007266343743289761,0.06872887028755442,0.12772121242187853,98.08875836632572,1.0130779648093475,62,2.066666666666667
0.9459920577865225,0.5764621140668157,0.15688736736774445,0.9998907446861267,0.8637046421838193,0.7341590174613157,-0.05488262698054314,0.9999861717224121,1.0692149526599408,0.7349533208349343,-0.00822331104427576,0.9999940991401672,0.9085369361907866,1.1078537075634767,0.0010026998352259398,0.9999756217002869,1.0195992614390643,1.1092528345504216,-0.0011372577864676714,0.9999867677688599,0.9026722036472686,1.328989360424369,0.17004260420799255,0.9478941559791565,1.0088693401710098,1.3964592712845123,0.12461777031421661,0.8513246178627014,0.9064911523966847,1.5764621140668158,0.2473393678665161,0.9362052083015442,0.9956500509204884,1.6781250948424125,0.17504970729351044,0.834586501121521,0.8111230712641933,1.1112842638172284,-0.037571992725133896,0.5953928828239441,1.0846178877565023,1.107840466244421,0.0039039519615471363,0.9104374647140503,0.00040403008460998535,0.9640680988149254,1.108553271056949,177.5967097899206,179.45248903117738,1.0,0.009428221915935913,0.006651426285528747,0.09746721114502692,0.10866776679364147,97.56285578437846,1.026002826993928,63,2.1
0.9512807976834651,0.5810089836374499,0.15720827877521515,0.999875009059906,0.8693350076115706,0.732837882297124,-0.051872529089450836,0.9999873042106628,1.0676819017284753,0.733660935127786,-0.0033935378305613995,0.9999867081642151,0.9087209125713858,1.1069022245194708,0.0014162914594635367,0.9999774694442749,1.0183820790108475,1.1095021396622673,-0.0015568154631182551,0.9999866485595703,0.9053335895398894,1.330098910909477,0.17078152298927307,0.9485089182853699,1.007479175071859,1.3926570131891554,0.13011859357357025,0.8557672500610352,0.9097393394845928,1.58100898363745,0.2590753138065338,0.9382625222206116,0.9946432500273775,1.6759254354638375,0.1909538209438324,0.8437055945396423,0.809515303122772,1.110215272622642,-0.03648517653346062,0.6324126124382019,1.0635757682992149,1.0889172734744916,0.0006520160241052508,0.8228089213371277,0.0004190802574157715,0.9635514957911167,1.1082021820908692,178.12456508877173,179.61058394197508,1.0,0.003592899133841464,0.0060105001135180545,-0.04506225808093941,-0.004905233693586039,97.368778138574,1.0133456930805191,64,2.1333333333333333
0.9528611291805479,0.5903455267696842,0.1576777994632721,0.9998612999916077,0.8750503083793028,0.731081338722457,-0.04684732109308243,0.999988317489624,1.0685170968195492,0.733576083412597,-0.009828118607401848,0.9999805688858032,0.9122651755478918,1.1093470756259998,0.0016689214389771223,0.9999790191650391,1.0210020743433448,1.1116643526912338,-0.0018509045476093888,0.9999862909317017,0.9120277510602782,1.3358801617627951,0.1777430772781372,0.9506354928016663,1.0091214725452369,1.3926368635539463,0.12345501035451889,0.8643092513084412,0.9169939141146953,1.5903455267696842,0.26160895824432373,0.9421555399894714,0.9959804286265125,1.677764156427748,0.1797855943441391,0.8550647497177124,0.8088725841648123,1.1120192879410455,-0.021994374692440033,0.6653756499290466,1.0506061123061783,1.0717523058336855,0.003640843089669943,0.7421635985374451,0.0012685656547546387,0.9666336249456183,1.1105057141586168,178.82190321252327,179.78244420592424,1.0,0.014094144866704223,0.0064284301340123895,0.08271321879891357,0.0032297594449232575,96.83967859532542,0.993684860277833,65,2.1666666666666665
0.9558611795238007,0.5942416523066059,0.14871934056282043,0.9998572468757629,0.8781472601121391,0.7313255957774231,-0.052464794367551804,0.9999892711639404,1.0693572298833673,0.7340997511314143,-0.014300791546702385,0.9999767541885376,0.9152509569215787,1.1115826474698263,0.0027584361378103495,0.9999805092811584,1.0232359725613505,1.1135731265367173,-0.002898204606026411,0.9999862313270569,0.9160899895186966,1.3382806494475081,0.17806120216846466,0.9532507061958313,1.0111240354104276,1.3938986545129335,0.12014533579349518,0.8734477162361145,0.919952310216057,1.5942416523066059,0.2593575417995453,0.9462214112281799,0.9976259011176632,1.6797187218503917,0.177676722407341,0.8663917183876038,0.809682540660912,1.114032883291816,-0.03192787244915962,0.6955896019935608,1.0532655086455345,1.072916822594767,-0.00862393993884325,0.6704781651496887,0.001408398151397705,0.9692434647414646,1.1125778870032719,179.34755818201734,179.77018130730994,1.0,0.007732591587206198,0.002178224744245569,-0.046221984566886753,-0.03084677602340708,96.62901981166291,0.9885616508957538,66,2.2
0.9610201644917556,0.5991635247104509,0.1724192351102829,0.9998400211334229,0.8794995705679604,0.732594420958165,-0.03827063739299774,0.9999900460243225,1.070997392364482,0.7357966999111974,-0.0016087591648101807,0.9999727010726929,0.9173279826007119,1.1134923501832494,0.00281437742523849,0.999981701374054,1.0249957197901851,1.1151023675674863,-0.002986273495480418,0.999985933303833,0.9175849127777903,1.342895721859737,0.17403671145439148,0.9551378488540649,1.0125424258159679,1.3933929082097247,0.11072242259979248,0.8811252117156982,0.9243456452863131,1.5991635247104508,0.2471749484539032,0.9493111371994019,0.9997465974683735,1.6821751367785729,0.14851298928260803,0.8756021857261658,0.8117566663091986,1.1168325600734503,-0.02029985748231411,0.7208518981933594,1.048958309815697,1.0726030589859947,0.026981215924024582,0.605549693107605,0.0016232132911682129,0.9711618511954485,1.1142973588753677,178.55297198946036,179.97486021156914,1.0,0.0031827425149111303,-0.00015302761417945263,-0.03598083481720424,-0.018413876557948093,96.52837488289649,0.9786890412967523,67,2.2333333333333334
0.9655087002509964,0.6024763854200031,0.1699179708957672,0.999820351600647,0.8819365519135617,0.7338985744830445,-0.04172766953706741,0.9999907612800598,1.0736024868678984,0.7383359607253334,0.0005572467343881726,0.9999688267707825,0.9192868004336919,1.1138875937924175,0.003157359780743718,0.9999828934669495,1.026622374072897,1.115949226407813,-0.0033163302578032017,0.999985933303833,0.9224307783941044,1.3468761065860764,0.17989544570446014,0.9567403793334961,1.0142188931126996,1.3955609766065826,0.1108003482222557,0.8881087899208069,0.9296920736621428,1.6024763854200033,0.2703039050102234,0.9521512985229492,1.0015810286456102,1.684909535916534,0.15009978413581848,0.8841686844825745,0.8143129645232295,1.1196224517492401,-0.022083399817347527,0.7428799867630005,1.0431121371376721,1.0682757388866442,0.030103474855422974,0.5466481447219849,0.002245604991912842,0.9729545872532944,1.1149184101001153,179.14584370620372,179.96095987065456,1.0,0.0015576157687945424,-0.009225999621109851,-0.012504414589816656,-0.06958629435734046,96.71410465850812,0.9691183665520282,68,2.2666666666666666
0.9749492032523733,0.6215035218006505,0.15914060175418854,0.9997847676277161,0.89289737550435,0.742817921661834,-0.05799990892410278,0.9999913573265076,1.0850307960306782,0.7509928008613861,-0.003616827307268977,0.9999650716781616,0.9310243227725562,1.1267311118333525,-0.0006754668429493904,0.9999837279319763,1.038352571647501,1.1280496061607068,0.0005366158438846469,0.9999854564666748,0.9365354766200384,1.36535321797292,0.1725798398256302,0.9582881927490234,1.025410938274672,1.4099447890176842,0.11441975831985474,0.8931264877319336,0.946395720508738,1.6215035218006504,0.2594011425971985,0.9549858570098877,1.0134668397664368,1.7015198472637878,0.1608620584011078,0.892076849937439,0.8246956333673506,1.1336431137998397,-0.024685164913535118,0.760945200920105,1.0494127513681268,1.0807580455128856,0.03855699673295021,0.4939667284488678,0.004091382026672363,0.9846884472100286,1.1273903589970298,179.1185991476725,179.71718820533,1.0,0.006311793550692625,0.0002563359748600377,0.03392806178046441,0.06865574823889033,96.3753514084059,0.9472728258540427,69,2.3
0.9839534125510851,0.6387593523184847,0.16958589851856232,0.9997442960739136,0.9017185768715765,0.7524528068083796,-0.04878648370504379,0.9999918341636658,1.0935678185202073,0.7618936708007955,0.002828997327014804,0.9999616742134094,0.941562611659374,1.1384967234552958,-0.00021729091531597078,0.9999842643737793,1.0487929057724212,1.138717485692562,7.802243635524064e-05,0.9999846816062927,0.9484268134083885,1.382322779655226,0.1711963415145874,0.9579364657402039,1.0357633621306743,1.4215863360807304,0.1141619086265564,0.8956177830696106,0.9634421945811593,1.6387593523184847,0.2530398964881897,0.9552242159843445,1.0254706686990427,1.7179384055312068,0.15539483726024628,0.8971118927001953,0.8411237940787598,1.1453470899687324,0.02748088538646698,0.7702731490135193,1.064579270486074,1.0951944813049876,0.06661047041416168,0.44670408964157104,0.004677385091781616,0.9951777587158976,1.1386071045739288,178.2614979025984,179.35185562918346,1.0,0.0035338381493310845,-0.001932744962915704,-0.02143675417989087,-0.01653047254535011,96.01065658559865,0.926316005698639,70,2.3333333333333335
0.9873433348946616,0.6460954862510997,0.22192800045013428,0.9996371865272522,0.9053721472915484,0.7577892315455973,0.0031934219878166914,0.9999920129776001,1.0965632354588841,0.7692672598506379,0.040417928248643875,0.9999555945396423,0.9474303464850331,1.141852146131877,0.00034838676219806075,0.9999845623970032,1.0530123822095545,1.1415787777728452,-0.0004962143721058965,0.9999839067459106,0.9522570556488226,1.3882496905278106,0.16780245304107666,0.9544381499290466,1.0397900753272975,1.4259856375912296,0.11212672293186188,0.8932625651359558,0.97054809268794,1.6460954862510997,0.24261930584907532,0.9506328701972961,1.029748650296577,1.722793974420187,0.14494214951992035,0.897075355052948,0.8509812057743177,1.1506875129670282,0.06979005038738251,0.769889235496521,1.070284599655179,1.0967542188330022,0.0996667891740799,0.405344158411026,0.005663484334945679,1.0002213643472937,1.141715461952361,177.06458530863935,179.2758433315948,1.0,0.007418462797704098,-0.011915090004549076,0.029660818610710047,-0.07644395744235817,96.1011321331164,0.9135040797971405,71,2.3666666666666667
0.9944080141248283,0.6670932281884178,0.2166866809129715,0.9996298551559448,0.9174129350797442,0.7771579763709199,0.005599583964794874,0.999992311000824,1.1061359543493268,0.7852021451688128,0.03639046102762222,0.9999528527259827,0.959648341089897,1.1594153962611664,0.0007149571320042014,0.9999850392341614,1.0666297258879545,1.1568802679863324,-0.0008651601965539157,0.9999833106994629,0.9655291359475545,1.4072153396624412,0.16600972414016724,0.9558718800544739,1.0532768096977134,1.4429532169237655,0.10307841002941132,0.8976890444755554,0.9836194866362182,1.6670932281884179,0.239492729306221,0.952355146408081,1.0436567404239592,1.7413569259705692,0.12439389526844025,0.9025425314903259,0.8661141424763638,1.166539024686312,0.04141325503587723,0.783785343170166,1.0817812401119804,1.090876580560413,0.06667225062847137,0.36744388937950134,0.003916323184967041,1.0131390334889256,1.1581478321237493,177.3774987935334,179.1740536692946,1.0,-0.0044180682721370905,0.007935854487754291,-0.09181603956221351,0.1539292777768927,94.94752537627058,0.8998903862814333,72,2.4
0.9840991067262913,0.6579884835542865,0.1868143379688263,0.9996194243431091,0.9071231665231273,0.7775573050981042,-0.00537192914634943,0.9999925494194031,1.093709930284939,0.7800916784117197,0.009584088809788227,0.9999488592147827,0.9535702930761237,1.1535844845921552,0.003916407003998756,0.9999855756759644,1.0594198167162658,1.1510821487782505,-0.004048825707286596,0.9999832510948181,0.959953612623993,1.3983141940741588,0.17090854048728943,0.954413652420044,1.046005849584548,1.4302106313336493,0.1037258729338646,0.8983603715896606,0.9776904495360653,1.6579884835542864,0.24770256876945496,0.9509801864624023,1.0383940807369356,1.726379774714251,0.1352686733007431,0.9050609469413757,0.8645421012945342,1.1622773667855182,0.011317036114633083,0.7887704968452454,1.0777726750581365,1.0911697098230873,0.03725532442331314,0.3352687954902649,0.001240074634552002,1.0064950548961948,1.152333316685203,177.5866436225462,178.72089644001494,1.0,-0.01209977019811576,-0.00012240702423334612,-0.05931973739148737,-0.06174298548196486,95.6872967353901,0.9166383978807129,73,2.433333333333333
0.9925600761884601,0.679034843954371,0.17385117709636688,0.9995874166488647,0.9162003602184854,0.7946856026611555,-0.009182005189359188,0.9999927282333374,1.1038292812669324,0.7912487384563033,-0.00356490770354867,0.9999430775642395,0.9648699803173216,1.1717226510557153,0.007803285028785467,0.9999861717224121,1.0715431600652578,1.1687456428673353,-0.007927360013127327,0.9999832510948181,0.9738387800943552,1.4183324648950195,0.16985401511192322,0.9533266425132751,1.0607163268298967,1.4459793449345482,0.08814926445484161,0.9003450870513916,0.9917180166369205,1.679034843954371,0.24349074065685272,0.9504551887512207,1.0542252965570522,1.740041131085055,0.11056872457265854,0.9085436463356018,0.8771558146499567,1.180344796801509,-0.005119542591273785,0.7971155643463135,1.093843023777734,1.1106237497394067,0.001607565558515489,0.3062685430049896,0.0016567111015319824,1.0182065701912897,1.1702341469615252,178.15957660538353,179.0280833896422,1.0,-0.02536955102007558,0.0039992799439014905,-0.09626917025113087,0.030331848711000416,95.7567395254826,0.9120040451949597,74,2.466666666666667
0.992565237382352,0.6928577922183671,0.1562148481607437,0.9995401501655579,0.9237231604008775,0.8023733961100883,-0.02528364583849907,0.999992847442627,1.1133301665423017,0.7978889529554328,-0.009051637724041939,0.9999364018440247,0.968417717415876,1.1825729488700103,0.008316733874380589,0.9999868869781494,1.0768468869431267,1.179580449896888,-0.008447770960628986,0.9999834895133972,0.9804704500397742,1.4316004023026767,0.1688503473997116,0.9531142711639404,1.069360148686517,1.4517210269662468,0.07958313822746277,0.9039489030838013,1.000649913872061,1.692857792218367,0.24134798347949982,0.9517984986305237,1.0642881249891198,1.7318486312156203,0.0969880148768425,0.9138997793197632,0.8847417431581059,1.1914167941463325,-0.016909420490264893,0.8111822009086609,1.105207740638941,1.1221423147903014,-0.00886315293610096,0.2816680371761322,0.00214192271232605,1.0226323021795014,1.1810766993834492,178.35416431316514,179.46144963794853,1.0,-0.037671890770652014,0.000333909027250966,-0.09147712625743724,-0.0280632056679479,95.12377868538076,0.9205340621730512,75,2.5
0.9814042678686652,0.6877449980539184,0.14111188054084778,0.9995288252830505,0.9168199240937969,0.7998325194127629,-0.03352890908718109,0.9999929666519165,1.106734661645235,0.7954170881829085,-0.02857532538473606,0.999934196472168,0.9588626896185487,1.178999263058046,0.013432763516902924,0.9999876618385315,1.0673528369466008,1.1759065577259067,-0.013572335243225098,0.999984085559845,0.9771999602137188,1.4293493991282475,0.14069746434688568,0.9529843330383301,1.0653441149427905,1.4443303398448846,0.03667149692773819,0.9094136953353882,1.0009522954650172,1.6877449980539183,0.18354104459285736,0.9535572528839111,1.062153374621242,1.7165287178758903,0.03469289466738701,0.9196203351020813,0.8805095928419031,1.1877136778653603,-0.03224789351224899,0.8236944675445557,1.1023779518811179,1.1199936451430723,-0.07253288477659225,0.26333126425743103,0.0021154284477233887,1.0131077632825747,1.1774529103919764,178.93722980083774,179.75716224119049,1.0,-0.0514858590572411,-0.00010061991531765464,-0.11209539149105513,-0.0034886715884426935,94.69434793967302,0.9347115965687556,76,2.533333333333333
0.9822931635130031,0.6860935288517306,0.1490890085697174,0.999495804309845,0.914241089509231,0.7991500698602509,-0.03291159123182297,0.999993085861206,1.1031596617727417,0.7957953113910547,-0.02272207848727703,0.9999308586120605,0.956476746782781,1.1772698119334457,0.013267782516777515,0.9999881982803345,1.0647739921774912,1.1741128966012364,-0.01341232843697071,0.9999842643737793,0.975968769615768,1.4278827590517895,0.1228242963552475,0.9538371562957764,1.063619865787292,1.4392844640072755,0.021886948496103287,0.9143617153167725,1.001339480057797,1.6860935288517307,0.14758530259132385,0.9554646611213684,1.0618279686816303,1.7093602297267019,0.007238964084535837,0.9246573448181152,0.8786990421881848,1.186323869463794,-0.0188152976334095,0.8343631029129028,1.1007841771222995,1.1199529650311013,-0.04728988930583,0.24617259204387665,0.00160902738571167,1.0106253694801361,1.175691354267341,178.83573186327882,179.86923108249795,1.0,-0.009975311670315316,-0.003414963413026238,0.3017574317068191,-0.02412699095988957,94.70374546670136,0.9386721347925637,77,2.566666666666667
0.9884962838964848,0.6888482147666979,0.15572476387023926,0.9994939565658569,0.9152870510762845,0.8034889114340849,-0.022431397810578346,0.9999933242797852,1.1072873575487403,0.8001210891171155,-0.02061113342642784,0.9999316930770874,0.9589936229481375,1.182704579425924,0.013494270853698254,0.9999887347221375,1.067211834336389,1.17700384177972,-0.013633303344249725,0.9999845623970032,0.9806582383408291,1.4319573028374075,0.13413508236408234,0.9554346799850464,1.0694170111461232,1.4350041540016591,0.02807895839214325,0.9200384616851807,1.0062625621522265,1.6888482147666979,0.16707730293273926,0.957904040813446,1.0686830771084448,1.6987452002751253,0.018938709050416946,0.9297221302986145,0.8809016414649733,1.192624312889879,-0.02590133622288704,0.8485683798789978,1.1092181840157116,1.1206994021412326,-0.06430630385875702,0.25852471590042114,0.0016060471534729004,1.0131027286422634,1.179854210602822,179.27569189319638,179.35085291020144,1.0,-0.02588003229249189,-0.0201845613126477,-0.12276378445901091,-0.1297562801211255,93.55917639452711,0.9554929053589963,78,2.6
0.9941164695160223,0.694352621552412,0.1554538905620575,0.9995117783546448,0.9173962811492291,0.8105167886727725,-0.02021244540810585,0.999993622303009,1.1151924476744022,0.8045816206189635,-0.02796710655093193,0.9999364614486694,0.962519951237489,1.1889968472079617,0.01575193926692009,0.99998939037323,1.0718945660442312,1.1810199460359023,-0.015910828486084938,0.99998539686203,0.9867780709931468,1.4409617071796714,0.10430041700601578,0.9571706652641296,1.0790249641484577,1.4400401751642204,-0.022199595347046852,0.9263963103294373,1.0147780546002676,1.694352621552412,0.0905470997095108,0.9606029987335205,1.0802844416758692,1.697747460758757,-0.06125665456056595,0.9351810216903687,0.88506384868868,1.2012820492612328,-0.02317025512456894,0.8620684146881104,1.1272371787980804,1.1387567072884317,-0.10376955568790436,0.314644992351532,0.0028054416179656982,1.01720725864086,1.185008396621932,179.19358161370837,178.7031563161734,1.0,-0.03702293467133378,-0.040287518331091766,-0.08253788271382384,-0.15068776032583447,92.62759762075498,0.9594801624690577,79,2.6333333333333333
1.003545104587545,0.7051216039444589,0.14929527044296265,0.9995506405830383,0.9260594212820582,0.8257044233209087,-0.019247181713581085,0.9999939203262329,1.1288305260144427,0.8191151870017493,-0.03262994438409805,0.9999416470527649,0.9747887494967019,1.2098146804546883,0.0161677785217762,0.999989926815033,1.0859086342254778,1.201636442907985,-0.016329186037182808,0.9999861717224121,1.0017604609514752,1.4642972168680704,0.11040468513965607,0.9595435261726379,1.0977979196091874,1.4632035437318833,0.010889410972595215,0.9317138195037842,1.0320488564637076,1.715333367928898,0.11282138526439667,0.9630756974220276,1.0989774188249177,1.7051216039444588,0.007906944490969181,0.939225435256958,0.8962047746112858,1.2178134401459633,-0.006071727257221937,0.8746703267097473,1.1502268778415856,1.1744257269895502,-0.09296257793903351,0.3756769299507141,0.0030614137649536133,1.0303486918610898,1.2057255616813367,179.1703096997003,177.67681576433617,1.0,-0.033715164308558115,0.0009451133177477039,0.029386648825387246,0.31188071529081984,93.02080018686055,0.9912856610918366,80,2.6666666666666665
1.0296234773889767,0.7204333874599405,0.1398262083530426,0.9995870590209961,0.9446298560557725,0.847895395259883,-0.019302763044834137,0.9999942183494568,1.1572791908472497,0.8401388785350378,-0.040415700525045395,0.9999468326568604,0.9965768578191915,1.2393655165897646,0.015977852046489716,0.9999904036521912,1.1106407373921732,1.2305311173599025,-0.016111742705106735,0.9999868869781494,1.0253553074330533,1.5023693741879447,0.05500049144029617,0.9616175889968872,1.128792089281991,1.4884071703465587,-0.005968934390693903,0.9354986548423767,1.058182626405279,1.7555329317055304,0.01723058894276619,0.9649428725242615,1.1278088225163352,1.7204333874599405,-0.024712353944778442,0.9416124224662781,0.9166955130624003,1.244351989763077,-0.005339331459254026,0.8859416246414185,1.18129474467469,1.2125410991230148,-0.11072903871536255,0.43606001138687134,0.0035132765769958496,1.0536087976056823,1.2349483169748334,178.8563552977741,175.73090826634075,1.0,-0.025622938328948682,-0.014289571882962501,0.07019159205624696,-0.11953236424304563,93.13003831811385,1.0208036316699511,81,2.7
1.0441741673218219,0.7227915955462068,0.125138521194458,0.9996227622032166,0.952964274195986,0.8562056400143885,-0.0338381752371788,0.9999945163726807,1.1695067353940247,0.8483887499970937,-0.054020125418901443,0.9999515414237976,1.0037416087821687,1.2506039551113233,0.015175473876297474,0.9999908208847046,1.118195312310574,1.2423215976686106,-0.015329365618526936,0.9999874234199524,1.0344449216255023,1.5169245271174467,0.05682676285505295,0.964307963848114,1.140730924022922,1.493988083316477,0.0013545106630772352,0.9388360977172852,1.067277480563729,1.7738329186508155,0.025723133236169815,0.9673356413841248,1.1385884585734323,1.7227915955462068,0.004893678706139326,0.9434934258460999,0.9222488048607368,1.2479709785344917,-0.023999767377972603,0.8965471982955933,1.1957569193190902,1.2227410099254767,-0.13722243905067444,0.49139001965522766,0.0035069286823272705,1.0609684605463712,1.246462776389967,179.29357949361534,174.34657651071007,1.0,-0.02144009742457395,-0.0027205066463175417,0.034366146213810504,0.09083327028772699,93.19731241712259,1.0403834366446665,82,2.7333333333333334
1.0743643675184527,0.7430595945943823,0.09893984347581863,0.9996546506881714,0.980043173193522,0.8816318437103892,-0.04061261564493179,0.9999947547912598,1.1976421204140435,0.8739161876115216,-0.08815520256757736,0.9999558329582214,1.0317586563427867,1.2824126988724054,0.02109212428331375,0.999991238117218,1.1460117459556125,1.276678722820461,-0.02125491388142109,0.9999880194664001,1.0650435314560287,1.5596962671642405,0.07738535851240158,0.9659308791160583,1.1726138812001528,1.5194022883582172,-0.010586647316813469,0.9414586424827576,1.0966012329284842,1.8229381309680677,0.06030232459306717,0.969322144985199,1.1685171887110357,1.7430595945943823,0.010832597501575947,0.9452555179595947,0.9470166295961169,1.2754612450472513,-0.042877666652202606,0.905792772769928,1.232761272239683,1.2614284202781907,-0.19598284363746643,0.5414972305297852,0.003366410732269287,1.0888852011491996,1.2795457108464332,179.9910697699107,172.69607292442194,1.0,-0.016989670124532244,-0.01760137390042839,0.04179003950766286,-0.12235897743088867,94.47956507777305,1.0620096942410069,83,2.7666666666666666
1.0881486225006591,0.7560971698703317,0.10090938955545425,0.9996856451034546,0.9902998776961536,0.8955980637355444,-0.038142960518598557,0.9999949336051941,1.2049825598654693,0.8888950941262705,-0.08612882345914841,0.9999598264694214,1.0446387958583265,1.2947799170103258,0.0208234004676342,0.9999914169311523,1.1594899525264781,1.2908457350723819,-0.02101084403693676,0.9999883770942688,1.0780854938099877,1.5779341605114436,0.0573575496673584,0.9682033658027649,1.1864207134817268,1.5287210832962113,-0.005469354800879955,0.9440523982048035,1.10940682116095,1.8457583650612572,0.02437051385641098,0.9713281989097595,1.1815411390534947,1.7560971698703316,0.016897765919566154,0.9464796185493469,0.958733735299088,1.283328212860531,-0.034775108098983765,0.9140595197677612,1.2506286085941694,1.2847719442786578,-0.1703251302242279,0.587083637714386,0.0028901994228363037,1.1020643741924023,1.2928128260413538,179.9336233258616,172.311432756262,1.0,0.0017107341276595927,-0.014401851665892453,0.13976226795697974,0.025204390693669185,95.78990532015025,1.052802977316936,84,2.8
1.1119170769219218,0.777950552122796,0.12404364347457886,0.9997043609619141,1.005635359604499,0.9118215333328609,0.0038236784748733044,0.9999945163726807,1.2229506422913565,0.9074823555564568,-0.07432819157838821,0.9999633431434631,1.0609299487119825,1.3109112308415491,0.019826440140604973,0.9999909996986389,1.1769250303503165,1.307252843239256,-0.020012015476822853,0.9999884366989136,1.0928113764234264,1.5960268855281003,0.0302295982837677,0.9691545367240906,1.2032763535862212,1.5410312209868622,0.0024427089374512434,0.9384438991546631,1.1262474223896044,1.8735970105297932,-0.03478078916668892,0.9718939661979675,1.197779369391261,1.777950552122796,0.012969879433512688,0.9421490430831909,0.9970297002607591,1.294910626817449,0.05721154063940048,0.9006761312484741,1.2731013430764966,1.3103396253212123,-0.11901545524597168,0.6276749968528748,0.0018429160118103027,1.1189274895311494,1.3090820370404026,179.51152551158532,172.23967469253571,1.0,0.000645409131847274,-0.026301773481930198,-0.00840720036183516,-0.0899799444544608,96.08175058980925,1.024475689790716,85,2.8333333333333335
1.1140422110173922,0.7835462562826739,0.11543114483356476,0.9997288584709167,1.0084427238918938,0.9159967574021607,-0.006307623349130154,0.9999943375587463,1.220720360536822,0.9112920087066579,-0.0706486627459526,0.9999666213989258,1.0635948066393224,1.3141681932714337,0.019313275814056396,0.9999902248382568,1.1801511772983269,1.310067194520637,-0.019507985562086105,0.9999881386756897,1.094134497202883,1.5993845899806483,0.05325771123170853,0.9704481363296509,1.2041646017152687,1.5400387482987228,0.037218596786260605,0.9355305433273315,1.1282087094287596,1.8786141220663537,0.022550959140062332,0.9727994203567505,1.1994984620727238,1.783546256282674,0.07363852113485336,0.9395853281021118,1.0102797130946506,1.2949622640461176,0.029179459437727928,0.9018679261207581,1.2778129525707125,1.3172795625263767,-0.12298034131526947,0.6645927429199219,0.0019937455654144287,1.1218729919688246,1.3121176938960353,179.15431732236874,172.94104992449246,1.0,0.0034348653410012416,0.0009339704635760859,0.02095442756152841,0.20514020117234788,95.87095285096821,1.0153063017614647,86,2.8666666666666667
1.0993542610457046,0.774705753924935,0.156806081533432,0.9997318983078003,0.9961636521587298,0.9056493691886582,0.028146948665380478,0.9999929070472717,1.1968536395823377,0.9001997843372911,-0.03988964110612869,0.999969482421875,1.0501226340497523,1.2954770652605239,0.019055377691984177,0.999986469745636,1.1650753827083145,1.2892466087392949,-0.01924533024430275,0.9999863505363464,1.0794281537687052,1.5772607005165606,0.09303463995456696,0.9705736637115479,1.185561535699479,1.5221220833034341,0.10353722423315048,0.9253408908843994,1.1130283288749439,1.8525947188591334,0.0949423611164093,0.9723209738731384,1.1812899206067538,1.774705753924935,0.173805832862854,0.930901288986206,1.0062475285467167,1.2751302644123634,0.12170420587062836,0.8426323533058167,1.260598223204658,1.300322605762933,-0.05355410650372505,0.6972214579582214,0.002340257167816162,1.1075990083790335,1.2923618369999095,178.979776542439,174.00373255681816,1.0,0.004034651107980955,-0.01882783804732477,0.0049618537164082864,-0.15190647247200656,94.77826008712034,0.9903059907334638,87,2.9
1.091756663067247,0.7637430360468297,0.16072075068950653,0.9997449517250061,0.9903391874501726,0.8997682857897275,0.02384260669350624,0.9999921917915344,1.189949204004929,0.8943389679974686,-0.03391444683074951,0.9999721050262451,1.0433235753614991,1.2851621782362606,0.018400568515062332,0.9999836087226868,1.1571829303015042,1.2761318097452576,-0.01859295181930065,0.9999849200248718,1.0711392745144488,1.566556372843803,0.10796161741018295,0.9707167148590088,1.1762616686772827,1.5118540645032426,0.11772260814905167,0.9162424802780151,1.1052119259035589,1.838845899332551,0.12287620455026627,0.97208172082901,1.172815075739097,1.7637430360468298,0.20414943993091583,0.9223425388336182,1.0010289602442541,1.2666749420921246,0.11061457544565201,0.8076093196868896,1.2524328475759678,1.2926526559256606,-0.0523846335709095,0.7268701791763306,0.002347618341445923,1.1002532528315017,1.2806469939907592,178.51275406968196,174.58878881114777,1.0,0.0018175482429307918,-0.02235195343239966,-0.017044431596452626,-0.02843694052546502,93.29328743892282,0.9901994287278085,88,2.933333333333333
1.0905088517962067,0.7621034669698517,0.17158731818199158,0.999737024307251,0.9930359444952986,0.8979886730742654,0.05183326452970505,0.9999901056289673,1.188735066865265,0.8931973852770602,-0.029619162902235985,0.9999744892120361,1.0413839813515915,1.2826435372542713,0.0214308463037014,0.9999797940254211,1.1551950892395582,1.27419419078711,-0.021627221256494522,0.9999836683273315,1.06910496429888,1.5635484338510688,0.12372859567403793,0.9696686863899231,1.1728519739573298,1.513698459106931,0.10869810730218887,0.9084833264350891,1.1025730574740602,1.8355633219806347,0.1434323787689209,0.9701778888702393,1.1705260820518697,1.7621034669698517,0.19039729237556458,0.913106381893158,1.0190768949687006,1.2613166245896137,0.17536573112010956,0.7377071380615234,1.2498894045690583,1.2911098058026091,-0.011649412102997303,0.7532113790512085,0.002075791358947754,1.0982895352955748,1.2784188640206906,178.62167250845584,175.24716986442593,1.0,0.0014136314472369513,0.00208377029861429,-0.0030495311229619595,0.1857907394531865,92.91819680113835,0.989560926321673,89,2.966666666666667
1.083955427347631,0.7573623774469834,0.195693239569664,0.9997261166572571,0.9875058811157535,0.8929547019558911,0.0780145674943924,0.9999881982803345,1.1791144614012485,0.8871231239830482,-0.011453446000814438,0.999976634979248,1.0352018409866641,1.2740533275405925,0.02356342412531376,0.9999756217002869,1.1485068820592619,1.265556897303497,-0.023754306137561798,0.9999822378158569,1.0641958356674892,1.5543856115208263,0.12914487719535828,0.9693263173103333,1.1647586928890754,1.5072197640223886,0.11084853112697601,0.9043532609939575,1.095980903100067,1.8247207679402149,0.15627485513687134,0.9683449268341064,1.16361094797945,1.7573623774469835,0.20205596089363098,0.9057348370552063,1.0192355646941194,1.2550015551923013,0.2045583426952362,0.6728585362434387,1.242614443384402,1.2825087327004943,0.027778495103120804,0.7768744826316833,0.002541780471801758,1.091854361522963,1.2698051124220446,179.19909818110946,175.88976386571423,1.0,0.0013083966422069461,-0.007025996288700784,-0.0007362755172875822,-0.06924448946268728,92.84527019158337,0.9806469837191923,90,3.0
1.091733641624215,0.7670523050376159,0.19346806406974792,0.9997143745422363,0.9921297212193152,0.9032843145336344,0.08543337881565094,0.9999855160713196,1.1833414390205033,0.8913528117117563,-0.012763626873493195,0.9999785423278809,1.0404493023613652,1.2800714124778123,0.02676692232489586,0.9999696612358093,1.1537088327260938,1.2716233630633453,-0.026950571686029434,0.999980092048645,1.0713188502563595,1.5615977271103638,0.13285306096076965,0.9672487378120422,1.1697921646855818,1.5157096460425012,0.1101704090833664,0.8947727680206299,1.1010597155590727,1.8323588648740734,0.16371873021125793,0.9637585282325745,1.1742435607871584,1.767052305037616,0.20986171066761017,0.8900781869888306,1.0296761571898818,1.2618013309813103,0.2217520922422409,0.6105079054832458,1.2480972242829902,1.2882059503986898,0.04076002910733223,0.7978302836418152,0.005176514387130737,1.0970790675437294,1.275847387770579,179.98918447614034,177.2447454834833,1.0,0.0012795272377388754,0.0012173717310051443,-0.0002785310386642392,0.06597723036674154,93.04198228473199,0.9683950739995053,91,3.033333333333333
1.0983612698077014,0.7781240248841783,0.1937972903251648,0.9997236132621765,0.9983053242922063,0.9137768682744005,0.08471380174160004,0.9999842643737793,1.1877398115406719,0.897679073163534,-0.013795156963169575,0.9999803900718689,1.0485269120736227,1.2861032929067375,0.026556536555290222,0.9999664425849915,1.160539578774154,1.2779315847508903,-0.026742875576019287,0.9999791979789734,1.0787936087345498,1.5697675824937187,0.12455566227436066,0.9665449857711792,1.1761515221568777,1.5250205692205674,0.10848993062973022,0.887514591217041,1.1075488434759202,1.8430293926473287,0.1467624306678772,0.9601999521255493,1.182685018454418,1.7781240248841783,0.2052289992570877,0.8761258125305176,1.0409555037912677,1.2682468942291112,0.21033234894275665,0.5550301671028137,1.255517993618963,1.2962211724231112,0.019413618370890617,0.816988468170166,0.006941735744476318,1.1045332454238883,1.282017438828814,179.91674508094565,177.86333735476046,1.0,0.0058342923694928075,-0.012311909753112199,0.03475009650409117,-0.1034541022353102,93.50949595468323,0.9506031434552581,92,3.066666666666667
1.099965791967982,0.7882429838840619,0.2013557255268097,0.99973064661026,1.0025652554639177,0.922928193663257,0.09106551110744476,0.9999831318855286,1.1934878453935727,0.9051723515836306,-0.0015405480517074466,0.9999820590019226,1.05589085903099,1.29065447667262,0.025898823514580727,0.9999640583992004,1.1652804434138089,1.2829810530522863,-0.02608465775847435,0.9999786019325256,1.085829964570748,1.5725156156543727,0.1243799701333046,0.9651093482971191,1.1809321792806182,1.531849134946176,0.1089494451880455,0.8796955943107605,1.1119345093124948,1.8469967013187787,0.1560210883617401,0.9551266431808472,1.1891501559136874,1.7882429838840619,0.2100292146205902,0.860426664352417,1.0545865824025002,1.268999057717901,0.22098354995250702,0.5051799416542053,1.259879182504361,1.3009550493969533,0.0349324531853199,0.8337733745574951,0.007626235485076904,1.1105856512223995,1.2868177648624533,179.36959341027597,178.23713592559346,1.0,0.012461360913099878,-0.0024734125440419538,0.05027756510719163,0.07528007076152761,94.23860285599781,0.9368440535535668,93,3.1
1.1015581269168826,0.78659201978317,0.2022162228822708,0.9997404217720032,1.0107075935981804,0.9228413561136845,0.09408803284168243,0.9999819397926331,1.1921030813107347,0.9076512917031061,0.00038255841354839504,0.999983549118042,1.0578385185456134,1.2884538967236066,0.026881873607635498,0.9999626278877258,1.163721719920947,1.281117924230282,-0.027064833790063858,0.9999784231185913,1.0872660946085098,1.5665010679675142,0.12434697151184082,0.9620379209518433,1.1789126849268605,1.5335832000452236,0.10780952870845795,0.8690304160118103,1.1107360939767075,1.8423999729544294,0.15498313307762146,0.9482711553573608,1.1870996507352738,1.78659201978317,0.20749974250793457,0.8416380882263184,1.0653922965568994,1.2669709570474217,0.21890655159950256,0.45871299505233765,1.2573061835707025,1.2971571114887146,0.033311743289232254,0.8477686643600464,0.006534665822982788,1.1107801192332802,1.2847859104769441,178.82079472412087,178.40998939245412,1.0,0.015714791818702813,0.00020171967694132323,0.026113300309425023,0.021309433963993523,93.38213412772623,0.9382313593044406,94,3.1333333333333333
1.1032623129323966,0.7858146487046357,0.1925976276397705,0.99974524974823,1.0186798565649053,0.9204319485572391,0.08582807332277298,0.9999806880950928,1.192956691719672,0.9102772650616808,-0.007456276565790176,0.9999849200248718,1.0626703443902956,1.286672249370355,0.02811240218579769,0.9999615550041199,1.1637159670858397,1.2791071049172056,-0.028295299038290977,0.9999784827232361,1.089965629578481,1.5643865831418948,0.12898008525371552,0.9574616551399231,1.1767329619645805,1.5453701183156945,0.1044890284538269,0.857894241809845,1.109496447320081,1.8379715697079952,0.167673259973526,0.9405688047409058,1.183887979647753,1.7858146487046358,0.20650894939899445,0.8243180513381958,1.075139097295072,1.2655299031519867,0.2081318348646164,0.41599130630493164,1.2551231957188576,1.2948263718290907,0.0139323053881526,0.860672116279602,0.004375755786895752,1.1131931557380677,1.2828896771437803,178.4700173647562,178.90564128993398,1.0,0.03386382297282528,0.0019124742723038073,0.14446285024752978,0.01360036692717831,92.56753016854663,0.937948911214248,95,3.1666666666666665
1.1157687450030382,0.8005490348526142,0.19497761130332947,0.9997217059135437,1.0267007517438298,0.9324997092803566,0.08541393280029297,0.999978244304657,1.2071135541166598,0.9221241552746862,-0.009606944397091866,0.9999860525131226,1.0760602064346505,1.2969096711061485,0.028750082477927208,0.9999597072601318,1.1765478346057605,1.289137905407497,-0.028940225020051003,0.999978244304657,1.1003883512473336,1.5744714967864673,0.1286640763282776,0.9509871602058411,1.1861800665880446,1.5575500797701238,0.10175933688879013,0.845713198184967,1.118375949440159,1.8513302968352134,0.16118177771568298,0.9306187033653259,1.1921474184235104,1.8005490348526143,0.19209149479866028,0.8083590269088745,1.0780068428571787,1.2768978415356245,0.19155406951904297,0.3765740692615509,1.265123068527012,1.309302136210728,0.008010203950107098,0.8706970810890198,0.004435300827026367,1.1263040205202055,1.2930237882568227,178.7081562299697,179.3515031305078,1.0,0.03168597432745631,-0.0013058622746034262,-0.01862364336378818,-0.024582049638667617,93.2913054386465,0.9229592970026249,96,3.2
1.1229105651313493,0.8034986548413497,0.2089366614818573,0.9996955990791321,1.0394281613531515,0.9366907184820876,0.09601627290248871,0.9999743700027466,1.2138354868109125,0.9262701185774834,0.007763104047626257,0.999987006187439,1.0859307418829485,1.2974304698919112,0.028705257922410965,0.9999566674232483,1.1857298858893954,1.29016146231092,-0.028897438198328018,0.9999773502349854,1.1042081626904234,1.5688248996103904,0.09660039842128754,0.9509984254837036,1.188328492586168,1.5511342452000945,0.09789751470088959,0.8403408527374268,1.1190772154427255,1.8494148179488679,0.08096282184123993,0.9295191168785095,1.1934545151000742,1.8034986548413496,0.15228582918643951,0.8016477227210999,1.079411960542385,1.278857746523896,0.23747548460960388,0.3403998613357544,1.2714187183715324,1.3105614182563288,0.04471985995769501,0.8805160522460938,0.004449576139450073,1.1358303138861718,1.2937959661014158,179.1805441204042,179.40686623427789,1.0,0.060216263178971684,-0.004918954705836321,0.2075909794996222,-0.026311516951753416,93.17956931590113,0.92010679817559,97,3.2333333333333334
1.1246714658473305,0.8016910869647198,0.21457159519195557,0.999667227268219,1.0419246000309077,0.9366486125219845,0.09773771464824677,0.9999714493751526,1.214489888798356,0.9258462388019563,0.008620050735771656,0.9999878406524658,1.0870701156098657,1.2951839062824897,0.0283779539167881,0.9999537467956543,1.1889531526069326,1.2883288566833737,-0.028570014983415604,0.9999765157699585,1.1022591020820482,1.5645249963386805,0.09533396363258362,0.9485079646110535,1.1873441935167495,1.548722455672243,0.09295584261417389,0.8310769200325012,1.1154093208794333,1.8435954024840928,0.08558166027069092,0.9254106283187866,1.1918150113889516,1.8016910869647198,0.14373239874839783,0.7909427285194397,1.076371882990294,1.2792498996753154,0.2204838991165161,0.30799317359924316,1.2727205175603573,1.3086879538790155,0.03587708622217178,0.8891573548316956,0.004618465900421143,1.1380116341083992,1.2917563814829316,179.4701984093345,178.6334704476938,1.0,0.02740817043664088,-0.002980890148038556,-0.24743115603868127,0.014603350034835427,93.32745496805987,0.9230462671933178,98,3.2666666666666666
1.126067039417636,0.8061067986515231,0.22110947966575623,0.9996523857116699,1.0455517260967204,0.9378527903605238,0.10103219747543335,0.999968945980072,1.2198983143479452,0.9305407497561338,0.01933702453970909,0.9999886751174927,1.0917981767515383,1.2943985273488317,0.026765897870063782,0.9999521374702454,1.1955357920792737,1.2862728422227636,-0.02695838175714016,0.9999762773513794,1.1069648040926354,1.5662207773578625,0.0892757922410965,0.9488373398780823,1.190904481347208,1.5531573285266005,0.09102536737918854,0.8289839625358582,1.11671519304546,1.8450292608090177,0.0804411768913269,0.924382746219635,1.1953422501878999,1.8061067986515231,0.14419880509376526,0.7877436876296997,1.0750912494121252,1.2802973586003554,0.24220988154411316,0.27881425619125366,1.2810293242516304,1.3110294353460734,0.06398674845695496,0.8972119688987732,0.003118842840194702,1.143666984415406,1.2903356847857976,178.8093399628464,178.00073300271785,1.0,0.022651965362391925,-0.03408639822477238,-0.03677030824460909,-0.23719729475290133,92.91161044994496,0.9050598806092447,99,3.3
1.1239583669933082,0.8042017838350185,0.22600877285003662,0.9996601343154907,1.0475777973768494,0.9364361252379287,0.10207147896289825,0.9999678134918213,1.2234474007217722,0.928773341062536,0.03471717983484268,0.9999895095825195,1.0938297610547152,1.286504378070793,0.022642280906438828,0.999950647354126,1.1968989017083134,1.2802084651379437,-0.022830551490187645,0.9999759793281555,1.107770800852548,1.5591005882536453,0.0709863230586052,0.9481533169746399,1.1916241815260844,1.549927022266287,0.08574487268924713,0.8220697045326233,1.1121019366998681,1.8393348065439248,0.05197123810648918,0.9209413528442383,1.194085596638774,1.8042017838350184,0.13387879729270935,0.7773205637931824,1.072093262982328,1.2800660899868184,0.25731104612350464,0.2525758147239685,1.2842357277460485,1.3077862527439494,0.0988750010728836,0.9039056301116943,0.003272145986557007,1.1453643313815143,1.2833564216043682,177.95780524725782,178.32503063537706,1.0,0.022773238242808372,-0.04204727644471374,0.0011186546834731585,-0.06092544579375749,94.03094720285799,0.8907326710219234,100,3.3333333333333335
1.1284436818863361,0.8038188285330955,0.16872569918632507,0.9996845722198486,1.0523129271024707,0.9361028775044761,0.05151401087641716,0.9999693632125854,1.231160519652812,0.9314603633761701,-0.005126378033310175,0.9999903440475464,1.0988290802835914,1.2834915235049742,0.02033025026321411,0.9999521374702454,1.2019412335336688,1.2788291179725675,-0.02054276317358017,0.9999767541885376,1.1096189456062227,1.5489559211370736,0.046883948147296906,0.9499899744987488,1.1937522565402063,1.5436791852927565,0.05844765156507492,0.8271318674087524,1.1118689076904147,1.826207895044856,0.00782258715480566,0.9239081144332886,1.1939786695749528,1.8038188285330954,0.07865314185619354,0.7854992747306824,1.0629881202253215,1.2802388252709052,0.1741330921649933,0.24118414521217346,1.2906210215010723,1.3077900252216024,-0.01373030710965395,0.912460207939148,0.001982361078262329,1.15038515690863,1.281160320738771,178.1374381115617,178.17915170270962,1.0,0.03884563337848322,-0.017521716446773212,0.1254342566043337,0.19142837613277167,95.03770278676198,0.8950740585897183,101,3.3666666666666667
1.1247690516705982,0.7995573200246197,0.12127415090799332,0.999714195728302,1.0521616680081212,0.933562494604011,0.014161732979118824,0.999971866607666,1.2316743858320127,0.9286797163728928,-0.04733327776193619,0.9999911785125732,1.0997639689970842,1.2723334066723666,0.020624469965696335,0.999955415725708,1.2010505120271373,1.2706648972464443,-0.02083401195704937,0.999978244304657,1.1071930274074466,1.5277810579201978,0.04172573983669281,0.9519477486610413,1.193458808064323,1.5351697334451058,0.022180162370204926,0.8380669355392456,1.1084164199597286,1.8002375627675367,0.008889340795576572,0.9273496866226196,1.190879734197063,1.7995573200246195,0.028521796688437462,0.7987753748893738,1.051035751386247,1.2771893790226228,0.0905965119600296,0.288164883852005,1.2889318866048576,1.303244973723274,-0.08378034830093384,0.920830249786377,0.0020900070667266846,1.1504072405121106,1.2714991519594054,178.59143410422018,178.91486927897694,1.0,0.02184170351821359,-0.05114209219046619,-0.1317546140236723,-0.2622836547298779,97.05477572213056,0.89446757635868,102,3.4
1.155388932523509,0.8171776330503561,0.11325743049383163,0.99974125623703,1.0816175246884396,0.9543558384047012,-0.010903146117925644,0.999974250793457,1.2637277860277818,0.949570053069094,-0.030170748010277748,0.9999918937683105,1.1276411579959054,1.3006748489053406,0.00498915882781148,0.9999588131904602,1.2316428868664635,1.2999194645854164,-0.005217042285948992,0.9999796748161316,1.1315163820593235,1.5539298990253607,-0.024524373933672905,0.9561123847961426,1.2207686839812826,1.5706233799846503,0.03944959118962288,0.8504005670547485,1.1331269479868211,1.817177633050356,-0.08674798905849457,0.9334295392036438,1.217395507185903,1.8400041627285177,0.02440422959625721,0.8157831430435181,1.0677701883435344,1.3051755499777271,0.04326488822698593,0.35308951139450073,1.3200638531803943,1.3281857294434316,-0.07173532247543335,0.9285166263580322,0.002003699541091919,1.1796420224311843,1.3002971567453785,179.4738823142668,178.41707794234645,1.0,0.02687562363455621,0.0028622093309926336,0.03472261397287217,0.4212509905376607,97.15375300561881,0.9156063200261474,103,3.433333333333333
1.201006083081437,0.8444458272890955,0.10915853828191757,0.9997576475143433,1.1196762030112486,0.9862047548069669,-0.009001677855849266,0.999975860118866,1.306781590841446,0.9801599788189945,-0.054341040551662445,0.9999924898147583,1.1652983598223097,1.3417679681909203,0.006091507617384195,0.9999604821205139,1.271408196368115,1.3405134280412325,-0.006220296956598759,0.9999804496765137,1.1661774038357111,1.5964253824527581,0.08058424293994904,0.951130747795105,1.2608364794679858,1.6196712130293711,0.0514395646750927,0.8529033064842224,1.1679972795792917,1.8444458272890956,0.08382409811019897,0.9309180974960327,1.2544641258461688,1.8979890666561778,0.07465635985136032,0.8225187063217163,1.0992784779733393,1.3426337300466769,0.032821476459503174,0.38330507278442383,1.360784935890474,1.3638200189854135,-0.09496096521615982,0.9352341890335083,0.0024549365043640137,1.2183532780952124,1.3411406981160763,179.77737055380274,179.14285536892157,1.0,0.01708507221698129,0.004973765057775401,-0.08056104246017799,0.015345046847816395,96.6342674207028,0.9375067642070726,104,3.466666666666667
1.2455513578904698,0.8756725718167144,0.11537859588861465,0.9997690916061401,1.1598545739051647,1.0214465901113803,-0.021796658635139465,0.9999776482582092,1.355845519559005,1.0145571599745398,-0.03848040848970413,0.9999929666519165,1.2040896580035922,1.3866925604779412,0.006752279587090015,0.9999626278877258,1.3134096188294266,1.3850177383368532,-0.006921197287738323,0.9999812245368958,1.2041369470993406,1.6362759200514179,0.07244302332401276,0.9491033554077148,1.3019442866246658,1.6670806736058867,0.05437975004315376,0.8548465967178345,1.2050320296472317,1.8756725718167144,0.06920109689235687,0.9315052032470703,1.2949589899716045,1.9587064643814969,0.06968476623296738,0.8316431045532227,1.130003483781621,1.3866507278163176,-0.0014670217642560601,0.4312728941440582,1.4057433970894926,1.403914279116764,-0.05928429216146469,0.9411644339561462,0.002709299325942993,1.2587496384165096,1.3858551494073972,179.79663318663196,179.04445515875986,1.0,0.004008728126413089,0.006312718882708268,-0.10493587432978689,0.009051518548413828,96.02775919740205,0.9603774978507225,105,3.5
1.2608026920093955,0.8824207158249109,0.11950544267892838,0.9997708797454834,1.1686357382424115,1.0290360188382615,-0.02982049249112606,0.9999794363975525,1.370458083799179,1.0229610499508728,-0.033670566976070404,0.9999932050704956,1.2164456356996738,1.3982835079674634,0.004425951279699802,0.999964714050293,1.3267798342162733,1.3962302856403126,-0.004595265723764896,0.9999817609786987,1.2139302779647865,1.6394118790413459,0.0803348571062088,0.9494080543518066,1.3132565500686788,1.6806959754658108,0.05773847550153732,0.8616777062416077,1.2143713343157498,1.8824207158249109,0.08098779618740082,0.9344307780265808,1.30311217762313,1.9732887109049368,0.06960384547710419,0.8429110050201416,1.1349581263773465,1.3976607593119215,-0.022188063710927963,0.48214390873908997,1.4156731188182898,1.4072347752502852,-0.053465716540813446,0.9460986256599426,0.0023705661296844482,1.2716127349579736,1.397256896803888,179.29834368707537,179.26393602496992,1.0,0.02350923662085917,0.004747462260898874,0.14908062069637296,-0.012361554717296688,96.31146973416334,0.9702183426435179,106,3.533333333333333
1.2786935508746824,0.895152331644229,0.10641495138406754,0.9997763633728027,1.1863595092272365,1.0398383932560262,-0.058104507625103,0.9999812245368958,1.3912425197719311,1.0368937009571024,-0.010336491279304028,0.9999934434890747,1.2356122196527488,1.415998457851673,-0.01243616547435522,0.9999663829803467,1.3478662704812705,1.41425293910116,0.012223055586218834,0.9999818205833435,1.2298622072516414,1.6503729657250414,0.017801174893975258,0.9512764811515808,1.3309286405840228,1.7023424666619151,0.0597539059817791,0.8657152652740479,1.2301527143180284,1.895152331644229,-0.020223509520292282,0.9378394484519958,1.320247359724902,1.9986002419241318,0.035301677882671356,0.8534422516822815,1.1445332242500192,1.4172601592929024,-0.05555906891822815,0.531147837638855,1.4340307901892808,1.4227835080825426,-0.013497360050678253,0.9505575299263,0.001134037971496582,1.2917392450670098,1.4151256984764167,178.5266201940401,178.70013425925657,1.0,0.025592223171465877,-0.005147364455793925,0.013877241834513351,-0.07801479469297352,96.56875449130058,0.9776821232723981,107,3.566666666666667
1.284098018712906,0.8995719806491858,0.0762900710105896,0.9997931122779846,1.1920131716409281,1.0414808752473446,-0.08192778378725052,0.9999829530715942,1.3945321175930279,1.0406635456243298,-0.0266546793282032,0.9999938011169434,1.2401555316499489,1.419876785929638,-0.011763423681259155,0.9999686479568481,1.3514655514809792,1.4184879774475383,0.011567341163754463,0.9999825954437256,1.233446320177472,1.6571649899199634,0.026181206107139587,0.9541040062904358,1.3345266821803052,1.7060508001557675,0.06060994416475296,0.8730295896530151,1.2336401759881719,1.8995719806491858,0.008214524015784264,0.9424659013748169,1.3239696889599815,2.000967106130081,0.05156251788139343,0.8654454350471497,1.1468103889951984,1.4213900718818588,-0.09303147345781326,0.5769264101982117,1.4378802324965974,1.421953014256085,-0.026895005255937576,0.9550238847732544,0.00031387805938720703,1.2958105415654642,1.419182381688588,178.3346003757467,178.6790084726144,1.0,0.0033022699253978886,0.00048761984132208357,-0.17346989350982742,0.043824891493082066,96.5358047876306,0.9781324789871332,108,3.6
