nose_x,nose_y,nose_z,nose_visibility,left_shoulder_x,left_shoulder_y,left_shoulder_z,left_shoulder_visibility,right_shoulder_x,right_shoulder_y,right_shoulder_z,right_shoulder_visibility,left_hip_x,left_hip_y,left_hip_z,left_hip_visibility,right_hip_x,right_hip_y,right_hip_z,right_hip_visibility,left_knee_x,left_knee_y,left_knee_z,left_knee_visibility,right_knee_x,right_knee_y,right_knee_z,right_knee_visibility,left_ankle_x,left_ankle_y,left_ankle_z,left_ankle_visibility,right_ankle_x,right_ankle_y,right_ankle_z,right_ankle_visibility,left_wrist_x,left_wrist_y,left_wrist_z,left_wrist_visibility,right_wrist_x,right_wrist_y,right_wrist_z,right_wrist_visibility,trunk_lateral_inclination,center_mass_x,center_mass_y,left_knee_angle,right_knee_angle,person_height,center_mass_velocity_x,center_mass_velocity_y,center_mass_acceleration_x,center_mass_acceleration_y,body_orientation,torso_leg_ratio,frame,timestamp
0.9027795873324491,0.5459452055709785,-0.5018838047981262,0.9998964667320251,0.9894865430378915,0.6799006359610295,-0.2201855480670929,0.9999704360961914,0.8225198243674076,0.6809904889806472,-0.22378608584403992,0.999997615814209,0.9557056650753721,1.0284630143728752,0.006105190608650446,0.9999584555625916,0.852129873687516,1.027810015690231,-0.0063042244873940945,0.9999869465827942,0.9509663021945165,1.3029376032142146,0.0019170017912983894,0.14231422543525696,0.8536780729857429,1.3221150965856765,0.003214424941688776,0.7904488444328308,0.9524178434339892,1.5459452055709786,0.1948433518409729,0.22061318159103394,0.8562820499971604,1.5495230013886243,0.20216956734657288,0.7686251401901245,1.048044400346989,1.0467035481747997,-0.26424306631088257,0.1966182291507721,0.7737317248897843,1.0372930843831534,-0.30053049325942993,0.9971774220466614,0.000583350658416748,0.9039177693814441,1.0281365150315531,178.66853294042727,179.64535567852528,1.0,-0.6996549600371494,-0.0035820957022550527,-4.268400143017352,-0.0279927443784568,95.1743062057668,0.9280080641728139,0,0.0
0.9129024393562785,0.5649530770905529,-0.5112285017967224,0.9999067187309265,1.00376165702052,0.7054110460474989,-0.22677426040172577,0.9999732375144958,0.8257180180343633,0.7000869173757642,-0.21365845203399658,0.9999974966049194,0.9664765408131792,1.0469259711159897,-0.0034892093390226364,0.9999621510505676,0.8583573920024675,1.0464837300651342,0.003300835145637393,0.9999878406524658,0.9551000598726346,1.3252858691510787,0.005837010219693184,0.22742164134979248,0.8599302393091061,1.3390437614529094,0.0048968605697155,0.8104864954948425,0.9633284649019359,1.5649530770905529,0.20481041073799133,0.2981616258621216,0.8621594743908413,1.5713240697062612,0.19110842049121857,0.7913792133331299,1.057384518388156,1.0624905882032767,-0.22882306575775146,0.27636849880218506,0.7705719764319539,1.0493966244534354,-0.2698892056941986,0.9970787763595581,0.0027985572814941406,0.9124169664078233,1.0467048505905618,175.69329978507466,179.75816705438226,1.0,-0.062243769083750594,-0.0019147541336257826,5.0317739037665365,0.013410240201722162,95.99627128526039,0.9238952998973261,1,0.03333333333333333
0.9144863002161463,0.5641512243394109,-0.4978298246860504,0.9999160170555115,1.0047509914965722,0.7064944609071326,-0.20660996437072754,0.9999758005142212,0.8252382866889238,0.7029148985160061,-0.22240249812602997,0.9999974966049194,0.9629464248432503,1.0485357391828436,0.0075422427617013454,0.9999653697013855,0.8540665775085271,1.0462476461347867,-0.007724964525550604,0.9999885559082031,0.9614416326926661,1.3252783095698544,0.019718218594789505,0.3036530613899231,0.8586286746415879,1.3363955240046106,-0.01920582912862301,0.8283623456954956,0.9660813327431875,1.564151224339411,0.22170206904411316,0.36753255128860474,0.8566373019726651,1.5748392935044029,0.14375270903110504,0.81166011095047,1.0552367454245382,1.0613303355655819,-0.2172560691833496,0.3483370542526245,0.7667083597714429,1.0450999637493252,-0.2923058569431305,0.9971234798431396,0.001877814531326294,0.9085065011758887,1.0473916926588152,178.57572321299372,178.62069566820747,1.0,-0.04462106713613372,-0.0108718370102219,0.1383139453292207,-0.06978068689872446,95.76429308228339,0.9256180528146195,2,0.06666666666666667
0.9062198378546491,0.5609029282070437,-0.4683300852775574,0.9999242424964905,0.9998170875766562,0.7089301016313523,-0.19023673236370087,0.9999779462814331,0.8170346283230884,0.703191068618548,-0.19869576394557953,0.9999973177909851,0.9589661178236887,1.047119033062638,0.0050655934028327465,0.9999681115150452,0.8486017449505412,1.0433065265644335,-0.005259823054075241,0.9999890327453613,0.9589870706399851,1.321026479602943,0.016646482050418854,0.3719120919704437,0.8530076691837983,1.3323995550301369,-0.01204258669167757,0.8440001606941223,0.9650024543109683,1.5609029282070437,0.22671958804130554,0.42974168062210083,0.8545132706077744,1.57112257941174,0.16723504662513733,0.8296980261802673,1.0457708042778175,1.0579972822498387,-0.20432908833026886,0.41275861859321594,0.763351814094835,1.0420882052406504,-0.28700321912765503,0.9971348643302917,0.0030202865600585938,0.903783931387115,1.0452127798135358,178.56787723117276,179.4882046522875,1.0,-0.013801711801443316,0.008765790169315543,0.23181956130719933,0.1481349342010778,94.90909884886044,0.9298816736587288,3,0.1
0.9030135098909702,0.5607265021919018,-0.4537636339664459,0.9999316334724426,0.9949439325549888,0.7074782883420428,-0.17666614055633545,0.9999799132347107,0.8131380128077537,0.7039481955071587,-0.1939692497253418,0.9999971389770508,0.9562806661715684,1.046771056735296,0.007688203360885382,0.9999703168869019,0.8476172538160115,1.042420408126778,-0.007894272916018963,0.9999892115592957,0.9580021189722702,1.3197844410223345,0.007150766905397177,0.43300503492355347,0.850892744087195,1.3310308586228174,-0.01725415699183941,0.857416570186615,0.9640625652419069,1.5607265021919017,0.20600774884223938,0.48541685938835144,0.8528591245541768,1.5675961319873268,0.16032730042934418,0.845481812953949,1.0394317134990165,1.0548212503294274,-0.19455012679100037,0.4709644317626953,0.7587789509989643,1.0404617788934023,-0.27598196268081665,0.9971449971199036,0.0018594563007354736,0.90194895999379,1.0445957324310369,178.92040260217965,179.82601177579525,1.0,-0.007730572507719983,0.002434819252645827,0.045791106124821075,-0.04778907846665168,94.20818181634108,0.9312214821221682,4,0.13333333333333333
0.8965757554366411,0.5619983740896852,-0.5102831125259399,0.9999383091926575,0.9945708453256153,0.7092337746213866,-0.22990179061889648,0.999981701374054,0.8090665473509725,0.7041784060972825,-0.22340074181556702,0.999997079372406,0.9526188268322866,1.0473092803294797,0.005442262627184391,0.999972403049469,0.8411716811732639,1.0419648686305563,-0.005615605972707272,0.9999895095825195,0.9553345646444268,1.319813819060218,0.017422614619135857,0.48764902353286743,0.8495381960705639,1.3274730669331947,-0.013501462526619434,0.869386613368988,0.9637296102428841,1.5619983740896852,0.2251318395137787,0.5354461073875427,0.851680998909663,1.566758246066089,0.1713515818119049,0.8596605658531189,1.0354552268669084,1.0555174045485296,-0.22800584137439728,0.5230673551559448,0.7547337895943438,1.0413451183998623,-0.2922495901584625,0.9970922470092773,0.002661466598510742,0.8968952540027753,1.044637074480018,178.58568534636734,178.8345592689782,1.0,-0.04443740999020668,-0.004142622559442128,-0.2946693408595494,-0.052817709685232674,94.32821457564121,0.9284094668179964,5,0.16666666666666666
0.896350259177876,0.565423808087581,-0.5163583159446716,0.9999443888664246,0.9928359722093578,0.7111414769842311,-0.22859200835227966,0.9999833703041077,0.8078792209574802,0.7069889861115505,-0.2304859459400177,0.999997079372406,0.951646120390263,1.0491899317784383,0.00818044226616621,0.9999743700027466,0.8406039451871886,1.0433759561686504,-0.00837890338152647,0.9999898076057434,0.9570910790871164,1.3190269334075533,-0.005032140761613846,0.5369452834129333,0.8522127584105105,1.329422670257038,-0.019637349992990494,0.8797426819801331,0.9660926384646806,1.5654238080875809,0.18373802304267883,0.5804994106292725,0.854364391651086,1.5709915452648537,0.14659525454044342,0.8724310398101807,1.035249520002585,1.058156622521878,-0.2351239174604416,0.570196270942688,0.7528675334342783,1.043721235151513,-0.31029313802719116,0.9970638155937195,0.002179175615310669,0.8961250327887258,1.0462829439735444,179.0637543666261,178.18631987491642,1.0,-0.026091512617176203,-0.012133122107085705,0.13272672422347034,-0.05727002873137898,93.94984627905615,0.9209794833657262,6,0.2
0.8959183458713762,0.5673079739791173,-0.5017601251602173,0.9999498128890991,0.9859612030264222,0.7132622261204818,-0.2172117531299591,0.999984860420227,0.8039603549274352,0.7090598416028673,-0.23445646464824677,0.9999970197677612,0.9473295262732933,1.0497055970267049,0.007361822761595249,0.9999762773513794,0.8363702500981912,1.0442606991441368,-0.007571497466415167,0.9999901652336121,0.9551919897591052,1.318375620254151,-0.008235192857682705,0.5819865465164185,0.85157602217685,1.3294431129498914,-0.019469261169433594,0.8898174166679382,0.9659931645838186,1.5673079739791171,0.1747092753648758,0.6215875744819641,0.857539904308724,1.5715147952318749,0.14814653992652893,0.884295642375946,1.0334942218634913,1.0566307717729222,-0.2274269312620163,0.6125850677490234,0.7508716335916594,1.0462601877819708,-0.30696386098861694,0.99703449010849,0.0022017955780029297,0.8918498881857422,1.0469831480854208,179.1917419806439,178.35921181343392,1.0,-0.03930482063784803,-0.006818185164120551,-0.09041742428184933,0.03662102981363013,93.74091189309571,0.9175278744765865,7,0.23333333333333334
0.8928115419325393,0.5685022608158964,-0.4573187232017517,0.9999547004699707,0.9769808353224592,0.7122495746853251,-0.18265584111213684,0.9999861121177673,0.7999776746065946,0.7098258698966649,-0.1985427588224411,0.9999968409538269,0.9446289279521322,1.0498403597824766,0.006176277529448271,0.9999779462814331,0.8359098946211846,1.04462313609421,-0.006406208034604788,0.9999904632568359,0.9531440969873349,1.3185644749282532,-0.007637208793312311,0.6228735446929932,0.850953761971025,1.3302735862034987,-0.018180349841713905,0.8992952108383179,0.9655469795347147,1.5685022608158965,0.1559169441461563,0.6588577628135681,0.8599351812584125,1.5740169288383206,0.14204230904579163,0.8951414227485657,1.026912340059664,1.0473250548832589,-0.21197080612182617,0.6508343815803528,0.7474361925577698,1.0468102736408222,-0.2658374309539795,0.9970422387123108,0.0012695789337158203,0.8902694112866584,1.0472317479383433,178.9740386546769,179.09555744575695,1.0,-0.013613894756508505,3.464866797698853e-05,0.1956415252529712,0.05217919140944899,92.72662695487618,0.9127280675600693,8,0.26666666666666666
0.889641739601967,0.5702689979001583,-0.46339482069015503,0.9999591112136841,0.9764996011354468,0.712073677018538,-0.18419311940670013,0.9999873042106628,0.7980556599036744,0.7100171820767557,-0.2023676633834839,0.9999967813491821,0.9417632120145237,1.0510727192309675,0.006867791526019573,0.9999794960021973,0.8323606316556339,1.0459149633873384,-0.007092203013598919,0.9999907612800598,0.951797909385834,1.3203764962404774,-0.0011481201509013772,0.6597395539283752,0.8473340724882569,1.3322183163273589,-0.019399354234337807,0.9080943465232849,0.9649593289164412,1.5702689979001583,0.1667337715625763,0.6924599409103394,0.859430619070254,1.5759660539351457,0.14148634672164917,0.9050009250640869,1.0247403108380941,1.0473291739018125,-0.21113808453083038,0.6853265762329102,0.7453158263929572,1.0485531369892547,-0.2642938494682312,0.9970410466194153,0.0010759830474853516,0.8870619218350788,1.048493841309153,179.1190597352001,179.8473082260448,1.0,-0.03363248263056896,0.00040009069330000044,-0.15875756542657862,0.0029001048319868116,93.15134117272099,0.9105235510589933,9,0.3
0.891789942676356,0.5717608809909493,-0.45296424627304077,0.9999630451202393,0.9743561485931254,0.71246277876213,-0.17375478148460388,0.999988317489624,0.7972832788754722,0.7106953938586227,-0.20396776497364044,0.9999966621398926,0.9409929367349903,1.052736908237791,0.010638883337378502,0.9999807476997375,0.8317539013493023,1.047570627231121,-0.01085655763745308,0.9999908804893494,0.9505730596099957,1.3223871150202275,0.005869945511221886,0.692798376083374,0.8495231243696162,1.3346815746701297,-0.021283207461237907,0.9156505465507507,0.965131567614052,1.5717608809909493,0.17161312699317932,0.7226681113243103,0.860819750811506,1.5785884490467337,0.14645260572433472,0.9136728048324585,1.0237679728909714,1.0478196719796593,-0.19596485793590546,0.7162775993347168,0.7439076159207474,1.0507011984380115,-0.2752189040184021,0.9970537424087524,0.0009233951568603516,0.8863734190421463,1.050153767734456,178.6935958384011,179.1102736714813,1.0,-0.014742093178392705,0.0011953570725842897,0.1425546154095312,0.005981835525511856,92.89214779699606,0.9100758744372079,10,0.3333333333333333
0.88960041575932,0.5723031299740624,-0.44714170694351196,0.9999666213989258,0.9719324203825984,0.7127471718448446,-0.16921094059944153,0.9999892115592957,0.7963006007943711,0.7111388565670885,-0.1979321539402008,0.999996542930603,0.9405120903707832,1.05378486522109,0.01194184273481369,0.9999819397926331,0.8299372746764171,1.0490161030797172,-0.012153875082731247,0.9999910593032837,0.9517954772013829,1.3231784736067116,0.012952973134815693,0.722648561000824,0.8511727689064832,1.336035746074607,-0.022173885256052017,0.9228394627571106,0.9658149070522467,1.5723031299740624,0.18055769801139832,0.7499291300773621,0.863217490440065,1.5803081641242118,0.14520378410816193,0.9216746687889099,1.0222645579282696,1.0472401502822402,-0.18989689648151398,0.7441971898078918,0.7439857042194695,1.0537925162523034,-0.2721747159957886,0.9970706701278687,0.0008394718170166016,0.8852246825236002,1.0514004841504034,179.17748792583336,178.59149842269667,1.0,-0.015000173579614412,0.001694224501085919,-0.001819659320388677,0.0037152848251924358,92.79442274470716,0.911348130855575,11,0.36666666666666664
0.8864896134678588,0.5718496899241887,-0.4379124045372009,0.9999697208404541,0.9684842550856623,0.7120767504278748,-0.15924206376075745,0.9999899864196777,0.7923403699537401,0.7112547946469152,-0.1895821988582611,0.9999963641166687,0.9389973406742127,1.0540188037726281,0.01267529558390379,0.9999828338623047,0.8282939568240026,1.0495727416880514,-0.012889658100903034,0.9999910593032837,0.9517203873004949,1.32298689334737,0.010779330506920815,0.749274730682373,0.8487357042543847,1.3358587014685603,-0.0241960771381855,0.9290561676025391,0.9662722412991366,1.5718496899241887,0.18346023559570312,0.7742645144462585,0.8634287846300035,1.580477970797308,0.1424706131219864,0.9287046790122986,1.019483874105533,1.0468371513737833,-0.18613603711128235,0.769329845905304,0.7444489299961286,1.0563304866190577,-0.26390087604522705,0.9970986247062683,0.0004291236400604248,0.8836456487491077,1.0517957727303398,179.36178540385444,179.35317358129166,1.0,-0.011215559435291117,0.005171941915756008,0.030794019469357368,0.02832565972101349,92.6287586636824,0.9136810596201846,12,0.4
0.8831471224710019,0.5720412990661046,-0.445434033870697,0.9999726414680481,0.9673771996518487,0.711759617577051,-0.16257308423519135,0.9999907612800598,0.7902370687514336,0.7113256273134587,-0.19670021533966064,0.9999963045120239,0.9386693317314933,1.054205052806716,0.013046830892562866,0.9999836683273315,0.8295645676693124,1.0497978993775134,-0.01325487345457077,0.9999911189079285,0.9512762293793254,1.3232325458215963,0.011788605712354183,0.7733204960823059,0.8497187398274612,1.3362793138957607,-0.024450412020087242,0.9348825216293335,0.9662699022100392,1.5720412990661046,0.18648086488246918,0.7962172627449036,0.8639856702146693,1.5812546577454132,0.14013272523880005,0.9351280331611633,1.0146865913221814,1.0472027494955904,-0.18426774442195892,0.7919624447822571,0.747294126082792,1.0607433370620034,-0.2642168402671814,0.9971002340316772,0.00022655725479125977,0.8841169497004029,1.0520014760921146,179.2343963023362,179.30887104502776,1.0,0.0028774504511926346,0.0008567353369201735,0.10188250517914503,-0.03119693631861249,92.47887664535315,0.9132304586658672,13,0.43333333333333335
0.881816790593903,0.5721559614658813,-0.46095919609069824,0.9999752640724182,0.9647668946077814,0.711958074326866,-0.1711856871843338,0.9999914169311523,0.7877682169667181,0.7119533330511417,-0.19768139719963074,0.9999962449073792,0.9373510675325036,1.0546000171257164,0.013128705322742462,0.9999845623970032,0.8289215191481561,1.0503875935780733,-0.01333222258836031,0.9999912977218628,0.9523422958867948,1.3224783253722745,0.014600654132664204,0.7952069640159607,0.8497179540744039,1.3371422343301838,-0.021052129566669464,0.9401943683624268,0.966486778095786,1.5721559614658813,0.19195935130119324,0.8161377310752869,0.8650409574817817,1.582620585351046,0.15665459632873535,0.9410417079925537,1.0104072144622391,1.0467918786174006,-0.18784590065479279,0.8123230934143066,0.7508137999913972,1.0652285863280917,-0.26967164874076843,0.9971172213554382,2.473592758178711e-06,0.8831362933403298,1.0524938053518949,179.9606966768574,179.4238002254663,1.0,-0.011641176178622188,-0.0011468837431557592,-0.11118537355338579,-0.015346101984464084,92.3498760658991,0.9133504488197033,14,0.4666666666666667
0.8793513356316044,0.5718796435787555,-0.4425579011440277,0.9999775290489197,0.9609543311436135,0.7120344085009452,-0.15449240803718567,0.9999919533729553,0.7851765172455426,0.711961304885823,-0.1926138550043106,0.9999960064888,0.9352580677549435,1.0546625428612777,0.01380690187215805,0.9999852180480957,0.8282403719968835,1.0518875753209962,-0.014010300859808922,0.999991238117218,0.9525180026219069,1.3215844020644003,0.016706716269254684,0.8149951100349426,0.8493023801965962,1.337660572376177,-0.01974770426750183,0.9450240135192871,0.9664114017880916,1.5718796435787554,0.19930186867713928,0.8341407775878906,0.8651782580253777,1.5825733317783586,0.16342195868492126,0.9463898539543152,1.0077162008005531,1.0464900155882038,-0.18275660276412964,0.8307149410247803,0.7548304070375023,1.0702751905634198,-0.27478718757629395,0.9971097111701965,3.814697265625e-05,0.8817492198759135,1.053275059091137,179.47735726004666,179.4936857623655,1.0,-0.009396245038153528,0.007742109541025225,0.01744828610473458,0.06915899686034635,92.80366651098943,0.9168532143618194,15,0.5
0.879743015096545,0.572521924139666,-0.46883517503738403,0.999979555606842,0.9597441291103062,0.7129211127853724,-0.1733267605304718,0.9999924302101135,0.7827607971694901,0.7128285833056116,-0.22238239645957947,0.9999958276748657,0.9357916894916535,1.0560599975329286,0.014172743074595928,0.9999858736991882,0.8287075741898566,1.0533585713494076,-0.014376280829310417,0.999991238117218,0.9537238797942551,1.3220836243465535,0.021966176107525826,0.832754909992218,0.8505203410734986,1.3396276254596522,-0.01757296361029148,0.9491302371025085,0.9672649801253197,1.572521924139666,0.21186700463294983,0.8503008484840393,0.8663676443281173,1.5841646260713875,0.17624862492084503,0.9510969519615173,1.0083892441856974,1.0478942995378273,-0.1866576075553894,0.8469764590263367,0.7585904157415864,1.0808810018849593,-0.30458205938339233,0.997002363204956,4.8220157623291016e-05,0.882249631840755,1.054709284441168,179.23857154330955,179.35055604578685,1.0,-0.005175061153314108,0.000345866884599727,0.033038002016578825,-0.05779846561390871,92.54789081253178,0.9188572786170641,16,0.5333333333333333
0.878111886823986,0.5726428841800597,-0.4602375626564026,0.9999812841415405,0.9566580488068815,0.7138659308712739,-0.16692854464054108,0.9999927282333374,0.7803503874376382,0.7129016121510107,-0.2247282713651657,0.9999956488609314,0.9337559939615117,1.0568426420594188,0.018780458718538284,0.9999864101409912,0.8281517121576111,1.056219667000041,-0.018978513777256012,0.999991238117218,0.9539388530418307,1.3224790472302261,0.03298060595989227,0.8487105965614319,0.848796883706251,1.340616132171377,-0.016573389992117882,0.9527267813682556,0.967425016212108,1.5726428841800597,0.24661147594451904,0.8647699952125549,0.8662154768464558,1.5828684375279902,0.20297196507453918,0.95517498254776,1.0065841348636908,1.0511338294789374,-0.1830323487520218,0.861442506313324,0.7601094747688809,1.0848618776440835,-0.3297670781612396,0.9969801902770996,0.000502467155456543,0.8809538530595614,1.05653115452973,178.7408464904012,179.96065791975113,1.0,-0.011101601117125553,0.013071881655205413,-0.04630959986582944,0.09945215717075379,93.48222636467301,0.9261906315483875,17,0.5666666666666667
0.8771329010439606,0.5726938566421926,-0.43428006768226624,0.9999827742576599,0.9545631189896144,0.7140123214996219,-0.13914555311203003,0.9999929070472717,0.7788035113660261,0.7134826117424792,-0.22438673675060272,0.9999955296516418,0.9336596006862321,1.0597859988594827,0.023982806131243706,0.9999868869781494,0.8282053802886546,1.061265091251971,-0.024188494309782982,0.9999912977218628,0.9555131307339351,1.3242166292146655,0.03803737834095955,0.8630086779594421,0.8481835936729252,1.3425092880791227,-0.017737489193677902,0.9557616710662842,0.9673406082351395,1.5726938566421926,0.2396012544631958,0.8777889609336853,0.8648274722967574,1.582268780861727,0.19024136662483215,0.95877605676651,1.006839501203514,1.0569413968403973,-0.16227704286575317,0.8740701079368591,0.7602164295011618,1.092098637195542,-0.32432031631469727,0.9969810843467712,0.000276029109954834,0.8809324904874434,1.0605255450557267,178.0008134302685,179.90786140183897,1.0,0.0002956058206775136,0.030709752394738745,0.08605492074048667,0.13319091302793304,94.263141144163,0.9415133648385788,18,0.6
0.8756059211278979,0.5723093179796437,-0.43480968475341797,0.999984085559845,0.9525709328579672,0.7147779891494358,-0.1452304869890213,0.9999932050704956,0.7765334464917822,0.7136111284061953,-0.2308855801820755,0.9999954700469971,0.9326709516167015,1.0595814795432885,0.026159029453992844,0.9999874234199524,0.8273140436827517,1.0622679635750087,-0.026361852884292603,0.9999914169311523,0.9568700620033059,1.3253694758857641,0.03632591292262077,0.8758999705314636,0.8484183345274088,1.3435659627938998,-0.022005755454301834,0.9583536982536316,0.9669093295630622,1.5723093179796437,0.24145595729351044,0.8895003199577332,0.8616234887026508,1.5797624987571839,0.19100680947303772,0.9619952440261841,1.0064760228098435,1.059415904124972,-0.1662599742412567,0.885444700717926,0.7618599539556259,1.0951605266830562,-0.3437975347042084,0.9969586730003357,0.0006082355976104736,0.8799924976497266,1.0609247215591486,177.12581467312762,178.90937256138758,1.0,-0.005046244842129385,0.00555193324784856,-0.04057237434499362,-0.1910087679215752,94.76376536973106,0.9465048308190673,19,0.6333333333333333
0.8757254927665495,0.572531660180029,-0.45375338196754456,0.9999850988388062,0.9525494528197056,0.7152173283883659,-0.1686907261610031,0.9999934434890747,0.7767617990630552,0.7142322357011134,-0.24701543152332306,0.9999953508377075,0.9337184706566152,1.0596453803597123,0.025569111108779907,0.9999878406524658,0.8283567363627036,1.0627352414263533,-0.025768185034394264,0.9999914169311523,0.9579680059648926,1.325623151342564,0.04094541072845459,0.8873186707496643,0.8492228789506804,1.344129830217219,-0.0196500476449728,0.9602726101875305,0.9662965948612285,1.572531660180029,0.23616847395896912,0.9000421166419983,0.8608678836447846,1.5783100927415892,0.18629615008831024,0.9648474454879761,1.007269655724891,1.0636996862322787,-0.19694027304649353,0.8956164121627808,0.7664908222169373,1.0974308887957733,-0.35813528299331665,0.9968735575675964,0.0005132853984832764,0.8810376035096594,1.061190310893033,176.72261074643833,178.60591355535726,1.0,0.005585887784344907,-0.0012170178404340931,0.08503257407017899,-0.054143385069306854,94.80921471873408,0.9484266037643674,20,0.6666666666666666
0.8759309900480847,0.5726548614657522,-0.4526152014732361,0.9999862313270569,0.9510648498975888,0.7165373828311615,-0.1548697054386139,0.9999937415122986,0.777387329383318,0.7148811517644195,-0.2526712119579315,0.9999953508377075,0.9342536612688006,1.059316467060936,0.03243985027074814,0.999988317489624,0.8287735069839126,1.0630087383563325,-0.03263780102133751,0.9999914765357971,0.9609138620276867,1.3246653332161873,0.052295275032520294,0.8970926403999329,0.8497114594372968,1.3442317970739137,-0.048004038631916046,0.9619524478912354,0.9652277848248393,1.5726548614657523,0.23192045092582703,0.9094292521476746,0.8606129547871513,1.5777397282213765,0.14259222149848938,0.9672791957855225,1.0070334479167238,1.0658573070706738,-0.1740238517522812,0.9048161506652832,0.7697854261275756,1.1008483701153338,-0.364554226398468,0.9968196749687195,0.0008629262447357178,0.8815135841263566,1.0611626027086343,175.25921047172307,178.4149590878633,1.0,0.0031233477812680137,-0.0007394415020188727,-0.018446538882183557,0.003577523828208672,94.81253979106873,0.9486295498305917,21,0.7
0.8802128907628128,0.5748463393023179,-0.4128844738006592,0.9999871850013733,0.952403865503019,0.7202381201852661,-0.11948728561401367,0.9999940395355225,0.7812044017832604,0.7182734013026589,-0.24417240917682648,0.999995231628418,0.9376580534843776,1.063213470802989,0.0381961390376091,0.9999889731407166,0.8322047055536823,1.0676442359777742,-0.03839046135544777,0.999991774559021,0.9690792024393035,1.3275440313532871,0.05819689482450485,0.9061053991317749,0.8531665870448661,1.3490007526226537,-0.058217454701662064,0.9640492796897888,0.9661856040148449,1.5748463393023178,0.23241260647773743,0.9179116487503052,0.8639245726157998,1.5831216863202666,0.1183307021856308,0.969789445400238,1.0110319014059157,1.0724275149288722,-0.14631988108158112,0.9130629897117615,0.7747349127979093,1.1073983742684694,-0.34830278158187866,0.9965466260910034,0.0010198652744293213,0.88493137951903,1.0654288533903815,172.55065536321493,178.37009102033156,1.0,0.0010575690433405301,0.0023960813879216024,-0.015355687100794976,0.02319761043604673,94.86779149381971,0.9536688107148077,22,0.7333333333333333
0.8853973269563502,0.5779315088046083,-0.40001383423805237,0.9999881386756897,0.9562968600934465,0.723976882127838,-0.10855688899755478,0.9999943375587463,0.7863200805880625,0.7218519393479365,-0.24239583313465118,0.9999953508377075,0.942324218500866,1.0677327242631052,0.04351309686899185,0.9999895691871643,0.8371626957798911,1.0733756894332869,-0.043715521693229675,0.9999920725822449,0.9775889991499882,1.329926629562897,0.051892686635255814,0.9139828681945801,0.8568092393454027,1.3550730555858734,-0.07318808883428574,0.965904176235199,0.9698094321809586,1.5779315088046082,0.21735577285289764,0.9254445433616638,0.8685503908859256,1.5900512321534042,0.10044364631175995,0.9719421863555908,1.0163840961054087,1.0802453911811527,-0.13435320556163788,0.9206850528717041,0.7792062897752193,1.1128901824884652,-0.35792964696884155,0.996648907661438,0.0010972023010253906,0.8897434571403786,1.0705542068481961,170.54305403959754,178.87097385081117,1.0,0.0008360998130506447,-0.004208879608476386,-0.001772439636960193,-0.05165074784359868,95.39916444123209,0.9579212255212177,23,0.7666666666666667
0.8874529169321834,0.5791051640508668,-0.4146690368652344,0.9999887943267822,0.9583142714601219,0.7253868755373714,-0.1177963986992836,0.9999945163726807,0.7885872945496364,0.7209824694771936,-0.25975796580314636,0.9999954104423523,0.9439522512944627,1.0690250527090916,0.044782854616642,0.9999901056289673,0.8392412898276513,1.075734639291908,-0.0449816919863224,0.9999923706054688,0.9809843572532997,1.3313697145883798,0.05378488823771477,0.9206924438476562,0.85850447184316,1.3580399886964778,-0.07518018782138824,0.9671854376792908,0.9714897225512785,1.5791051640508669,0.22852997481822968,0.9321684241294861,0.8714154954724027,1.5934457847937553,0.10820837318897247,0.9738016724586487,1.018358738303914,1.0832535867456834,-0.13447169959545135,0.9265305399894714,0.78089107890453,1.1141392001219652,-0.3890224099159241,0.9967077970504761,0.002269536256790161,0.891596770561057,1.0723798460004998,169.77048775084418,179.2357465537365,1.0,0.00020290165989845913,-0.0026125887446744192,-0.004486214725297454,0.01134017997913211,96.05956952729436,0.958287651514106,24,0.8
0.8978073666153199,0.5810995302880378,-0.39742016792297363,0.9999890327453613,0.9595092745927274,0.727915525555805,-0.09732730686664581,0.9999944567680359,0.794775843719771,0.7188509453989952,-0.26283231377601624,0.9999954700469971,0.9453031154350621,1.070799802274195,0.050980933010578156,0.9999905228614807,0.8423576057023129,1.07884151064883,-0.05116371065378189,0.9999926090240479,0.9845205906631841,1.3350704277750316,0.062042683362960815,0.9257238507270813,0.8616174154251781,1.3612915578661098,-0.0747637152671814,0.9672116041183472,0.9748568202953455,1.581099530288038,0.24491307139396667,0.937755823135376,0.8759973420655847,1.5990048938703783,0.11539120972156525,0.9749924540519714,1.020351747404994,1.087702607574347,-0.11131217330694199,0.9297724366188049,0.7834913462458708,1.1172158015118003,-0.3928437829017639,0.9967976212501526,0.004654586315155029,0.8938303605686875,1.0748206564615126,169.30960891184205,179.56089145082765,1.0,-0.006848811897246131,-0.010138801911437262,-0.05458059312906584,-0.0581766585610601,96.83914062347215,0.9564815443741125,25,0.8333333333333334
0.9117811944453699,0.5848280387017135,-0.38155561685562134,0.9999894499778748,0.9636560737862045,0.7316806788336417,-0.08237184584140778,0.9999945163726807,0.8032335401937303,0.7224309158638135,-0.2568938732147217,0.9999955296516418,0.9497952272849659,1.0754120293534104,0.05247389152646065,0.9999910593032837,0.8478194245197394,1.0834736514221548,-0.052652329206466675,0.9999929666519165,0.9905777771969478,1.3417771752444527,0.07276389002799988,0.9314435720443726,0.8664301508796006,1.3674554875977984,-0.07545433938503265,0.968651533126831,0.9795748865111031,1.5848280387017135,0.27049118280410767,0.9431821703910828,0.881425638394553,1.607453648648562,0.11566285789012909,0.9766907691955566,1.024746060771788,1.0929833293300792,-0.10208851099014282,0.9335528612136841,0.7877630880298349,1.122554706551951,-0.3818362355232239,0.9968871474266052,0.004724949598312378,0.8988073259023526,1.0794428403877825,168.70317028410466,179.82577609823127,1.0,0.0024501473617712455,-0.008204878157395904,0.07639578100042173,0.016261412778106218,96.82925633358089,0.9557902554301775,26,0.8666666666666667
0.9188014168323609,0.5855118143351472,-0.34978264570236206,0.9999898076057434,0.9654522695252536,0.7321807162199735,-0.051349937915802,0.9999943375587463,0.8097425916536798,0.7231740526218642,-0.23967590928077698,0.9999955892562866,0.9509628572162889,1.0746771589520487,0.055151812732219696,0.9999914169311523,0.8517484935642072,1.0841368046972293,-0.055332593619823456,0.9999932050704956,0.9918269286934254,1.342459877055213,0.06548722833395004,0.9362440705299377,0.868391133582712,1.3684071383677923,-0.07752694189548492,0.9698072671890259,0.9800528975670391,1.5855118143351472,0.2608216404914856,0.9479955434799194,0.8824872020130983,1.60945403822924,0.1051979660987854,0.9781371355056763,1.0232882473475282,1.0924679378593776,-0.07762955129146576,0.9356454610824585,0.7898823473061727,1.1249923480772062,-0.36318346858024597,0.9970090985298157,0.004595309495925903,0.9013556753902481,1.079406981824639,168.55012979279948,179.99619786354478,1.0,0.010785076889929844,-0.009606263687660748,0.060703836972172506,-0.010138917146602386,97.8689022264352,0.9523305082734388,27,0.9
0.9224860917530853,0.5860868057996222,-0.25200361013412476,0.9999887943267822,0.9668368704476639,0.7323436578780027,0.020398776978254318,0.9999929666519165,0.8151099928971948,0.7231079643931102,-0.16247202455997467,0.9999955892562866,0.9531294973663014,1.0718906104845265,0.053640216588974,0.9999917149543762,0.8571884704150562,1.0808426245034732,-0.05383504554629326,0.9999935030937195,0.9928912300063285,1.3425350897639958,0.03423548862338066,0.9408929347991943,0.8702549185434676,1.3669162024541577,-0.0802840068936348,0.9710836410522461,0.9788349153926431,1.5860868057996222,0.1838218718767166,0.9522968530654907,0.8831875677400951,1.6113661490807814,0.07826106250286102,0.9794918298721313,1.0228990322150167,1.0858716631990832,-0.014908154495060444,0.9220460057258606,0.7929985498488153,1.1259935652538209,-0.25319045782089233,0.9970721006393433,0.004706770181655884,0.9051589838906788,1.0763666174939999,168.33908270121537,179.58675896815072,1.0,0.021760195604845867,-0.03359392244539025,0.08610396210636762,-0.18831795463112722,97.64244169001093,0.9380206644863054,28,0.9333333333333333
0.9283610306884797,0.5867491140628881,-0.2342710793018341,0.9999874830245972,0.9681650512462258,0.7323110905472756,0.04078571870923042,0.9999905824661255,0.8225270728867351,0.722857815715478,-0.14751386642456055,0.9999956488609314,0.9579883533274476,1.0718926211781976,0.05355074256658554,0.9999919533729553,0.8635334220295123,1.0790735687611448,-0.053738415241241455,0.9999938607215881,0.9938360020062621,1.3441901250728547,0.037521351128816605,0.9445916414260864,0.8726962736713929,1.3658716214736564,-0.0803356021642685,0.9723650217056274,0.9789947329178174,1.586749114062888,0.19085107743740082,0.9561225175857544,0.8843310013990668,1.6133615980676552,0.07507647573947906,0.98079913854599,1.0224125899389678,1.074966422746319,-0.0004975532065145671,0.8899432420730591,0.7965854898719011,1.124183667841124,-0.24056975543498993,0.9971436262130737,0.004811525344848633,0.91076088767848,1.0754830949696712,168.99885890963796,179.13836375285743,1.0,0.03540923429900321,-0.017948365563979583,0.10842002197681823,0.1248728504451664,96.06410159241062,0.9315421797634462,29,0.9666666666666667
0.9370924890707409,0.5886100038765435,-0.15214015543460846,0.9999842643737793,0.9710269741940504,0.7341182307046894,0.10525022447109222,0.9999858140945435,0.8285533192566567,0.7238722667756746,-0.10038294643163681,0.9999957084655762,0.9624174796786612,1.0739882285933053,0.05498706176877022,0.9999921917915344,0.867793199840807,1.0807363249733553,-0.055178623646497726,0.9999942183494568,0.9946605102038302,1.3469539322739794,0.014431072399020195,0.9472103714942932,0.8759320047457437,1.3670159546231977,-0.0831604152917862,0.973116934299469,0.9803205266559607,1.5886100038765436,0.1441052258014679,0.9591285586357117,0.8861652346459007,1.6164423658440719,0.05906436964869499,0.981718897819519,1.0204397007350645,1.0548540885680462,0.01842626929283142,0.8296691179275513,0.8030287506204171,1.1232517850819854,-0.1942550092935562,0.9971404075622559,0.005203515291213989,0.9151053397597341,1.0773622767833304,169.8673946473138,179.27909611496358,1.0,0.016934360226505928,-0.0035664044631792987,-0.13447274766770292,0.10452805828210479,95.53021282801912,0.9310487979338663,30,1.0
0.9446080772926663,0.5885126158704453,-0.13858899474143982,0.9999760985374451,0.9705712776642386,0.732740606688007,0.1185043677687645,0.999977171421051,0.8339696195054296,0.7230068580565209,-0.11423754692077637,0.9999956488609314,0.9646186642834683,1.0727210004970542,0.06079826503992081,0.9999924898147583,0.8734049565084891,1.077820958894819,-0.060979969799518585,0.9999945759773254,0.9942127386219942,1.3460068753785523,0.024951331317424774,0.9495633244514465,0.8786823042529698,1.3636840379240924,-0.08964232355356216,0.97417813539505,0.9802510050448215,1.5885126158704452,0.1584949791431427,0.9621485471725464,0.8869697513290256,1.616781819030571,0.04663718491792679,0.9828169345855713,1.0117412252900486,1.0428313946848373,0.0472375825047493,0.7638651728630066,0.809997278385892,1.1204959855457923,-0.20633089542388916,0.9971518516540527,0.004940301179885864,0.9190118103959787,1.0752709796959368,170.52449401603698,179.18219719384655,1.0,0.025345735246310022,-0.020993626546801928,0.06382886423075454,-0.13239402806714612,94.20327253998808,0.9238990934492338,31,1.0333333333333334
0.9508983211944602,0.5875382956561036,-0.10650042444467545,0.999971330165863,0.9707990691076633,0.7272911092836466,0.136921226978302,0.9999738335609436,0.8379965647343899,0.7219668640762387,-0.119664765894413,0.9999958276748657,0.9689383051238791,1.071592279809253,0.07020078599452972,0.9999927282333374,0.8784242008074123,1.0744579537204104,-0.07037217915058136,0.9999948740005493,0.992654848137526,1.3450724364018019,0.031633079051971436,0.9492152333259583,0.8846227780717637,1.3540056990846467,-0.11542703956365585,0.9752575755119324,0.9742619050677764,1.5875382956561037,0.14237503707408905,0.964397668838501,0.8866568246383195,1.6150511585442362,-0.014800235629081726,0.9838222861289978,1.0109055985936541,1.0412462408267726,0.04876461625099182,0.7146176695823669,0.8195509446980428,1.1171014246890372,-0.23481643199920654,0.9972853064537048,0.0027049779891967773,0.9236812529656457,1.0730251167648317,170.7056105914988,179.17619035867713,1.0,0.041993153637506504,-0.008842730334786383,0.1253834683633789,0.09122143186567791,92.12302707363054,0.9203771987961638,32,1.0666666666666667
0.9521530601190027,0.5869327100708603,-0.12128201872110367,0.9999549388885498,0.9706058846620496,0.7206273411621028,0.13025407493114471,0.999966561794281,0.8437927517832344,0.718609668040977,-0.13477756083011627,0.9999959468841553,0.9716131676782097,1.0715788841775782,0.07590555399656296,0.9999930262565613,0.8820720858672717,1.0731942186105474,-0.0760362520813942,0.999995231628418,0.9921010767645567,1.3445491813465864,0.07569102942943573,0.9459248185157776,0.8919419000188067,1.347020079063099,-0.14450626075267792,0.9768867492675781,0.9692464453731578,1.5869327100708603,0.17436295747756958,0.9663352370262146,0.8883139927802981,1.612746052121239,-0.060622744262218475,0.9850649833679199,1.0101991069406033,1.0420281246643759,0.049806125462055206,0.6537907719612122,0.8311951481577191,1.114570792614837,-0.2540361285209656,0.9974053502082825,0.0010257065296173096,0.9268426267727408,1.072386551394063,170.32112603151012,177.15351726943737,1.0,0.028470446193563127,0.0001526577481603407,-0.10306751884149452,0.06865062289794616,90.8690653363133,0.9216143831251389,33,1.1
0.9543390031700255,0.586876951976773,-0.11735375225543976,0.999943733215332,0.9699324990059256,0.7153711207372249,0.1284494549036026,0.9999586939811707,0.8443462176785216,0.7175392808782253,-0.13375261425971985,0.9999961256980896,0.9724593343297899,1.070846988920961,0.07465065270662308,0.9999932646751404,0.8837371060284377,1.0711957643641707,-0.07479647547006607,0.9999955892562866,0.9909386335641241,1.3435766154324873,0.0803118422627449,0.9416795372962952,0.8941649294283293,1.3466226891723092,-0.12255804240703583,0.9778204560279846,0.9681256500731409,1.586876951976773,0.1795085221529007,0.9674875736236572,0.8880137935591473,1.6134539453567176,-0.045505307614803314,0.9859992861747742,1.0073138573626765,1.0496139804474869,0.06139921396970749,0.5938212871551514,0.8325877286810571,1.1110255216459857,-0.2441929131746292,0.997484564781189,0.0011030733585357666,0.9280982201791138,1.071021376642566,170.76708336180084,176.51120523960066,1.0,0.015116986930658424,-0.003996891500621446,-0.10165443339384152,-0.031640818373311314,89.81796421925706,0.916297198589587,34,1.1333333333333333
0.9540561292536929,0.5817380333263071,-0.13338270783424377,0.9999313950538635,0.9675939505832011,0.7084364909633216,0.11502744257450104,0.9999565482139587,0.8486751599069564,0.7131007353201777,-0.14703325927257538,0.9999961853027344,0.968714208635442,1.0656516220133447,0.0784095972776413,0.9999932050704956,0.882899515569127,1.0656419455206465,-0.07854367047548294,0.9999957084655762,0.9850861930672477,1.3370983439440545,0.08301974833011627,0.9345539808273315,0.8923148595486231,1.3358380682083146,-0.11257734149694443,0.9776966571807861,0.9605095337935768,1.5817380333263071,0.17796161770820618,0.967644989490509,0.8851836341828749,1.605375256718517,-0.03209766745567322,0.9865120649337769,1.004600647648822,1.0338542006704061,0.037582822144031525,0.5651471614837646,0.8369674781241314,1.1049620821387334,-0.28031694889068604,0.9976035356521606,0.0023846328258514404,0.9258068621022845,1.0656467837669956,170.81173156988564,176.48872184775803,1.0,0.01697225803265563,-0.0010707715344494702,0.014594879329431135,0.02198984508514655,89.81385529717946,0.918193095599315,35,1.1666666666666667
0.9560041080394588,0.5819746818350213,-0.12287106364965439,0.9999334812164307,0.9666931009906614,0.707299278357506,0.1313343048095703,0.999957799911499,0.8543457301097233,0.7120983158958951,-0.17310839891433716,0.9999963045120239,0.9689418131540495,1.064323761003833,0.08797984570264816,0.9999933838844299,0.8908531515583107,1.062488821191151,-0.08811244368553162,0.9999958872795105,0.9816834871422963,1.334458960202713,0.07992567121982574,0.9334540367126465,0.8946042257861835,1.3192815645472353,-0.15067143738269806,0.9791216254234314,0.9570961317901897,1.5819746818350213,0.12858524918556213,0.9690258502960205,0.88382111694089,1.598299744280655,-0.10750416666269302,0.9874427318572998,1.0130672090504917,1.0314462912255409,0.043678365647792816,0.5696136951446533,0.8450858785707073,1.1010712158149625,-0.32606303691864014,0.9977921843528748,0.002457261085510254,0.9298974823561801,1.063406291097492,171.6265339880224,176.94993050497615,1.0,0.044202339682462004,-0.005070548173449094,0.21944849233941688,-0.03221707714485581,88.2930307168059,0.9151916716568368,36,1.2
0.968140338086342,0.5788419233848388,-0.14953596889972687,0.9999375939369202,0.9681923819311903,0.7066560882905241,0.10390579700469971,0.9999610185623169,0.8621990510943351,0.7106816448387463,-0.2368217408657074,0.999996542930603,0.9733436189628486,1.062228465160218,0.09834429621696472,0.999993622303009,0.9032586823625327,1.0593925402931752,-0.09844479709863663,0.9999960660934448,0.9794379764284366,1.3302299867456642,0.10039138793945312,0.9300428032875061,0.9060387297979415,1.3201291825811343,-0.13955962657928467,0.9803685545921326,0.9502225600425366,1.5788419233848388,0.16304424405097961,0.9696030616760254,0.8819776289300582,1.5947234279143085,-0.0576745942234993,0.9882768988609314,1.0295049683575166,1.0250280360076027,0.04213397204875946,0.5830581188201904,0.8675039801053109,1.0984902463968205,-0.3554665446281433,0.9979656338691711,0.0020654499530792236,0.9383011506626907,1.0608105027266967,171.994993250723,174.381412881793,1.0,0.0678739412979309,-0.0027312080145968335,0.15642292405524172,0.015331028469563817,86.85284558995397,0.9172728623072741,37,1.2333333333333334
0.971583925487011,0.5729494019738037,-0.18516039848327637,0.9999427795410156,0.9663295473939781,0.7031075572070726,0.07292594015598297,0.9999641180038452,0.8722512193927565,0.7089775645641408,-0.2932111918926239,0.9999968409538269,0.9743319744441125,1.058917801062443,0.10738621652126312,0.9999938011169434,0.9111400036452114,1.0551754612945485,-0.10743649303913116,0.9999962449073792,0.9751690401590448,1.31725503411518,0.1425122320652008,0.9208964109420776,0.908407428002004,1.3100151458823455,-0.12815845012664795,0.981703519821167,0.9440236353420921,1.5729494019738037,0.23431286215782166,0.9692984223365784,0.8833109878204157,1.591072651265407,-0.06665864586830139,0.9891322255134583,1.0303316939540779,1.012852876312298,0.04661664366722107,0.5810972452163696,0.8796513462507494,1.0950828184496377,-0.4211249351501465,0.9981297850608826,0.003018677234649658,0.9427359890446619,1.0570466311784956,172.869526261952,175.51176949508675,1.0,0.05127332598605952,-0.010537343525984339,-0.1283528314329755,-0.06097083043237526,85.32239570010493,0.922371989782289,38,1.2666666666666666
0.9831295191489632,0.5754412350105552,-0.24139472842216492,0.999947190284729,0.9702585511386069,0.7049823794613818,0.02384737879037857,0.9999669194221497,0.8844581688011697,0.7085937126771342,-0.3437705636024475,0.999997079372406,0.9811274642583508,1.0601541092313373,0.11235380172729492,0.9999936819076538,0.9250785393110862,1.0585939425241615,-0.11239703744649887,0.9999963045120239,0.9764281108616802,1.3112705402504914,0.1732204258441925,0.8977944850921631,0.9234032745229467,1.314813908573137,-0.09709753841161728,0.9816303253173828,0.944217057523961,1.575441235010555,0.28226548433303833,0.9644083976745605,0.8903259597437189,1.597128669471421,-0.045085884630680084,0.9892967343330383,1.035505430412416,1.017888092195774,0.01414606161415577,0.5775976777076721,0.8983721768020574,1.0983968140758087,-0.4749152660369873,0.9982314705848694,0.0018495917320251465,0.9531030017847185,1.0593740258777495,174.12018558807864,173.69204296983506,1.0,0.048672647318823065,-0.014852051568765656,-0.020985076620571468,-0.03190045431199151,86.65272781145467,0.9180762465956036,39,1.3
0.9835264211713943,0.5771703969374334,-0.2175767719745636,0.9999497532844543,0.9717516829188015,0.7057698733581651,0.04197751358151436,0.999968945980072,0.8867004843402365,0.7094144962158535,-0.31361448764801025,0.9999972581863403,0.9870831537231737,1.064737762760126,0.10989904403686523,0.9999935030937195,0.9267047850825747,1.0625947303442125,-0.1099642738699913,0.9999963045120239,0.9772467782145501,1.3153051619566722,0.1546272337436676,0.875826895236969,0.9246710767913736,1.3186282192882353,-0.08111236244440079,0.9804402589797974,0.945570739202903,1.5771703969374335,0.25451043248176575,0.9604605436325073,0.8957265683075711,1.5889697141887629,0.0008711590198799968,0.9889662265777588,1.0417824922860093,1.0218085029240562,0.008499744348227978,0.567788302898407,0.9136008588438004,1.1006023660256732,-0.44513359665870667,0.9983447194099426,0.0018648803234100342,0.9568939694028742,1.0636662465521693,175.35090479517575,174.34392216045885,1.0,0.02194108155628604,0.02498376327349434,-0.2032345523820261,0.3024500135744003,85.52162361440597,0.93576609979929,40,1.3333333333333333
0.9800354266533674,0.5773220578158564,-0.1811867505311966,0.9999529719352722,0.9702089928347224,0.7048916748527451,0.0715436115860939,0.9999709725379944,0.8903848876513432,0.7083729991106997,-0.2860686779022217,0.9999974370002747,0.9873403060600043,1.06255598100229,0.11148585379123688,0.9999934434890747,0.9284018206962474,1.0601289674377714,-0.111569844186306,0.9999963045120239,0.9758181838796226,1.3144129150007429,0.13078764081001282,0.8525628447532654,0.9338069290998879,1.3150160925849101,-0.10218988358974457,0.9803526401519775,0.9452180559064336,1.5773220578158564,0.18184202909469604,0.9556381106376648,0.8969827457139011,1.5863477434477697,-0.06062048673629761,0.9889771342277527,1.0391332243923526,1.0214112925146732,0.043187737464904785,0.5462101101875305,0.9235429095381888,1.0942194900085267,-0.4366222321987152,0.9983891844749451,0.0017844140529632568,0.9578710633781259,1.0613424742200308,175.9805657326163,171.05641220469698,1.0,0.01946242050090058,-0.0035585382265314494,-0.018031850224555928,-0.2105536255214808,84.8997204932478,0.9285845528072562,41,1.3666666666666667
0.9931037449623473,0.5908872188242256,-0.18913909792900085,0.999954104423523,0.9792359799962654,0.7204773129362102,0.06046845391392708,0.9999725222587585,0.9056853428909389,0.7141088384993706,-0.3065091669559479,0.999997615814209,0.9976324014269359,1.0749653587202543,0.11185445636510849,0.9999935030937195,0.9353426271951248,1.0706888413056044,-0.11192892491817474,0.9999964237213135,0.990299269476628,1.3260638515476544,0.13315068185329437,0.8256897330284119,0.9443528765127024,1.326743138295397,-0.14666561782360077,0.9808593392372131,0.9538164134667807,1.5908872188242256,0.18827755749225616,0.9510902166366577,0.9059703033885683,1.599759793890686,-0.10025445371866226,0.98911052942276,1.045481031723453,1.0332963037071707,0.042790964245796204,0.5193688869476318,0.9414732633556625,1.1004941151730387,-0.45154380798339844,0.9984278678894043,0.003238290548324585,0.9664875143110303,1.0728271000129292,173.82893825825323,169.98207069158119,1.0,0.0072037229310238085,0.02297679379756418,-0.09608706023925428,0.20559602335542124,83.10176718122935,0.921524069890011,42,1.4
1.018164793839106,0.6296858978797201,-0.17655488848686218,0.9999492168426514,1.0094852564096801,0.7514122261755863,0.07261732965707779,0.9999727606773376,0.9284760006222277,0.732338008733368,-0.2821013331413269,0.9999976754188538,1.0215794933399753,1.1055271267015725,0.1088317483663559,0.9999929070472717,0.9572557718666143,1.1008442335583963,-0.10892178863286972,0.9999961853027344,1.0183175333645647,1.358818774373209,0.12948903441429138,0.79122394323349,0.9666433181403064,1.365299174349351,-0.1312122941017151,0.9790500402450562,0.9768154228555997,1.62968589787972,0.1753188967704773,0.9423287510871887,0.9304239690756412,1.6365913069749751,-0.06632949411869049,0.9879681468009949,1.0722297902618962,1.0618431428615103,0.03777715936303139,0.49503475427627563,0.9703182982610893,1.1242260892657023,-0.42638760805130005,0.9984674453735352,0.009482979774475098,0.9894176326032947,1.1031856801299844,172.02674866103143,170.3625749559497,1.0,0.007096827574837628,0.04599418715141215,-0.0021056798987661523,0.17478062323328422,83.88001403068542,0.89308172645838,43,1.4333333333333333
1.0271794084370163,0.6375002655937861,-0.1884017139673233,0.9999501705169678,1.0133243511972667,0.7580649170802657,0.06153175234794617,0.9999739527702332,0.9333724656559396,0.7396946751891825,-0.2989502549171448,0.9999977946281433,1.0271529242974344,1.116601299998068,0.10829788446426392,0.9999924898147583,0.9636432352856378,1.1132178307840443,-0.10839519649744034,0.9999960064888,1.0299160627329815,1.3663835732846539,0.1228344589471817,0.7573224902153015,0.9754479385919479,1.380466273742354,-0.12804900109767914,0.975173830986023,0.9868354565086187,1.6375002655937863,0.17058660089969635,0.9316665530204773,0.9366805754546078,1.6423393994251858,-0.042803727090358734,0.9852508306503296,1.0756657285061495,1.0735059469232562,0.025106793269515038,0.47405627369880676,0.9810831013914586,1.1292477174132676,-0.4492022395133972,0.9985336065292358,0.009095609188079834,0.9953980797915362,1.1149095653910561,170.33736119184476,169.04998267912742,1.0,0.01435603629594993,0.05392384000051578,0.054223529207043,0.058052799467878356,84.74168339642958,0.9094773780095121,44,1.4666666666666666
1.0324217754411786,0.6453962300317364,-0.1797158569097519,0.9999434947967529,1.0179400470618682,0.7624773662526556,0.0652703121304512,0.999974250793457,0.9402995137504645,0.7430718889235906,-0.2847479581832886,0.9999977946281433,1.0345755074509586,1.1265340231064522,0.10655836015939713,0.9999921321868896,0.9719395651357602,1.1219341381761365,-0.10665905475616455,0.9999958276748657,1.0390195071232247,1.377812472695137,0.1204521656036377,0.73442542552948,0.9815616401330164,1.3906897559863598,-0.1191159337759018,0.9727120995521545,0.9978534636247072,1.6453962300317364,0.1804826557636261,0.9281876087188721,0.9442370375028609,1.6488409435230371,-0.015642616897821426,0.9837837219238281,1.0811657290674306,1.0838359746048523,0.01720220223069191,0.4584933817386627,0.9866602611410644,1.1343989120684395,-0.4322172999382019,0.9985823631286621,0.00956428050994873,1.0032575362933593,1.1242340806412943,170.24077950917084,169.72249675457368,1.0,0.024538093506483182,0.031372756685743,0.0754417491065782,-0.17002169261060232,83.18353454724058,0.9157195791985598,45,1.5
1.031479191888306,0.6396817155187351,-0.17107245326042175,0.999947190284729,1.018685960542766,0.756904787408684,0.07107357680797577,0.9999758005142212,0.9356564396396869,0.7388011411242394,-0.2807745635509491,0.9999979734420776,1.0276493419253456,1.1197216342978646,0.107987180352211,0.999992311000824,0.963311435101521,1.1141969262684417,-0.10808835923671722,0.9999960064888,1.0214546296780234,1.3711222528549005,0.1066787838935852,0.6846377849578857,0.9854279495567417,1.3803833470632074,-0.16872873902320862,0.9713623523712158,0.9920899807244478,1.639681715518735,0.1516415923833847,0.9012137651443481,0.9428575415259773,1.639953446134217,-0.1463574767112732,0.9810950756072998,1.0784796870539006,1.0769991822219613,-0.007618814706802368,0.4473441541194916,0.9818116108122321,1.126635067407296,-0.4623684287071228,0.9986379742622375,0.008970648050308228,0.9954803885134332,1.1169592802831532,175.17152016262443,165.93660516412902,1.0,-0.01861109364904151,-0.00973176748755137,-0.33226556097578486,-0.31619037248376813,83.67683740915268,0.9141028175475561,46,1.5333333333333334
1.0394013516752971,0.6343255166131149,-0.18398919701576233,0.9999516606330872,1.0212668178107325,0.7563341369497428,0.05752219632267952,0.9999776482582092,0.9378410649980949,0.7346340392177899,-0.2907906472682953,0.999998152256012,1.0228919318333398,1.1168574567133183,0.11136458814144135,0.9999923706054688,0.9631232507453229,1.1124249139127818,-0.11140905320644379,0.9999961256980896,1.0123794605320728,1.3697015858631845,0.1811012327671051,0.6311524510383606,0.980161084099052,1.3812583114667767,-0.13762886822223663,0.9699096083641052,0.9855810046059266,1.6343255166131148,0.29081180691719055,0.8631590604782104,0.9418894812303641,1.6443543572381873,-0.1089743822813034,0.9786673188209534,1.0781004270654047,1.0859416141985059,0.0012343184789642692,0.4431758522987366,0.9806574072366667,1.1225094337318207,-0.4759823679924011,0.998703122138977,0.010801941156387329,0.9930075912893314,1.11464118531305,176.59818163576293,168.09706872892704,1.0,0.01587675613673175,0.021330909996750764,0.2650526122039872,0.238975515867715,85.50034829211761,0.9182412131483035,47,1.5666666666666667
1.026466633718068,0.6241395131018237,-0.1841604858636856,0.9999560117721558,1.012588274919716,0.7468924624551826,0.05886688828468323,0.9999793767929077,0.9315945833835152,0.728339912551074,-0.2881549298763275,0.9999982714653015,1.0153873206071848,1.1066237502646805,0.11333048343658447,0.9999923706054688,0.9596283759483472,1.1038963957189332,-0.11339064687490463,0.9999961853027344,1.0055347225879765,1.3589793036115096,0.1669597178697586,0.5897666215896606,0.9818987000600755,1.371016757536873,-0.10294659435749054,0.9684463739395142,0.9838567717990113,1.6241395131018237,0.26012301445007324,0.8348801732063293,0.9398270567124487,1.6377846081853213,-0.07529316842556,0.9770442247390747,1.0774736326995304,1.0766346204489055,0.044464193284511566,0.46785250306129456,0.9731951220063152,1.117523657185087,-0.45564156770706177,0.998786985874176,0.00930112600326538,0.9875078482777659,1.105260072991807,177.5620621469743,166.2719322874081,1.0,0.011874042494242303,-0.011332028238289283,-0.029906601100170956,-0.24994614290489972,86.75389987075152,0.9170961128774641,48,1.6
1.0272102157670864,0.6168509838312405,-0.20735935866832733,0.9999602437019348,0.9985927474571912,0.7328425454046485,0.04872327297925949,0.9999811053276062,0.9314050922270228,0.7226063999902487,-0.32037895917892456,0.9999984502792358,1.009575979891963,1.0925943534635199,0.11927787214517593,0.9999923706054688,0.9629289574443826,1.0923421686955155,-0.11936582624912262,0.9999963045120239,1.006650470905647,1.347476350577537,0.1921909749507904,0.5447800159454346,0.9949405061103328,1.3645897675113239,-0.10969635099172592,0.9664853811264038,0.9821713297870861,1.6168509838312404,0.29722142219543457,0.7958148717880249,0.9581717657554978,1.6339300818618265,-0.07133985310792923,0.9734668135643005,1.075524367693439,1.0689930070501086,0.0705922394990921,0.49126675724983215,0.9681146620590975,1.1167274061944554,-0.48930105566978455,0.9988768100738525,0.005155622959136963,0.9862524686681727,1.0924682610795178,175.46517324814252,165.52018537145116,1.0,0.02538822952202129,-0.05890305197088947,0.10405387895598225,-0.3651977636840374,87.94155004251427,0.895362457182862,49,1.6333333333333333
1.035781525541112,0.6163398238145839,-0.16377077996730804,0.9999638199806213,0.998269189225768,0.7316639941434001,0.08151891082525253,0.9999822378158569,0.9354262065336392,0.7202312968918992,-0.28969985246658325,0.9999985694885254,1.01027176450184,1.0857286074509334,0.11728354543447495,0.9999921321868896,0.9658083832760379,1.086196387751775,-0.11739180237054825,0.9999963045120239,1.02086106120587,1.3418524005268857,0.1731550097465515,0.5046157836914062,1.0046928278182816,1.3638704903979635,-0.11565563827753067,0.9611507058143616,0.9907935773315133,1.6163398238145839,0.271932452917099,0.7520553469657898,0.966926844319072,1.634875588659037,-0.07627977430820465,0.9670276641845703,1.0747696057797487,1.0677733681341055,0.07488930970430374,0.49665600061416626,0.9645377220921255,1.1173676627760691,-0.4668065011501312,0.9989637136459351,0.005760014057159424,0.988040073888939,1.0859624976013542,171.3812026652318,164.09497573278767,1.0,0.016105940896327428,-0.04777014157630883,-0.07170938630286897,0.08594026686833206,88.66121364094039,0.8745988811934496,50,1.6666666666666667
1.0437178974125414,0.6188556809974667,-0.1712300032377243,0.9999668002128601,1.0001236494594272,0.7336843171665082,0.07642950117588043,0.9999833703041077,0.9447033794448966,0.7235139263100322,-0.29330873489379883,0.9999986886978149,1.012499290694175,1.0907049296680567,0.11777311563491821,0.9999914765357971,0.9697616167954113,1.0913253754418863,-0.11788377910852432,0.9999961256980896,1.0283211926914315,1.3451077803198903,0.19583256542682648,0.46233731508255005,1.017801897641896,1.369502315382177,-0.10414063930511475,0.9523799419403076,0.99651303770952,1.6188556809974668,0.3152616322040558,0.7030022144317627,0.9870094388923005,1.643478025779813,-0.026332158595323563,0.9566090703010559,1.0793435586266888,1.0719885251400265,0.05989639833569527,0.5079969167709351,0.9670504196862298,1.1239054928346,-0.46991387009620667,0.9990394115447998,0.005101144313812256,0.9911304537447931,1.0910151525549716,169.81346083536985,163.78921325833124,1.0,-0.010507881977991483,0.0013957558831217967,-0.2086076037195796,0.38601004036832587,88.8464486465451,0.8795248977343851,51,1.7
1.044838857148707,0.6223910918541244,-0.1710229218006134,0.9999698400497437,1.0007596336069813,0.7340736591645483,0.07516873627901077,0.999984622001648,0.949418686558199,0.7247678350073187,-0.29150015115737915,0.9999988079071045,1.016287751567254,1.092655123306991,0.11894121021032333,0.9999910593032837,0.9785843793547024,1.0953641637563647,-0.1190514788031578,0.9999960660934448,1.033932344577613,1.347630848421402,0.18376728892326355,0.4238320589065552,1.0241770373051344,1.3749014746938686,-0.09781308472156525,0.9422942996025085,1.0005502478019699,1.6223910918541244,0.30109232664108276,0.6505932807922363,0.9975552808582032,1.6499965687630305,-0.020604293793439865,0.9410114884376526,1.0813329340837654,1.0733750831249147,0.07120806723833084,0.5248168706893921,0.9669913217975921,1.1281395297485268,-0.4655979573726654,0.9991093873977661,0.0046596527099609375,0.9974360654609782,1.094009643531678,169.1141612826659,165.209131385428,1.0,0.0348441312202919,0.008688998246418113,0.34104589793839457,0.054805895718036395,91.63011571580589,0.8742249804687249,52,1.7333333333333334
1.044979305040755,0.6256904788317199,-0.1345825493335724,0.9999722838401794,1.0006315107632524,0.7346365244245725,0.10111862421035767,0.9999853372573853,0.9550465097535609,0.7246563702912164,-0.2722771465778351,0.9999988675117493,1.0170208121369981,1.0926541147681739,0.12183360010385513,0.9999902844429016,0.9874218306912328,1.0952698553092675,-0.12194076925516129,0.9999959468841553,1.0355590464348075,1.3475772309945269,0.1874333918094635,0.3863103985786438,1.0302928283943704,1.3748397951114275,-0.1147538423538208,0.9356867074966431,1.0016913448764324,1.62569047883172,0.3028706908226013,0.5983657240867615,1.0065849733509833,1.6548742822490872,-0.07444228231906891,0.9294947385787964,1.0797325611101314,1.0734896635243796,0.06140301749110222,0.5172538161277771,0.9655550344350917,1.1273038737359153,-0.4514752924442291,0.9991597533226013,0.005000442266464233,1.0022213214141154,1.0939619850387208,168.8976197158651,166.44267176748272,1.0,0.041408534032898875,0.004886158764267663,0.050404074900376336,-0.029061113313150238,92.42920846050325,0.8606945059026013,53,1.7666666666666666
1.051560205456618,0.6253905176916779,-0.14476871490478516,0.9999719858169556,1.0011754131066861,0.7352766195368949,0.09950543940067291,0.9999849796295166,0.9665766181029565,0.7256036628383284,-0.28066614270210266,0.999998927116394,1.0174553160058422,1.0967784160952878,0.12788739800453186,0.9999904036521912,1.0013160699826267,1.0999415298172646,-0.1279647946357727,0.9999961256980896,1.0346887582847881,1.3495360851823752,0.2577486038208008,0.35427504777908325,1.0417490908621403,1.3761986551084477,-0.1511644870042801,0.9395483732223511,0.9965220147943188,1.6253905176916779,0.42131415009498596,0.5676495432853699,1.0241412775749803,1.6612461211516227,-0.12682059407234192,0.9334689974784851,1.0717744549144435,1.0856533140015412,0.09662161767482758,0.48549672961235046,0.9651776057831634,1.1296962900320981,-0.4375022351741791,0.9991779923439026,0.004845023155212402,1.0093856929942344,1.098359972956276,168.22218020796416,168.13854850046462,1.0,0.051758836944167864,0.03065288171379871,0.07806687421827806,0.19457459385308906,98.5102644423434,0.8713392927770496,54,1.8
1.0539490196302463,0.6253278928120183,-0.1332874298095703,0.9999701380729675,0.9931714387865181,0.7354148992589503,0.10763122886419296,0.9999839067459106,0.9758253734526554,0.725970277081923,-0.2807770371437073,0.9999988675117493,1.0118618646496558,1.099221912142341,0.13036476075649261,0.9999903440475464,1.0133677912378471,1.1014964528067626,-0.13045600056648254,0.9999962449073792,1.0125111043191874,1.3547449124841588,0.2788873314857483,0.32747024297714233,1.0514590575539362,1.3771417172966494,-0.145112544298172,0.9433919191360474,0.9866666047776422,1.6253278928120183,0.4334948658943176,0.5500653386116028,1.0364927442259921,1.6680385797135395,-0.12568189203739166,0.9377599954605103,1.0621302725878277,1.0957618396084043,0.10084551572799683,0.4491519629955292,0.9673484218774845,1.1319614440899315,-0.4220829904079437,0.9990876317024231,0.004729926586151123,1.0126148279437515,1.1003591824745518,174.39841624682387,169.18695175269244,1.0,0.023425997217671465,0.013948386774048548,-0.21598618045533102,-0.12734143981307608,149.433236615454,0.8727853283532105,55,1.8333333333333333
1.0543217016094653,0.6246028772302716,-0.12947338819503784,0.9999707341194153,0.9888376447253703,0.7353698600525351,0.10420925915241241,0.9999840259552002,0.976882664850897,0.7257018029071864,-0.27968037128448486,0.9999988675117493,1.0078362466723894,1.1003497244134979,0.12939243018627167,0.9999905824661255,1.0178989208230185,1.101243650303663,-0.12948527932167053,0.9999964237213135,1.0050827312707566,1.3550429394339036,0.2722707688808441,0.3087901473045349,1.0534670351741517,1.3762552987623695,-0.15825030207633972,0.9478656053543091,0.9845856078288587,1.6246028772302716,0.4189375340938568,0.5455248951911926,1.0384427987066032,1.6690165036635911,-0.16069793701171875,0.9426626563072205,1.0580409996004458,1.0965320398492984,0.08652952313423157,0.4222084879875183,0.967305975164112,1.1322951428261943,-0.4207339286804199,0.9990058541297913,0.0048438310623168945,1.012867583747704,1.1007966873585804,176.2710488828296,169.6928758911504,1.0,0.005036755112426655,0.006693242349454605,-0.1376986747118448,-0.05431192571319269,98.05636665747367,0.8754215370054353,56,1.8666666666666667
1.0569663596969605,0.6214898189302923,-0.10030882060527802,0.9999717473983765,0.9822192927518394,0.7331304240789139,0.12659192085266113,0.9999823570251465,0.9852044492491566,0.7236455200431638,-0.261226624250412,0.999998927116394,1.003037927419932,1.1023234138872247,0.13058948516845703,0.9999908804893494,1.0256518443437455,1.102126965649937,-0.13069383800029755,0.9999966621398926,0.9990375702196846,1.3557964931907365,0.2934507429599762,0.30111563205718994,1.061945388460921,1.376697705131196,-0.14832767844200134,0.9526908993721008,0.9832424656121882,1.6214898189302924,0.44940075278282166,0.5543976426124573,1.044542287803331,1.6731760521864565,-0.15200874209403992,0.9478800296783447,1.033248715426642,1.1156196635999442,0.10011044889688492,0.3838954567909241,0.975093016931494,1.132503979088198,-0.3916946053504944,0.9990020394325256,0.004751294851303101,1.0143448858818387,1.1022251897685809,177.502025554859,169.11075958473725,1.0,0.009546685051983334,0.009087485086430957,0.03280244197119103,0.017409478443092104,92.72974768854917,0.8853646443792615,57,1.9
1.052263822435072,0.6153615770904614,-0.08099520206451416,0.9999724626541138,0.9709266621521702,0.7257197386728862,0.13041314482688904,0.9999813437461853,0.988941933399816,0.7183329357217687,-0.2540663778781891,0.999998927116394,0.9917553636812212,1.1022267926971845,0.13120898604393005,0.9999912977218628,1.0212132536529637,1.1000603085366956,-0.13131195306777954,0.9999969005584717,0.9971270613443025,1.350786159561274,0.2917352616786957,0.31380391120910645,1.059628517195342,1.3714848791532503,-0.13233588635921478,0.9572402834892273,0.9791191990077986,1.6153615770904612,0.44861850142478943,0.5781688690185547,1.0408749627702214,1.6706653646740153,-0.12747779488563538,0.9528310894966125,0.9651204466684349,1.1072369947678269,0.1360786408185959,0.353302001953125,0.9826136564013733,1.12837278084589,-0.38560035824775696,0.9990290999412537,0.0037141740322113037,1.0064843086670925,1.10114355061694,174.86822334397036,168.35753457698323,1.0,-0.029468943974581545,0.02201385648637692,-0.28234963510469085,0.09387775149893746,88.96017301060967,0.9004416877745095,58,1.9333333333333333
1.0523392225320112,0.6132465208831069,-0.09559063613414764,0.9999703168869019,0.9709042184834324,0.7197366597719382,0.12357981503009796,0.9999785423278809,0.9894747017255013,0.7175588506002546,-0.26060348749160767,0.999998927116394,0.9910982175894836,1.1020637836271914,0.13158640265464783,0.9999915361404419,1.0208278492490315,1.1011505374555535,-0.13167735934257507,0.999997079372406,0.9974292605659794,1.3490332986199554,0.298082172870636,0.32032519578933716,1.0645922774345737,1.3689561296736164,-0.13416127860546112,0.9613068103790283,0.9779699191107061,1.6132465208831068,0.45821040868759155,0.5978963375091553,1.042276585138866,1.6716468022207012,-0.13988806307315826,0.9572676420211792,0.9886182226707029,1.109499151245772,0.12462282180786133,0.32358062267303467,0.9869841702615721,1.1269741889568365,-0.43001335859298706,0.9990910887718201,0.0010964572429656982,1.0059630334192575,1.1016071605413724,174.3193119635549,166.50237108532576,1.0,0.006523158821091006,0.015674743209344987,0.29690749144108325,-0.05211187572637135,91.26399532398344,0.9069999394315701,59,1.9666666666666666
1.0526388757021075,0.6092640169974857,-0.11023272573947906,0.9999682307243347,0.9704480687230488,0.714194641143986,0.121371790766716,0.9999764561653137,0.9920666748857709,0.7153598999347668,-0.2729323208332062,0.9999988675117493,0.9897086421992434,1.1021077278947427,0.13143275678157806,0.9999918341636658,1.0203160670735596,1.1007559450340314,-0.13152869045734406,0.9999972581863403,0.9896985454547172,1.35218401440894,0.3085933029651642,0.32467615604400635,1.0615068877511256,1.3681980416803061,-0.12927192449569702,0.9649512767791748,0.9755116746708461,1.6092640169974857,0.48039108514785767,0.6177265644073486,1.0413600444776359,1.6690046239547212,-0.12874671816825867,0.9612581133842468,0.9979010580443539,1.1130307522039244,0.111294224858284,0.2977122664451599,1.003229068799099,1.1272779082285043,-0.42609578371047974,0.9990599155426025,0.000588148832321167,1.0050123546364014,1.101431836464387,176.84366936415103,167.41251187720684,1.0,0.011456391335636244,0.018831748724564855,0.03593901947689021,0.023208938839305013,90.31366698005684,0.9195698420581413,60,2.0
1.058062643146254,0.6086831710013386,-0.08950552344322205,0.999967098236084,0.9712367157768524,0.7142719488955888,0.12971623241901398,0.9999735355377197,1.001886263063686,0.7143254678557277,-0.268669068813324,0.9999988079071045,0.985366960391544,1.1038862022869176,0.13294664025306702,0.9999918937683105,1.0168812489802928,1.1020996013221012,-0.13305076956748962,0.9999973773956299,0.9897353348755684,1.353914746715768,0.3108821511268616,0.342931866645813,1.0615830932011743,1.3771698265177301,-0.1079731434583664,0.9682576060295105,0.974947166991252,1.6086831710013385,0.47404414415359497,0.6410804390907288,1.0407800904747757,1.6694874364683623,-0.07992681860923767,0.9648514986038208,1.001103363876118,1.1079685129134407,0.11816272884607315,0.27233245968818665,1.0256260228420337,1.1250269586272474,-0.4145747125148773,0.9989078044891357,2.703070640563965e-05,1.0011241046859183,1.1029929018045095,175.6770222503867,166.69888408826918,1.0,-0.023993224989793477,0.016965123554494595,-0.2633358987623258,-0.013777329747530362,88.83232477180148,0.9280808456973179,61,2.033333333333333
1.0500671476478913,0.5955507638790318,-0.05210939049720764,0.9999694228172302,0.9631953020264489,0.705818355966483,0.15805384516716003,0.9999728798866272,1.0032708609607575,0.7072040434973648,-0.23891158401966095,0.9999988675117493,0.9752699527195441,1.0930403561689899,0.13303795456886292,0.9999918937683105,1.0092008529610323,1.0913099274927,-0.13314859569072723,0.9999974966049194,0.9786841586503778,1.3410553323276582,0.2968502938747406,0.3737081289291382,1.0485751205980174,1.3643093707155813,-0.11440221965312958,0.9713425040245056,0.9659815844974169,1.5955507638790318,0.44693413376808167,0.6671373248100281,1.030412868590077,1.6566980334145778,-0.10045186430215836,0.9682257771492004,0.9943657008458289,1.096688871496262,0.17056873440742493,0.2551276981830597,1.0368172085051972,1.1127468988496625,-0.37611034512519836,0.9989839792251587,0.000706404447555542,0.9922354028402882,1.092175141830845,176.35388852421187,168.2384533415288,1.0,0.0031825274348228644,-0.005135335538566913,0.2273346454684013,-0.18507689057302731,88.86658609155074,0.9363198413383041,62,2.066666666666667
1.0525938073053542,0.5899998204975633,-0.08129216730594635,0.9999715089797974,0.9655821795557645,0.6987803884119036,0.1454235166311264,0.9999711513519287,0.9982657973326867,0.7012528747257142,-0.24767181277275085,0.9999988675117493,0.9699871925882805,1.08497593069835,0.13252587616443634,0.9999916553497314,1.0030346368250354,1.084113738088285,-0.1326274871826172,0.9999975562095642,0.9717533455274935,1.332730422020685,0.29181647300720215,0.3999097943305969,1.0423825004062042,1.357317376166991,-0.0938209742307663,0.974005401134491,0.9595332378969029,1.5899998204975634,0.4437306523323059,0.6928050518035889,1.0236188609077443,1.6477422107996451,-0.04177559167146683,0.9711845517158508,1.0016050073860314,1.0881108913771502,0.17575247585773468,0.23831070959568024,1.046817314328692,1.1043661440744648,-0.3738141357898712,0.9990440011024475,0.0012684464454650879,0.9865109147066579,1.0845448343933175,176.87210233957884,168.10779027237203,1.0,0.004061540177861001,-0.005547757839020832,0.006776473445505566,-0.0033527187602843604,89.15901571543826,0.9337299549150925,63,2.1
1.0533595264596405,0.5907031524844633,-0.005633712280541658,0.9999737739562988,0.9621831218439446,0.697321383639539,0.18175576627254486,0.9999707341194153,1.0044439444356439,0.7010498712677498,-0.2035379707813263,0.9999988675117493,0.9687695432965846,1.0768484987668365,0.1318514347076416,0.9999915361404419,1.0073737609818727,1.0799735666835149,-0.13198956847190857,0.9999975562095642,0.9737584482536799,1.3320436670392326,0.25860273838043213,0.43297427892684937,1.0449738287619912,1.3568852199710075,-0.10034134238958359,0.9764233231544495,0.9598932765306807,1.5907031524844633,0.35522371530532837,0.7132354974746704,1.026126841566181,1.6479415566159823,-0.10691914707422256,0.9737687110900879,0.9933290277306921,1.0885029136037092,0.2024366557598114,0.2225426733493805,1.0617967100841406,1.1005581748552729,-0.2981962561607361,0.9990464448928833,0.0019121766090393066,0.9880716521392287,1.0784110327251757,175.81170236425027,168.56251848484314,1.0,0.009365750931938126,-0.04918477856064434,0.04018294791737709,-0.3306491612721496,95.62231275410782,0.9096428836460999,64,2.1333333333333333
1.0558043480602775,0.5957681108278167,0.017792455852031708,0.9999738335609436,0.9587780080818986,0.6987346084203961,0.17948560416698456,0.9999648928642273,1.0136801812385703,0.702428092560711,-0.19935505092144012,0.9999987483024597,0.967003737565106,1.079112988482756,0.1280331015586853,0.9999906420707703,1.0135220254883481,1.0822450080635557,-0.128204345703125,0.9999974370002747,0.9747895890891166,1.3347831720185444,0.25479549169540405,0.44435611367225647,1.0471332668916136,1.3611395133449737,-0.07316258549690247,0.9779766798019409,0.9618930241726157,1.5957681108278166,0.3509214520454407,0.7201331257820129,1.030342902746151,1.651053095435873,-0.05403854697942734,0.9752615690231323,0.9893105696198293,1.089985788692621,0.21144196391105652,0.202260360121727,1.0801166602466845,1.102476133243308,-0.2646521031856537,0.9989362359046936,0.0018903017044067383,0.990262881526727,1.0806789982731557,175.42675841999687,169.81349895117023,1.0,0.001079522519329185,0.00022896252274090423,-0.063784285458371,0.3802622334121714,95.09067684348372,0.9015320949821622,65,2.1666666666666665
1.0553974461482438,0.5956200757838581,0.006320239510387182,0.9999744892120361,0.9566090379026396,0.6983036760805859,0.17196759581565857,0.9999604821205139,1.0148263756139335,0.7018585765356895,-0.20865917205810547,0.9999986886978149,0.965507145075749,1.0787401923142297,0.12674450874328613,0.999989926815033,1.0153442055896766,1.081912133752875,-0.12691974639892578,0.9999973773956299,0.973974095928003,1.334258085156022,0.25797078013420105,0.46007248759269714,1.0466402054928163,1.361867456947234,-0.0680580586194992,0.9795777201652527,0.9614135757137742,1.5956200757838581,0.3643132448196411,0.7306194305419922,1.031016595239969,1.6501244747774426,-0.04120367020368576,0.9769166111946106,0.9882793236358184,1.0890170450814767,0.20667724311351776,0.18433493375778198,1.082616932015723,1.1020618667118682,-0.27420228719711304,0.9988692402839661,0.0018200576305389404,0.9904256753327128,1.0803261630335523,175.3507162783036,170.51901803751238,1.0,0.004063079217559103,0.0003973162605636668,0.022706211139958098,0.001281727107877856,94.98160713096384,0.9013273077453626,66,2.2
1.0504054444141622,0.5897701417357507,0.055931322276592255,0.9999750852584839,0.9486728234184002,0.6943162730329367,0.1914883255958557,0.9999596476554871,1.0129094123226636,0.6985887672679058,-0.17691545188426971,0.9999986290931702,0.9600406601509351,1.0718264953454324,0.1237870454788208,0.9999887943267822,1.0149535558231149,1.0727353515664082,-0.12396271526813507,0.9999971389770508,0.9681078466075738,1.3286085956454594,0.24818654358386993,0.4848019480705261,1.0440326629121877,1.3582885802360833,-0.04619242995977402,0.9809209704399109,0.9576098902580763,1.5897701417357506,0.3229348063468933,0.7426868677139282,1.0283443081443668,1.6441431756526756,-0.026819756254553795,0.97817462682724,0.9509156740926271,1.0831996680557803,0.23900441825389862,0.17076662182807922,1.0909435638566616,1.0978838149990973,-0.24575646221637726,0.9988663196563721,0.0021953582763671875,0.987497107987025,1.0722809234559203,175.89867167564208,171.0439978957277,1.0,0.005087343686019995,-0.03320163581024653,0.008299129602293308,-0.2683921408918023,92.6730155296458,0.8933168997054506,67,2.2333333333333334
1.0469408631041244,0.5827487307062937,0.016736559569835663,0.9999764561653137,0.9407510443365705,0.6889381451344073,0.17824074625968933,0.9999600052833557,1.0148475175320137,0.6951791821564774,-0.20095351338386536,0.9999986290931702,0.9546764946566254,1.0668538873800288,0.12130731344223022,0.9999874830245972,1.0149222625656713,1.0652615986645708,-0.12149733304977417,0.9999968409538269,0.9646693395814174,1.3209793771289555,0.2425195872783661,0.4963405132293701,1.0394796451771229,1.3527770928075118,-0.03836478665471077,0.9815480709075928,0.9533301598463556,1.5827487307062937,0.31342247128486633,0.7483190298080444,1.0236100153030925,1.6373496889792145,-0.013555149547755718,0.9786717295646667,0.9361778497424964,1.0658086121643673,0.20467917621135712,0.1584998518228531,1.0989309438489776,1.0888566534083763,-0.2577473521232605,0.9988516569137573,0.0032200217247009277,0.9847993786111483,1.0660577430223,175.26779172012508,171.92619829259323,1.0,0.010224452488177705,-0.014084903272119,0.03944128332317144,0.14514407027082613,90.59631340152998,0.8957396573081587,68,2.2666666666666666
1.0466885679277556,0.5820553520219522,0.08135445415973663,0.9999760985374451,0.9418194536412455,0.6896191466783852,0.19927045702934265,0.9999597072601318,1.0203868277587909,0.6948546098926,-0.16196800768375397,0.9999986290931702,0.955809449550796,1.0663567063779689,0.12085459381341934,0.9999869465827942,1.0174520834303742,1.0640847096364585,-0.12103088200092316,0.9999967217445374,0.9654792188640109,1.3156824872706576,0.24774852395057678,0.5192270278930664,1.0394519745520645,1.353104956263167,-0.04619153216481209,0.9829043745994568,0.9536562711768023,1.5820553520219522,0.32774651050567627,0.7609270215034485,1.0232486398013099,1.6383646246743908,-0.029157627373933792,0.9800148010253906,0.9377809583394833,1.0668243514314435,0.22783394157886505,0.15147723257541656,1.1094067507557044,1.0862306964940838,-0.2429007589817047,0.9988617897033691,0.0026998817920684814,0.9866307664905851,1.0652207080072138,175.23756982432,172.3960803022121,1.0,0.010675625098622535,-0.010746251945893272,0.003529246613482442,0.026463501674780072,90.01585143146849,0.8933739206386913,69,2.3
1.0307275882044407,0.5615145203118203,0.07377900183200836,0.9999761581420898,0.9306810146529226,0.6812353665923955,0.19013160467147827,0.9999614953994751,1.0114057840219737,0.6856829638718884,-0.17659564316272736,0.9999986290931702,0.9444458900010545,1.0528349038925493,0.1187538281083107,0.9999869465827942,1.0087639532351784,1.0509224324974515,-0.11889825761318207,0.9999967217445374,0.9538331824628724,1.3033881716645646,0.2491167038679123,0.5368520617485046,1.0246627554469714,1.3377799035068139,-0.023255955427885056,0.9837231040000916,0.9413049427536758,1.5615145203118204,0.34241795539855957,0.7704516649246216,1.0097587624696376,1.6181865781438232,0.02916143462061882,0.980747401714325,0.9210891569103008,1.0537583863205913,0.22308866679668427,0.15115225315093994,1.1029063219972783,1.07002272414991,-0.247910737991333,0.9988915920257568,0.0023229122161865234,0.9766049216181165,1.0518786681950003,175.0756580336687,173.78519653979237,1.0,0.018572251818164385,0.0008098688902638517,0.061383469536587826,0.08728575993487274,90.41822867575002,0.917035277952973,70,2.3333333333333335
1.0282931054654463,0.5635411762055295,0.13018998503684998,0.9999577403068542,0.9260680906922851,0.6865587506348714,0.18496324121952057,0.9999622702598572,1.020137588537468,0.685632447408747,-0.15389186143875122,0.9999985694885254,0.9463791144840796,1.0555685868669313,0.11203189939260483,0.9999870657920837,1.0120933492240358,1.0532565742711746,-0.1121787428855896,0.9999967217445374,0.9572500682476017,1.3061149965513088,0.24876204133033752,0.5399644374847412,1.0267927446995315,1.3403736343188855,-0.028904994949698448,0.9833223223686218,0.9426347885845408,1.5635411762055293,0.33802860975265503,0.7710220813751221,1.0109437473931817,1.621658740948115,0.019081387668848038,0.97935950756073,0.9168340500808736,1.0597515043921493,0.20136161148548126,0.14438866078853607,1.1132769519128598,1.0675353335017557,-0.21769213676452637,0.9987210035324097,0.00048276782035827637,0.9792362318540577,1.054412580569053,174.26609364639611,173.844295712881,1.0,0.004308709353208042,0.002311525071329238,-0.1109746314948061,0.011637729189232077,91.13549644022501,0.9166134468602372,71,2.3666666666666667
1.0383418273382947,0.5755510084048122,0.08466935157775879,0.9999338984489441,0.9305492752663326,0.6966540524519362,0.11093650013208389,0.9999631643295288,1.0360876790801494,0.6891240378021091,-0.18584400415420532,0.9999985098838806,0.9548402374298668,1.0679030548796005,0.10957908630371094,0.9999870657920837,1.023213315538662,1.06470424077015,-0.10969947278499603,0.9999966621398926,0.962850726685361,1.31799040471252,0.2571823298931122,0.5271086692810059,1.0364492620606431,1.3542922503967336,-0.01684204302728176,0.9812601208686829,0.9510254850174898,1.575551008404812,0.35810837149620056,0.7636605501174927,1.0201441908853257,1.6374390940261838,0.044436097145080566,0.976114809513092,0.9253346158307866,1.0743871812308523,0.12573298811912537,0.13670343160629272,1.1303622129502024,1.072606058807297,-0.24697592854499817,0.9982870817184448,0.0038864314556121826,0.9890267764842644,1.066303647824875,175.53665526715656,174.0873031939273,1.0,0.0016692623338977002,0.012708158601852973,-0.02169062427037428,0.08391155691420032,91.06493551667823,0.9130327365819938,72,2.4
1.0502718853759163,0.5794638026085827,0.06896179914474487,0.9999181032180786,0.9361972177164524,0.6969014939148223,0.11810432374477386,0.9999624490737915,1.050851467468856,0.69044132484013,-0.18712493777275085,0.9999983906745911,0.958036924764049,1.071818211557886,0.10883234441280365,0.999986469745636,1.0313888576066386,1.0708698044967118,-0.10897023975849152,0.9999964833259583,0.9658640622335681,1.3195386619180693,0.2576024532318115,0.5210480093955994,1.0392130421603996,1.3577865638279978,0.0033739947248250246,0.9794009923934937,0.9539731915779368,1.5794638026085825,0.36026567220687866,0.7597354054450989,1.0229053043341565,1.64200134734019,0.07582218199968338,0.9736332893371582,0.9344595715435036,1.0673207471571673,0.1515045464038849,0.12686046957969666,1.1456194507981992,1.0768586650562662,-0.2543031871318817,0.9979605078697205,0.003325164318084717,0.9947128911853438,1.071344008027299,175.57094675423363,175.1540092663743,1.0,0.022915904914347307,0.016328675302155447,0.1632615251301934,0.0275593392342183,92.59306812549829,0.9176552617443986,73,2.433333333333333
1.0559556289122223,0.5826923005515056,0.08116044104099274,0.9998967051506042,0.9383253205202589,0.6984381512634685,0.11535215377807617,0.9999621510505676,1.0604275026851202,0.6919653176239495,-0.1864657998085022,0.9999983310699463,0.9600524561538682,1.074881084222262,0.10415118932723999,0.9999855160713196,1.0356943437492168,1.075262269165538,-0.10428053140640259,0.9999961853027344,0.9667610210604392,1.3211307349477783,0.24075689911842346,0.5068208575248718,1.0405483307696664,1.360253886577927,0.006017986219376326,0.9727954864501953,0.9568868805541605,1.5826923005515057,0.3326858878135681,0.7494462132453918,1.0250444889824206,1.644571323009971,0.0917179137468338,0.9661585092544556,0.9398050375359834,1.059949425983051,0.14084191620349884,0.11769013851881027,1.1520644790866972,1.0796298247454357,-0.2543305456638336,0.9977614879608154,0.00332486629486084,0.9978733999515426,1.0750716766939,176.27754940489334,175.9029806463895,1.0,0.00883152294549943,0.012061620413210624,-0.11131752522455747,-0.033876742969686555,93.59200282179344,0.9205113739957178,74,2.466666666666667
1.0592721582278353,0.5831427918724112,0.07754068076610565,0.9998666644096375,0.9400315877442339,0.700206763005126,0.10954506695270538,0.9999605417251587,1.0666268022096907,0.6925438467904419,-0.18726733326911926,0.9999982714653015,0.9615280317282374,1.075588409544596,0.10371838510036469,0.9999847412109375,1.0391760597293416,1.076230149895196,-0.10383561998605728,0.9999960064888,0.9676687449401409,1.3222145557323977,0.24407055974006653,0.49762311577796936,1.0403409920502338,1.3611865520157143,0.007929863408207893,0.9691896438598633,0.9580313189494245,1.5831427918724112,0.33360981941223145,0.7429861426353455,1.0261381762068988,1.6454480353740937,0.09056712687015533,0.9616186022758484,0.944256658985018,1.0599784557767227,0.1269102245569229,0.10780223459005356,1.1530318516043654,1.0844822085992858,-0.25674569606781006,0.9973958730697632,0.003933727741241455,1.0003520457287896,1.0759092797198961,176.45842712239445,176.9054273062425,1.0,0.014086583717899063,0.001289695809798125,0.03977478631812328,-0.08167300167348188,93.75101955895552,0.921673498661897,75,2.5
1.0680116802768587,0.5912875930371704,0.09503483772277832,0.9998272657394409,0.9486875513093831,0.704338364355991,0.12058166414499283,0.9999581575393677,1.076701407317218,0.6972771071350137,-0.18201091885566711,0.9999982118606567,0.9671676589911323,1.0829859180688384,0.10412144660949707,0.9999842643737793,1.0460635415049298,1.085211166486689,-0.10424067080020905,0.9999958872795105,0.9749201166299247,1.3299529893790343,0.24774327874183655,0.48415645956993103,1.0458576470491372,1.3691592411428741,0.01851123943924904,0.964855432510376,0.9653811187543281,1.5912875930371704,0.3550189137458801,0.7302311658859253,1.0320689081912184,1.6547968649153102,0.10866506397724152,0.9557426571846008,0.9651184660991509,1.0752623650686217,0.1412365883588791,0.09816277772188187,1.1591143128237502,1.0931054612307338,-0.2449234277009964,0.9968842267990112,0.0036038756370544434,1.006615600248031,1.0840985422777638,176.11160811520335,177.27782135473095,1.0,0.0032630178427499094,0.014370114034534823,-0.08153694238493214,0.09774085586041711,94.4097276715847,0.9213683729465129,76,2.533333333333333
1.0736579921293963,0.5934373663383915,0.08028274029493332,0.9998038411140442,0.9559008065807388,0.705298207272174,0.12090034782886505,0.9999551177024841,1.0783108342262138,0.6989712800274805,-0.18917223811149597,0.9999980926513672,0.9689309749670265,1.0852739571017362,0.10528558492660522,0.9999836683273315,1.0484303997067617,1.0892280892622412,-0.10541339218616486,0.9999957084655762,0.9776188260105826,1.3319306113431242,0.2486570179462433,0.47955432534217834,1.0470969561205716,1.3713949742708895,0.017573868855834007,0.9624741673469543,0.967341450797382,1.5934373663383916,0.3593796193599701,0.7242778539657593,1.033638544273988,1.6571999696375797,0.10735441744327545,0.9526451230049133,0.9783408106836422,1.0799208846084165,0.1489042192697525,0.08945641666650772,1.1614688955365489,1.0966093386898756,-0.2500796914100647,0.9963791370391846,0.0032243430614471436,1.008680687336894,1.0872510231819887,175.73213546254152,177.57472464096404,1.0,0.004516428421877177,0.012068009273948401,0.009688177284621919,-0.018026788808162397,94.81144689547675,0.9255541489663701,77,2.566666666666667
1.072834597412305,0.5933250451924834,0.11264089494943619,0.9997990727424622,0.9556397826314245,0.706541891707594,0.12252618372440338,0.9999566674232483,1.0812174030363289,0.6993099242207899,-0.16650165617465973,0.9999980926513672,0.9694863488188639,1.0858144367992986,0.10377780348062515,0.9999839663505554,1.0485386315651088,1.0903168057881951,-0.10391490161418915,0.999995768070221,0.9779623565350376,1.3298599903310875,0.2559806704521179,0.485755980014801,1.0461096434560693,1.3719415832923343,0.020476629957556725,0.9624695777893066,0.9679336241964098,1.5933250451924834,0.37243303656578064,0.7262969613075256,1.0333097724529134,1.6573958961006714,0.1204942911863327,0.9513765573501587,0.9546620090193648,1.074518319827806,0.18416906893253326,0.08588284254074097,1.1633923946741762,1.1040795895550704,-0.21385006606578827,0.9962363243103027,0.003683805465698242,1.0090124901919864,1.0880656212937467,175.83094808841216,177.92671571662854,1.0,-0.0011547888616559978,0.0022308117778348812,-0.043151651677757634,-0.07486556474323974,95.35055899944332,0.9283124788806525,78,2.6
1.0778406916609908,0.5983832028953513,0.09571516513824463,0.9997955560684204,0.9566859919162498,0.7107808792525708,0.09359438717365265,0.9999588131904602,1.0894071288942528,0.7032313113288765,-0.1714668571949005,0.9999980926513672,0.9750144621651403,1.0919812530801234,0.10070272535085678,0.9999839663505554,1.0551064975483746,1.0964514624320254,-0.10082364082336426,0.9999957084655762,0.9835037766373312,1.3357604039333324,0.2583765387535095,0.48602294921875,1.0517836121193178,1.377765521351051,0.014906262047588825,0.9613792300224304,0.9732538788962533,1.5983832028953513,0.3691813051700592,0.7267996668815613,1.0368228611881616,1.665029896319573,0.10053659975528717,0.9495153427124023,0.9472941747952115,1.0809243453428534,0.1289113312959671,0.0866677463054657,1.1673134827859049,1.110589905714685,-0.23145270347595215,0.9962548613548279,0.0038240253925323486,1.0150604798567575,1.0942163577560744,175.77048869807078,177.69547185850135,1.0,0.002703752830300551,0.00012435625588255256,0.02907135191092815,-0.015938499627047444,95.94727295351672,0.9296972128899244,79,2.6333333333333333
1.073377866404197,0.5965818984007093,0.0899273008108139,0.9997887015342712,0.9478579077945455,0.708469284296987,0.07787562906742096,0.9999608397483826,1.0907205681778835,0.7027272611303137,-0.1753688007593155,0.9999980926513672,0.9739622564088817,1.0896568865449565,0.09628336131572723,0.9999841451644897,1.0547313992245717,1.093914199679508,-0.09643314778804779,0.9999957084655762,0.9803124839623275,1.334698001478949,0.2631891369819641,0.48527416586875916,1.0499105593887246,1.3735452490013802,0.015751194208860397,0.959641695022583,0.9716275534105564,1.5965818984007094,0.3760814368724823,0.7262296676635742,1.0340499810443162,1.662408236589978,0.0986456423997879,0.946728527545929,0.9311723207159435,1.079790642717311,0.12655505537986755,0.08882763236761093,1.1651157337231108,1.1109890704860443,-0.20907354354858398,0.9961395263671875,0.0029109716415405273,1.0143468278167267,1.0917855431122323,176.61609496659008,177.84490216532637,1.0,0.00128563979419672,-0.01188535955832994,-0.011308515635522978,-0.0959262892249436,96.93484009080056,0.927254624135686,80,2.6666666666666665
1.063884562371346,0.5968743010972435,0.1190541535615921,0.9998012781143188,0.944626853246119,0.7095851654237417,0.06016005948185921,0.9999639987945557,1.0962913089009667,0.7049772576602094,-0.1474848985671997,0.999998152256012,0.9745205482995747,1.0905322913945037,0.08314251899719238,0.999984860420227,1.0567747150240545,1.0940615224915284,-0.08325760811567307,0.999995768070221,0.9801463994764124,1.3382920986096376,0.24850070476531982,0.5120872259140015,1.0492516698998942,1.3735813523396472,0.010690467432141304,0.9612099528312683,0.9687403652837672,1.5968743010972435,0.34246018528938293,0.7411755323410034,1.0327270512377003,1.6621488495017052,0.09250963479280472,0.9476537704467773,0.9192124266938463,1.0857801642020215,0.1033194288611412,0.1278952807188034,1.1633591638777188,1.1153119290456872,-0.17306426167488098,0.9959654808044434,0.00233575701713562,1.0156476316618146,1.0922969069430162,176.17354168031468,178.26427238077775,1.0,0.009332943637934531,0.0030516840369719258,0.06332500639985897,0.11755374043028904,96.9437707322761,0.9262067192368127,81,2.7
1.0544073323089465,0.5920801302703518,0.13553868234157562,0.9998125433921814,0.9385976734325926,0.7070174054051143,0.06965537369251251,0.9999669194221497,1.0930406832566135,0.7020291103699795,-0.1339777410030365,0.999998152256012,0.9697725268614688,1.0864953170187837,0.08192770183086395,0.9999855160713196,1.0524336526433853,1.0894340576598758,-0.08203479647636414,0.9999958276748657,0.973624398783522,1.3362038491671284,0.24185152351856232,0.5360915660858154,1.0448275623850096,1.3678001703200309,0.008426357060670853,0.9623656868934631,0.9624381454108728,1.5920801302703518,0.33488136529922485,0.7535473108291626,1.0283030300830418,1.6551458463328328,0.08728589862585068,0.9476782083511353,0.9100699464298657,1.0848864917574637,0.10983030498027802,0.17190104722976685,1.157750000497635,1.1135030905486434,-0.17193272709846497,0.9955607652664185,0.0025392770767211914,1.0111030897524271,1.0879646873393296,176.6130253601259,178.27385128738123,1.0,-0.0020774971394743515,0.002129020540630491,-0.08935054503910206,-0.007148941563920793,96.73251695258006,0.9288844904772849,82,2.7333333333333334
1.0483827427506387,0.5874026227708986,0.12242648750543594,0.9998247623443604,0.9330081154467343,0.7044671301994053,0.058301836252212524,0.9999696612358093,1.0899534440648804,0.6991568028633879,-0.14739587903022766,0.9999982118606567,0.963312230331069,1.0817941035832979,0.08310369402170181,0.9999862909317017,1.0479372765929218,1.084702049768048,-0.08320792019367218,0.9999959468841553,0.9673245735092899,1.3308513061129534,0.2446935921907425,0.5563222169876099,1.0402971997246526,1.3612738117021197,0.007819431833922863,0.9636877179145813,0.9545570307727812,1.5874026227708986,0.3406490981578827,0.7654725909233093,1.0227351540475251,1.6479799578701635,0.07766105234622955,0.9485158920288086,0.9015753541680377,1.0811256128875772,0.09547378122806549,0.20507878065109253,1.150643865312532,1.1093039996413887,-0.18995842337608337,0.9950850009918213,0.0027149617671966553,1.0056247534619955,1.083248076675673,176.22800405341542,178.07710283842573,1.0,-0.008336466004197695,-4.5480865405988636e-05,-0.04747995496304724,-0.016402065351899774,96.55978232169423,0.9307496354301343,83,2.7666666666666666
1.044523141598765,0.5865952746157763,0.13944345712661743,0.9998377561569214,0.9270991222839229,0.7025207486197502,0.062413763254880905,0.9999722242355347,1.087100811472916,0.6969057635848727,-0.12323057651519775,0.9999982714653015,0.9548230237621492,1.0779020505058214,0.0770965963602066,0.9999868273735046,1.044154633518598,1.0809036719646092,-0.07721775025129318,0.9999959468841553,0.9639387774709588,1.3326404637904217,0.2264842689037323,0.5859925150871277,1.0370038108986612,1.356576992107398,0.0004283586167730391,0.9655719995498657,0.9438150647079044,1.5865952746157763,0.30248796939849854,0.7796088457107544,1.0187101496907238,1.6425186992872993,0.054863374680280685,0.9495852589607239,0.8995659806630845,1.082700555469005,0.09739579260349274,0.24961279332637787,1.1393676182934753,1.1053976094141964,-0.16188406944274902,0.9948953986167908,0.0028808116912841797,0.9994888286403736,1.0794028612352153,173.41983306195945,177.8252726507141,1.0,-0.019440172106108714,-0.0003793499379731397,-0.08280759830130019,-0.0024845344430771874,96.14839366091522,0.9241682317549154,84,2.8
1.0295371096720738,0.5810829809142757,0.14030227065086365,0.9998506903648376,0.9136616199037119,0.6963399886217263,0.0625949576497078,0.9999746680259705,1.0773275863954903,0.690714121966758,-0.12587633728981018,0.9999983310699463,0.9423972302504567,1.0679425255553472,0.07820349931716919,0.9999873638153076,1.034734132161378,1.0712330366484732,-0.07831022143363953,0.9999959468841553,0.9527779188259998,1.3216727328916278,0.2271190881729126,0.6046494245529175,1.0277314621473204,1.3454265200363893,0.000428191851824522,0.9660108089447021,0.9288200435395711,1.5810829809142757,0.30139726400375366,0.7882184386253357,1.007720231254605,1.627973397269053,0.05949680879712105,0.9480687975883484,0.8793709548665264,1.0799963338976413,0.0858929380774498,0.3002558648586273,1.1226710779642033,1.0931971809238785,-0.1831369400024414,0.9943185448646545,0.0029123127460479736,0.9885656812059174,1.06958778110191,172.38061119706256,177.41178965568113,1.0,-0.014350839387067646,-0.0014782837149453863,0.034786429354600086,-0.007799611363931665,96.4627436027623,0.9157389030384664,85,2.8333333333333335
1.0218668346607525,0.5754909783776481,0.13741634786128998,0.9998629689216614,0.9071419672305087,0.6922097645303372,0.06355749070644379,0.9999769330024719,1.0708931646776791,0.6866193408799808,-0.12759791314601898,0.9999983906745911,0.934198221308439,1.05998461338688,0.07886700332164764,0.999987781047821,1.028490300613536,1.0644411570783427,-0.07897178828716278,0.9999959468841553,0.9413515141758458,1.3134544274169462,0.2160399705171585,0.6263813972473145,1.021114958877179,1.338316232041297,-0.008925307542085648,0.9670173525810242,0.9177231108977865,1.575490978377648,0.27532246708869934,0.7979130148887634,1.000976156587031,1.6185172961475494,0.03655334562063217,0.9478927850723267,0.870359514859848,1.0732536357211617,0.0850612223148346,0.34766918420791626,1.110497526243973,1.0842930127115538,-0.19134211540222168,0.9939246773719788,0.0029112398624420166,0.9813442609609875,1.0622128852326114,173.2309079614445,177.43164612566508,1.0,-0.009849718324207684,-0.007471397061968135,0.03208923109001571,-0.043613532633160854,96.91349130333128,0.9124898325239337,86,2.8666666666666667
1.0202908302908607,0.5758852134023358,0.13685373961925507,0.9998728036880493,0.9033944324338592,0.6925584752821508,0.0607970766723156,0.9999788403511047,1.0703365024520624,0.6869188093665807,-0.12708714604377747,0.9999983906745911,0.9319314454361536,1.0604596578226682,0.07686735689640045,0.9999880790710449,1.0281425598981533,1.0653553653724226,-0.07698369771242142,0.9999958276748657,0.9367344516394711,1.3135579240555528,0.20800276100635529,0.64820396900177,1.0209119693928668,1.3393140111815345,-0.00875790510326624,0.9676434993743896,0.9148116424874949,1.5758852134023358,0.26054155826568604,0.809016227722168,1.0000241057855774,1.6194457994008138,0.04394343122839928,0.9481275081634521,0.8668743963175521,1.0735918714145865,0.08365269750356674,0.3909739553928375,1.1082985913231653,1.0848235642585522,-0.19282947480678558,0.9937392473220825,0.00293537974357605,0.9800370026671534,1.0629075115975455,174.13570403244387,177.24752143615734,1.0,-0.013205969458768627,0.0010992440409396437,-0.02445317865460321,0.06256640901053298,97.34837025550401,0.9130199068475653,87,2.9
1.0179974849192663,0.5752303265046949,0.13603755831718445,0.9998815655708313,0.900910005369524,0.6917106249150378,0.05881594493985176,0.9999805688858032,1.0684861093231444,0.6860891238056469,-0.1267888993024826,0.9999983906745911,0.9298451576574966,1.0591148057320598,0.07595784962177277,0.9999882578849792,1.0261505373441564,1.0642133658657826,-0.07607544958591461,0.9999957084655762,0.9335753441336505,1.311782453809025,0.20565614104270935,0.6681509613990784,1.0190717328727823,1.337882149669436,-0.007401874754577875,0.9681884050369263,0.9125275417582152,1.575230326504695,0.25776052474975586,0.8191349506378174,0.9978904501564448,1.6175028756320657,0.04501572251319885,0.9481634497642517,0.8660203373941515,1.0720147027394524,0.08531586080789566,0.4273970127105713,1.1053709481010248,1.0834647310225298,-0.1887577474117279,0.993520975112915,0.0029294490814208984,0.9779978475008265,1.0616640857989212,174.58632716631578,177.14981560932142,1.0,-0.005377199976471503,0.00021984962009905426,0.04883660979183437,-0.005488634775419193,97.53357184202855,0.9119672017023527,88,2.933333333333333
1.0038236531703983,0.5666483547618273,0.12780256569385529,0.9998921751976013,0.8902990218757474,0.6891643854539149,0.03611296787858009,0.9999822974205017,1.0627986446762991,0.6825491719021344,-0.12922048568725586,0.9999984502792358,0.9227842007251787,1.0525377956122886,0.06944344937801361,0.9999886751174927,1.020434652101496,1.0585613806478364,-0.0695764422416687,0.9999957084655762,0.9266989393128757,1.3048117450463983,0.20079314708709717,0.6952163577079773,1.0136836353697705,1.3308855004532083,0.010683981701731682,0.9696169495582581,0.90537260592136,1.5666483547618273,0.2543826699256897,0.8332369327545166,0.9926013153166643,1.6085980537646325,0.06935743987560272,0.9500741958618164,0.8615241087909205,1.0673256069838906,0.07303820550441742,0.47220951318740845,1.096766279939566,1.0778557866946792,-0.17815354466438293,0.9935935735702515,0.0034652650356292725,0.9716094264133374,1.0555495881300625,174.45456041876503,177.07885763616702,1.0,-0.009278685975174639,-0.0042819762523482055,-0.027732618805313636,-0.031764735707441115,98.63842585260316,0.920018145897134,89,2.966666666666667
0.998464964995191,0.5637953608900067,0.12467272579669952,0.9999016523361206,0.8832445730561143,0.6826631943251531,0.025165999308228493,0.9999838471412659,1.0563461027651062,0.6792626964420027,-0.1226394921541214,0.9999984502792358,0.915940971477192,1.0480122793744464,0.061738431453704834,0.9999887943267822,1.013623442742617,1.0535653693929494,-0.06187264993786812,0.9999954700469971,0.9171919901974196,1.2978995190231197,0.18968531489372253,0.7202144861221313,1.0079508145828155,1.324136103456186,0.023751916363835335,0.9700598120689392,0.8995172685353595,1.5637953608900068,0.23978686332702637,0.8455095291137695,0.9874458349872178,1.600194385318407,0.08473511040210724,0.9504687190055847,0.8552780249446442,1.0642061883514722,0.06211913749575615,0.5139849185943604,1.0887730875722725,1.0721961131879039,-0.15863218903541565,0.9934837222099304,0.0017905235290527344,0.9647822071099045,1.050788824383698,175.91017017539005,176.95305496443615,1.0,-0.012330750570431892,0.004622615691871779,-0.021027950001704012,0.06025383028391308,98.36765092667913,0.9182184192872312,90,3.0
0.9894826745165423,0.5565933160154455,0.08525626361370087,0.9999104142189026,0.8731823672618776,0.6776444521712907,-0.0017743415664881468,0.9999852776527405,1.048557939812744,0.6766329479850092,-0.14225271344184875,0.9999984502792358,0.9082968886878409,1.0427951003542908,0.059542279690504074,0.9999890327453613,1.0056181298819087,1.047539571486362,-0.05965552479028702,0.9999953508377075,0.9079446795318656,1.2900531295696465,0.18735003471374512,0.7423068881034851,0.9997536786445912,1.3162348728699365,0.02767167054116726,0.9698029160499573,0.8939584314427128,1.5565933160154455,0.24657049775123596,0.8567432165145874,0.9816560919524709,1.5899384084084591,0.09889281541109085,0.951143205165863,0.8465779167109742,1.061974408010114,0.03794795274734497,0.5539712309837341,1.0805369557988762,1.0660469811005466,-0.19076372683048248,0.9935505390167236,0.0005357861518859863,0.9569575092848748,1.0451673359203264,177.07787066643934,177.46736447825526,1.0,-0.01525731747828855,0.004494070298556544,-0.021832245314322082,-0.0007357931002325655,98.28392342225666,0.9265923892324794,91,3.033333333333333
0.9631137681918261,0.5194045963021715,0.06229434534907341,0.9999188184738159,0.8464255369193732,0.6564918817967683,-0.014139127917587757,0.9999865889549255,1.0153942784873102,0.6578843631183326,-0.1514635682106018,0.9999984502792358,0.8744764135918495,1.0144166369195589,0.05722922086715698,0.99998939037323,0.9720211934084704,1.017729130715799,-0.05732949823141098,0.9999953508377075,0.8785589106847499,1.2581318801675476,0.19621185958385468,0.7623823285102844,0.9693773134086495,1.2785862427169634,0.0505962148308754,0.9683923125267029,0.8668501978596714,1.5194045963021714,0.26838600635528564,0.8675243258476257,0.9526501752121945,1.5424130788415018,0.1595848649740219,0.9513887763023376,0.8193029993274551,1.0338028335116705,0.029420936480164528,0.5900943875312805,1.0455337679450407,1.034459763219209,-0.19211257994174957,0.993604302406311,0.0007600784301757812,0.9232488035001599,1.016072883817679,176.4743783005355,176.95288448580024,1.0,-0.031464159872376884,0.010698783033651932,-0.09722000298160288,0.03698757280917999,96.42610371616692,0.9674783620642627,92,3.066666666666667
0.9630212570161742,0.522770918633373,0.05893441289663315,0.9999263286590576,0.8409627553711828,0.6565324321279515,-0.024161307141184807,0.999987781047821,1.0104904939271042,0.658269305705345,-0.15771283209323883,0.9999984502792358,0.8681321869197038,1.017024545581153,0.054941169917583466,0.9999897480010986,0.9668357044758575,1.0182142701733787,-0.05504976585507393,0.9999953508377075,0.8749518095559455,1.2590453259004537,0.18960040807724,0.7817949056625366,0.966715412402778,1.2779556105891487,0.04868381470441818,0.9682738184928894,0.8658932057226746,1.5227709186333729,0.2612578272819519,0.878151535987854,0.9520974716961913,1.5391466722446707,0.14783552289009094,0.95274817943573,0.8140194031222936,1.032636559040342,0.017563197761774063,0.623509407043457,1.0411175318989385,1.0336353213297913,-0.1961582899093628,0.9938143491744995,0.0009492635726928711,0.9174839456977807,1.0176194078772658,176.4186996734838,176.82323438093562,1.0,-0.03166961249757044,0.01950557833834088,-0.001689430572908257,0.0607613023163561,95.00068008911272,0.9679163913661739,93,3.1
0.9652454167564352,0.529346166060337,0.07249677926301956,0.9999324679374695,0.8338953726982067,0.6602404183934297,-0.011490896344184875,0.999988853931427,1.006450714447795,0.6600548468283673,-0.1553851217031479,0.9999983906745911,0.8660373180157604,1.0205198570585596,0.0551421158015728,0.9999896883964539,0.9648455477160034,1.0206505981788538,-0.05524323508143425,0.9999950528144836,0.8756002609361206,1.26908636040805,0.1936175525188446,0.7968639731407166,0.9661669395901206,1.2824015297912539,0.045204807072877884,0.966718316078186,0.8674686438393981,1.529346166060337,0.26214924454689026,0.885063886642456,0.9534346986605589,1.5413262905702285,0.1409389078617096,0.9511009454727173,0.8089298260416761,1.0336899769783128,0.008484958671033382,0.6546218991279602,1.040990399484026,1.035246418886576,-0.20394079387187958,0.9937861561775208,0.00010126829147338867,0.915441432865882,1.0205852276187066,176.00720174858193,176.89558999705707,1.0,-0.025358479184250302,0.010542636086693691,0.04700526655084209,-0.06647106773582281,95.17389754089146,0.9591672990771489,94,3.1333333333333333
0.9598038154240646,0.5378719445021249,0.07923955470323563,0.9999376535415649,0.8319255273486112,0.6630811710830903,-0.00450111972168088,0.9999897480010986,1.0046616433639346,0.6628905786802186,-0.15497127175331116,0.9999983906745911,0.8689495413332122,1.0250509169661024,0.056091152131557465,0.9999892711639404,0.9667898634020136,1.0250084655934917,-0.05619312450289726,0.9999946355819702,0.8793857780003824,1.2801608501156114,0.17534948885440826,0.8085859417915344,0.9680931315105131,1.289116334640989,0.0310500655323267,0.9645720720291138,0.870917003398194,1.537871944502125,0.23640947043895721,0.8895225524902344,0.9577163487036919,1.5479589171631118,0.12407586723566055,0.9481174945831299,0.8080668687000984,1.0392205708601712,0.027537724003195763,0.6794602274894714,1.0438026864588787,1.0398820224799215,-0.2021539956331253,0.9936605095863342,0.00010356307029724121,0.9178697023676129,1.025029691279797,175.77525737333207,177.42155963463728,1.0,-0.01157297535971045,0.0004432266078750348,0.10673387726325109,-0.07792908458208887,95.81531884399875,0.9441194458200844,95,3.1666666666666665
0.948015697831022,0.5389617189199608,0.09742306917905807,0.9999414086341858,0.8269744838900098,0.6639485748293353,0.012563611380755901,0.9999905228614807,0.9978530403955499,0.6606316539557731,-0.15482576191425323,0.9999983310699463,0.8658033898692045,1.0255377332540994,0.058507345616817474,0.999988853931427,0.96466824534787,1.025011859866322,-0.05859924480319023,0.9999942779541016,0.8744450669212578,1.2806348414663515,0.18434283137321472,0.8155187368392944,0.9648967714161965,1.2906103007082552,0.024983782321214676,0.9628269672393799,0.8708473729051502,1.5389617189199607,0.25042518973350525,0.8901063203811646,0.9582913582241614,1.5490913948410185,0.10394178330898285,0.9433495402336121,0.8024227495176476,1.0423253987296937,0.03279276564717293,0.6985184550285339,1.0429283255756672,1.040558328040939,-0.21372780203819275,0.9932699799537659,0.0018011927604675293,0.9152358176085372,1.0252747965602107,177.26188714293673,178.48684233755802,1.0,-0.025307232172821832,-0.003168752263454919,-0.10809727339286865,-0.02844589924357713,95.82440547107299,0.9395909422187819,96,3.2
0.8979778948129767,0.5325402582202905,0.11956004053354263,0.9999464154243469,0.8109135402012115,0.6632427105066112,0.008872011676430702,0.9999911785125732,0.9837945118586497,0.6564570227557001,-0.10863568633794785,0.9999983906745911,0.853271839702215,1.0191699454017702,0.04920482635498047,0.9999890923500061,0.9536452855970949,1.016541850965008,-0.049329616129398346,0.9999943971633911,0.8631093580755145,1.2761953491110185,0.17014643549919128,0.826012909412384,0.9583046876000184,1.2865565058358512,0.03341534361243248,0.9632285237312317,0.8666191192174235,1.5325402582202905,0.2311783730983734,0.8947215676307678,0.9551359397111766,1.5441075722011992,0.11173578351736069,0.9425041079521179,0.7927385131384479,1.0394099272552477,0.03457752615213394,0.7189215421676636,1.0365678036437702,1.0366893713396332,-0.1715233027935028,0.9936489462852478,0.0036963224411010742,0.903458562649655,1.0178558981833892,178.5925221625563,178.30649995385738,1.0,-0.06446495152190995,-0.030553439876230656,-0.2830920281456385,-0.19765292516888464,95.2869117861111,0.9324215076673231,97,3.2333333333333334
0.893257390358013,0.5313692430949952,0.13700884580612183,0.9999507069587708,0.8094223612504887,0.6636144189569416,0.010251904837787151,0.999991774559021,0.9829619401005707,0.6562169788878164,-0.09054931253194809,0.9999984502792358,0.8503433019881711,1.018575987181205,0.04536933824419975,0.9999892115592957,0.9519165028314552,1.0158388681835209,-0.04550141468644142,0.9999944567680359,0.8615494663848428,1.2729740534244065,0.17363661527633667,0.8384581804275513,0.9550693576657105,1.2859231145734498,0.044806476682424545,0.9643904566764832,0.8662623970162395,1.5313692430949952,0.2310297042131424,0.9011848568916321,0.9543800739924476,1.5433909103586692,0.11692751944065094,0.9435045123100281,0.7890913366492304,1.039123465668434,0.06523089110851288,0.738323986530304,1.0352619677178552,1.0362467836800988,-0.11854799836874008,0.9939607381820679,0.004031270742416382,0.9011299024098132,1.017207427682363,178.52268262781263,179.17779263295625,1.0,-0.013875294676339502,-0.0015415260036053587,0.36072878770439165,0.20688846002488137,95.03259356503027,0.9339676242316901,98,3.2666666666666666
0.8816185626607286,0.5195937338619975,0.14966991543769836,0.9999551773071289,0.7996764907333933,0.657549088844848,0.01841626688838005,0.9999924302101135,0.9708465966269213,0.6485983472948093,-0.07904001325368881,0.9999985098838806,0.8387983749180749,1.0101579564342882,0.04457402974367142,0.9999895095825195,0.9404952078411853,1.0072101717897834,-0.04469605162739754,0.9999946355819702,0.8503971061589024,1.2630719720709676,0.1784489005804062,0.850798487663269,0.9467246668377919,1.2764353782802085,0.053207822144031525,0.9658991098403931,0.859152454366235,1.5195937338619974,0.23973414301872253,0.9071946144104004,0.9457317928585172,1.5325021814127564,0.13812360167503357,0.9444145560264587,0.7804031281176612,1.0283641206789242,0.07662142068147659,0.7589122653007507,1.0246539816809104,1.0257411048524436,-0.1168014407157898,0.9943450093269348,0.004913389682769775,0.8896467913796301,1.0086840641120358,179.32903823200715,178.45234225480385,1.0,-0.03722220302396757,-0.008615350435415546,-0.1764357524175389,-0.05331252719939483,94.67075127113974,0.9451857201673481,99,3.3
0.8658860189294887,0.5157444351084537,0.1634383499622345,0.9999592304229736,0.7924137942242903,0.6559747180648171,0.0263676680624485,0.9999930262565613,0.9643636745809504,0.6462115289915017,-0.06180364638566971,0.9999985694885254,0.8317634783626225,1.0057019247490253,0.04142601415514946,0.9999898076057434,0.9339954482982041,1.0026917990815336,-0.04155483469367027,0.9999947547912598,0.8414486568362476,1.259791224132579,0.15644033253192902,0.8626254796981812,0.9427532215939841,1.2733208624721883,0.05256248638033867,0.9677144289016724,0.8558786675139485,1.5157444351084537,0.20454883575439453,0.9128413796424866,0.9433056883270681,1.5293943397892522,0.10897113382816315,0.9457178115844727,0.7754250900507773,1.023257126728761,0.0843549445271492,0.779043972492218,1.0187072668498833,1.0158954181232709,-0.0873267874121666,0.9946991801261902,0.0053709447383880615,0.8828794633304133,1.0041968619152795,178.95612029855337,178.270122312565,1.0,-0.03616410970701496,-0.017251298403241345,0.007291066936475992,-0.06452732427909225,94.73312215699188,0.9423578314595713,100,3.3333333333333335
0.8520476931387845,0.5085880535904165,0.16468046605587006,0.999962568283081,0.7832576246739097,0.6503439907893056,0.02702566422522068,0.9999935030937195,0.9561413968219351,0.6334793792930763,-0.06442993134260178,0.9999986290931702,0.823767325666635,1.0001816878395828,0.04244391620159149,0.9999902248382568,0.9250232152189802,0.9972291660700737,-0.04257119446992874,0.9999949336051941,0.8350921568288013,1.2573987101080188,0.16395007073879242,0.8723113536834717,0.9346187491819598,1.2675305171124975,0.06302569061517715,0.9689566493034363,0.8505774723365569,1.5085880535904166,0.22639203071594238,0.9177390933036804,0.938489363495564,1.522546252875713,0.14489580690860748,0.9467342495918274,0.765008701763537,1.015564268015072,0.09084524214267731,0.796170175075531,1.0069858408061827,1.005783972241938,-0.08678049594163895,0.9947014451026917,0.009319692850112915,0.8743952704428076,0.9987054269548282,178.9933036995609,178.83645365896865,1.0,-0.03377398326126924,-0.007175472501722492,0.016727538957210006,0.07510462931148505,94.93497241055624,0.9485184820194839,101,3.3666666666666667
0.8575571759175558,0.5114815578111049,0.1564342975616455,0.9999650120735168,0.7841560096309368,0.6518037035337487,0.029172345995903015,0.9999938607215881,0.9551516739581876,0.6356992279651946,-0.07834073901176453,0.9999986290931702,0.8213385233633778,1.0022589905201311,0.04407408460974693,0.9999904632568359,0.9236024485846569,0.9993553539913004,-0.04421214759349823,0.9999949932098389,0.8349554339194061,1.2602825686627452,0.1850138008594513,0.8786664009094238,0.9348877263604979,1.2699997681285002,0.05843840166926384,0.9693614840507507,0.8512049778108703,1.511481557811105,0.26354724168777466,0.9210860729217529,0.9403333014982953,1.5254269259671054,0.14745131134986877,0.9467142820358276,0.7608138462633584,1.017477544001941,0.07772422581911087,0.8113077282905579,1.0062790694029233,1.0088085766727435,-0.11614573001861572,0.9948002099990845,0.008879870176315308,0.8724704859740173,1.0008071722557157,179.3197304891686,178.8336064392934,1.0,-0.029654916307198482,-0.000922277132349226,0.032136732251241175,0.04803530476828163,94.42990182834588,0.944767244032645,102,3.4
0.8499119635942392,0.5123093576690326,0.16397777199745178,0.999967634677887,0.7812540057727478,0.6524166715434555,0.029373962432146072,0.9999942779541016,0.9541924032213417,0.6397837150443763,-0.056733835488557816,0.9999986886978149,0.8186309957595194,1.0025202091066108,0.04273199662566185,0.9999909400939941,0.9190440426499256,0.9988419023652083,-0.042870841920375824,0.9999951720237732,0.8352696979632475,1.2607782532932388,0.17541652917861938,0.8860933780670166,0.9332326316995315,1.269511581571298,0.05423878878355026,0.9707610607147217,0.8520089467531458,1.5123093576690327,0.23990373313426971,0.925475001335144,0.9409919723908485,1.527201502389915,0.12802474200725555,0.9487261772155762,0.7558153949533727,1.017921631210699,0.06861958652734756,0.8267678618431091,1.0009525693790375,1.0098115944114054,-0.07711898535490036,0.9949551820755005,0.006960928440093994,0.8688375192047225,1.0006810557359096,179.87889409098312,178.72400475672728,1.0,-0.03327808447955297,-0.0063917299420254165,-0.028333553119756747,-0.04300825520175135,93.99589798764835,0.9402197866475812,103,3.433333333333333
0.8448227926507924,0.5140469326079307,0.15905436873435974,0.9999704957008362,0.7806819625512608,0.6520940077489935,0.028601303696632385,0.999994695186615,0.9528845684164992,0.644679414717369,-0.059719692915678024,0.9999987483024597,0.8148879105801716,1.0037800523148583,0.04322127625346184,0.9999914765357971,0.9154524002698599,0.9998718718120261,-0.043355368077754974,0.9999954104423523,0.8330694954078013,1.2621405248880069,0.1772991120815277,0.8940221071243286,0.932494748964604,1.2700299936932338,0.05706598237156868,0.9724528789520264,0.8531962350891228,1.5140469326079307,0.24575276672840118,0.9302064776420593,0.9434755404588852,1.5291124464025059,0.1352609395980835,0.9511440396308899,0.7510183374939794,1.0193294855886115,0.07958589494228363,0.8395190238952637,0.9963017201128005,1.012603351413163,-0.07654238492250443,0.9949291348457336,0.004080444574356079,0.8651701554250157,1.0018259620634422,179.45733934626293,178.81733760018116,1.0,-0.03697346422638524,-0.0008148305802285763,-0.028426824122548627,0.04345050735726668,93.32973743040502,0.9373874686780316,104,3.466666666666667
0.8460225799261213,0.5175148594370543,0.16014012694358826,0.9999730587005615,0.7734159185270054,0.6529153270116942,0.028155047446489334,0.9999951124191284,0.949143343588,0.6469634210227317,-0.06221528723835945,0.9999988079071045,0.812662514928823,1.0056263340535019,0.04287605732679367,0.9999918341636658,0.9144529654258433,1.000955357940486,-0.04301241412758827,0.9999955296516418,0.8334219811252842,1.2651404501934567,0.17764919996261597,0.900737464427948,0.9313408576625084,1.2704998651310397,0.05779894068837166,0.9737393856048584,0.8536488558688814,1.5175148594370544,0.24590642750263214,0.933584451675415,0.944421303744847,1.5306178559564811,0.13379575312137604,0.9527322053909302,0.7507197709222522,1.0200541687518594,0.07214300334453583,0.8522552847862244,0.99068851254715,1.0137475270410097,-0.08818281441926956,0.9950852990150452,0.00327223539352417,0.8635577401773332,1.0032908459969938,179.99130626945393,179.29369239993446,1.0,-0.018190764065696297,0.0034469439268675134,0.13844115637741514,0.03135673705861968,93.72190069178136,0.9312393324616264,105,3.5
0.8405613228301568,0.516544622334075,0.14820048213005066,0.9999754428863525,0.764143339400677,0.6542105538043413,0.028121283277869225,0.9999954700469971,0.9364896929227695,0.6459025317075751,-0.08373121172189713,0.9999988675117493,0.8059112320903334,1.0053603700484943,0.04921041429042816,0.9999921321868896,0.9077129012099977,0.9985087375264506,-0.049323711544275284,0.9999957084655762,0.8291805387814208,1.2638281316484912,0.1955956071615219,0.9046429991722107,0.9256396257343178,1.267000970710117,0.055034853518009186,0.9745749831199646,0.8507303141945458,1.516544622334075,0.26353719830513,0.935896635055542,0.9419373263180956,1.5259725240485131,0.13245835900306702,0.953875720500946,0.7451077648266861,1.0210331699119009,0.071683369576931,0.8624131083488464,0.9816765354267021,1.0103419501292676,-0.1382075846195221,0.9951542019844055,0.004579514265060425,0.8568120666501655,1.0019345537874726,179.72961599157117,179.7811492940076,1.0,-0.03477295250676323,0.009734552983424717,-0.12864108005504366,0.04870836529520428,92.93282472613616,0.9324812551255607,106,3.533333333333333
0.8399097368068761,0.5151478462912022,0.14818120002746582,0.9999775886535645,0.7592656964926863,0.653510205587075,0.03939592465758324,0.999995768070221,0.9277168128670682,0.6451437362021621,-0.09114359319210052,0.999998927116394,0.799375866967688,1.0049656420641124,0.0556972436606884,0.9999923706054688,0.9018399385198506,0.9973878712789883,-0.05579328536987305,0.999995768070221,0.8260957118827043,1.2653006583324724,0.1988130509853363,0.909707248210907,0.9233190013936285,1.2639374328991917,0.03441845625638962,0.9757822751998901,0.8488780580161398,1.5151478462912022,0.26158231496810913,0.9389065504074097,0.9407769704545026,1.5231310637786348,0.09890177845954895,0.9555533528327942,0.7387832397578401,1.019965117975108,0.07299000769853592,0.8731678128242493,0.9766097538228932,1.0031064626465485,-0.17096088826656342,0.9953116774559021,0.004617244005203247,0.8506079027437693,1.0011767566715504,179.3500023455294,179.24628660408212,1.0,-0.04017200802680621,0.0033994291821796935,-0.04218310148452646,-0.049028834528878386,92.28113137777083,0.9351695737583975,107,3.566666666666667
0.8355103504884264,0.5190493152652172,0.15985079109668732,0.9999793767929077,0.7546445637909817,0.6578735267255534,0.05017281323671341,0.9999960064888,0.9259156051343439,0.6486298860369208,-0.08374122530221939,0.9999989867210388,0.7977901275896527,1.0077234578833063,0.056228507310152054,0.9999925494194031,0.9002816288509935,0.9999349104216863,-0.056331224739551544,0.9999958276748657,0.8276816770887608,1.2674541603124907,0.18445681035518646,0.9162006974220276,0.9252988245212044,1.2651049788762116,0.012575109489262104,0.9775969386100769,0.8512809813125763,1.5190493152652174,0.21695485711097717,0.9430525898933411,0.9433745578159534,1.5261310830461792,0.051728177815675735,0.9585939645767212,0.7363814136654974,1.0236279501364012,0.07294400781393051,0.8836489915847778,0.9778718177179897,1.0061596834718716,-0.15590956807136536,0.9955988526344299,0.0050872862339019775,0.8490358782203231,1.0038291841524962,178.79349325236723,178.57177917761163,1.0,-0.030727564029622796,-0.0008772392316404288,0.07488895690073336,-0.03359141348755522,92.68487876583137,0.9308314088950395,108,3.6
