nose_x,nose_y,nose_z,nose_visibility,left_shoulder_x,left_shoulder_y,left_shoulder_z,left_shoulder_visibility,right_shoulder_x,right_shoulder_y,right_shoulder_z,right_shoulder_visibility,left_hip_x,left_hip_y,left_hip_z,left_hip_visibility,right_hip_x,right_hip_y,right_hip_z,right_hip_visibility,left_knee_x,left_knee_y,left_knee_z,left_knee_visibility,right_knee_x,right_knee_y,right_knee_z,right_knee_visibility,left_ankle_x,left_ankle_y,left_ankle_z,left_ankle_visibility,right_ankle_x,right_ankle_y,right_ankle_z,right_ankle_visibility,left_wrist_x,left_wrist_y,left_wrist_z,left_wrist_visibility,right_wrist_x,right_wrist_y,right_wrist_z,right_wrist_visibility,trunk_lateral_inclination,center_mass_x,center_mass_y,left_knee_angle,right_knee_angle,person_height,center_mass_velocity_x,center_mass_velocity_y,center_mass_acceleration_x,center_mass_acceleration_y,body_orientation,torso_leg_ratio,frame,timestamp
1.0203619697979776,0.5080014901823698,-0.26617202162742615,0.9999107718467712,0.9686792844103271,0.6068679490411718,0.00646952772513032,0.9999589323997498,0.9411390112704417,0.608514428363835,-0.33290237188339233,0.9999482035636902,0.9804745014911596,0.994341564356604,0.10815192759037018,0.9998030066490173,0.9626488313831604,1.010961122730822,-0.1084594577550888,0.9998349547386169,1.0009367781202858,1.2605303289245338,0.23108434677124023,0.9139232039451599,0.9703385992042747,1.3021084876217726,-0.06600301712751389,0.9658878445625305,0.9844349046432767,1.50800149018237,0.342328816652298,0.8540804386138916,0.9496125351529489,1.5661886430799299,-0.019367558881640434,0.9408571124076843,1.051240310605728,0.9792374367278612,0.02222907729446888,0.8998584151268005,1.0124592282311067,1.046727612442294,-0.5467149615287781,0.9912062883377075,0.0009289681911468506,0.97156166643716,1.002651343543713,171.7892939238939,173.99945656029146,1.0,0.5717133878108731,-0.25121757784347354,3.1462725455649334,-1.3385525905673878,131.25096555232852,0.9299981744055715,0,0.0
1.0405871155066708,0.5218851288703038,-0.19101127982139587,0.9999020099639893,0.9800811897944159,0.6270846698138851,0.04983511567115784,0.9999549984931946,0.9655947532998145,0.6290591965745164,-0.3225027918815613,0.9999526739120483,1.0022968810727917,1.0016286141472184,0.11333291232585907,0.999819278717041,0.9882518695803915,1.0119522668309138,-0.11359445005655289,0.9998501539230347,1.0048724110119815,1.2685030202594996,0.2386256754398346,0.8498470783233643,0.9873618774665595,1.3056670399751327,-0.064827099442482,0.9502187967300415,0.9906389331095614,1.5218851288703037,0.3536497950553894,0.824754536151886,0.9698211765036965,1.5666010232191043,0.004046016372740269,0.9397137761116028,1.0697790487179275,0.958874028326672,0.026154115796089172,0.8165671229362488,1.0351934371049853,1.0468783545262106,-0.5181758403778076,0.9914965629577637,0.0011040568351745605,0.9952743753265916,1.006790440489066,176.23191950954083,176.32781863468077,1.0,0.1127091687740808,-0.03735984070550481,-3.5083692646326043,1.6335704510735847,122.9229304831192,0.9058017951898549,1,0.03333333333333333
1.0438284168298482,0.5311290524618562,-0.18303854763507843,0.9999023079872131,0.9822558351917656,0.6394550609133958,0.08744029700756073,0.999944269657135,0.9657929983051954,0.6376778715053355,-0.27744823694229126,0.9999562501907349,1.0008199941971947,1.0042162412168332,0.11397685110569,0.9998307824134827,0.9896196164795387,1.013986794870834,-0.11428557336330414,0.9998627305030823,1.0062988273408484,1.2776518124130785,0.2366265505552292,0.8014768958091736,0.9942393774938948,1.3123123322459318,-0.07088544219732285,0.9433021545410156,0.9934221669302197,1.5311290524618562,0.353543221950531,0.8052482008934021,0.9797673738880187,1.5690249038843465,0.006536056287586689,0.9398422837257385,1.0699629883804713,0.9567480094343763,0.06422587484121323,0.7420465350151062,1.0329919456634737,1.0368543442348273,-0.4877389967441559,0.9918109774589539,0.0009894073009490967,0.9952198053383667,1.0091015180438336,175.94398764674116,175.88621232614742,1.0,-0.0327834559625058,-0.01548575304275576,-1.0905533457430503,0.16462331176342918,128.18604117163386,0.8879795572308844,2,0.06666666666666667
1.05143303447259,0.535518483048956,-0.21077227592468262,0.9999040365219116,0.9899320693331641,0.6456261549094165,0.06986753642559052,0.9999366402626038,0.9656991532922403,0.6390240097253602,-0.282997190952301,0.9999594688415527,1.008018433621621,1.0129928437299445,0.11467579752206802,0.9998418688774109,0.9911837256876097,1.0178648975038684,-0.114926777780056,0.9998740553855896,1.0112881259163922,1.2853911706240768,0.24606391787528992,0.7570950388908386,0.9945349798193712,1.317810546290302,-0.07531358301639557,0.929931640625,0.9990815404499035,1.535518483048956,0.3684203326702118,0.7845929861068726,0.981291363070147,1.5778717025839533,0.009234867058694363,0.9352789521217346,1.0838740665843039,0.9566540856365888,0.03741578012704849,0.6792076230049133,1.0411301690824288,1.0424268622240103,-0.5139598846435547,0.991719663143158,0.0036523640155792236,0.9996010796546152,1.0154288706169066,176.51838893713818,176.44459854302866,1.0,-0.01547583798049258,-0.0007021425176478156,0.13929044428985826,0.11834458991675298,103.32218757120873,0.8916622779021095,3,0.1
1.0571882012658076,0.5338932953028052,-0.20244912803173065,0.9999010562896729,0.9954862716937235,0.6544224275733296,0.07612694799900055,0.9999293684959412,0.9697777110727293,0.6441329695937796,-0.28741833567619324,0.9999623894691467,1.0158302181583085,1.0079572803183907,0.11855819076299667,0.9998520612716675,0.9984684270960377,1.0125955759774887,-0.11877164989709854,0.9998844265937805,1.0131839188305287,1.2869723634568262,0.2418733537197113,0.7144458889961243,1.0046554885489407,1.3182199541544564,-0.09412114322185516,0.9220569729804993,1.0027735699651676,1.5338932953028053,0.36118608713150024,0.7663649916648865,0.9821975735533994,1.5864044898745233,-0.037999823689460754,0.9344104528427124,1.0970035820683133,0.9531379132524633,0.045269858092069626,0.6223161220550537,1.0437817480497693,1.045883605865868,-0.5366449952125549,0.991908848285675,0.005671799182891846,1.007149322627173,1.0102764281479397,178.12920358791965,174.05345173770326,1.0,0.029193836882458444,-0.06510288764742614,0.33058224638649075,-0.4759915712142168,101.66413699882014,0.8708058014298695,4,0.13333333333333333
1.0638327117642163,0.5324177441728676,-0.22802026569843292,0.999895453453064,1.0023476111556833,0.6615037316675835,0.04353366792201996,0.9999245405197144,0.9753866446901237,0.6496347373273105,-0.31946083903312683,0.9999651908874512,1.0248972726724435,1.0113370971474556,0.11842761933803558,0.9998624324798584,1.005237488187979,1.0162225386631119,-0.11860436201095581,0.9998943209648132,1.0162799735712564,1.2869447468040704,0.27073580026626587,0.6714690327644348,1.0084263741749635,1.3158807575306095,-0.08687639981508255,0.9164044260978699,1.0068001736944538,1.5324177441728675,0.40293607115745544,0.7500084638595581,0.9880672735404815,1.588853784349726,-0.018722616136074066,0.9349451065063477,1.1038350938471742,0.9697594351358213,0.02388804219663143,0.5693977475166321,1.0490718317984515,1.0529324564937357,-0.5411539077758789,0.9920169115066528,0.00651589035987854,1.0150673804302113,1.0137798179052837,179.57927939311784,175.12491184797608,1.0,0.0290934033377507,-0.004728429689359753,-0.0016772307887148632,0.4632395015094554,100.26719988601452,0.8842784953794293,5,0.16666666666666666
1.063438472051007,0.5356191220526587,-0.21678540110588074,0.9999005794525146,1.0016994863832442,0.6626035405477304,0.05701599642634392,0.9999203085899353,0.9781582475132012,0.6530724418703717,-0.31648269295692444,0.9999680519104004,1.0228060879407863,1.015396222986871,0.11921511590480804,0.9998716115951538,1.0091885715925075,1.0192230286001422,-0.11939994990825653,0.9999033808708191,1.015283749784834,1.2894987411694954,0.256730318069458,0.6255380511283875,1.0099906630941846,1.3136830876817176,-0.08960199356079102,0.9059152603149414,1.0069709477915696,1.5356191220526587,0.38240766525268555,0.7218424677848816,0.98917931727571,1.5908538965498655,-0.02648824080824852,0.931318461894989,1.1007927241683286,0.972855923892916,0.03780433535575867,0.517385721206665,1.053391844030205,1.055612293244914,-0.5163582563400269,0.9920116662979126,0.0052277445793151855,1.015997329766647,1.0173096257935066,179.63755370859246,175.54993893695556,1.0,0.00016394460438214656,0.01988260845305892,-0.21951606113219693,0.1866121575919964,102.2727030331269,0.8861238817987063,6,0.2
1.0655085638386823,0.5412791479788852,-0.2199014127254486,0.9999048709869385,1.0052536185671461,0.6651568182031256,0.06508367508649826,0.9999181628227234,0.9812377617788348,0.6571185376032938,-0.3230108916759491,0.999970555305481,1.0268145816695022,1.0189157303970977,0.12290970236063004,0.9998801946640015,1.0106672701699948,1.021216368806814,-0.12309123575687408,0.9999114274978638,1.0181726887272424,1.2950337650082753,0.24467496573925018,0.5890163779258728,1.0125992221173505,1.317739051527367,-0.08590163290500641,0.8945725560188293,1.0098519519996825,1.5412791479788852,0.37310606241226196,0.7059421539306641,0.996454963019069,1.5922767054038185,-0.001621756935492158,0.9279118180274963,1.1041880471020393,0.9703951965670079,0.033452846109867096,0.4748857021331787,1.056901119424544,1.0587280905725933,-0.5085610747337341,0.9919525384902954,0.004395008087158203,1.0187409259197484,1.020066049601956,179.8573353726647,176.26128495135347,1.0,-0.00352339480732142,-0.003459501128675879,-0.027188266204971133,-0.17255147028245166,94.62105921606474,0.8795649061141969,7,0.23333333333333334
1.0595270777895642,0.5432130564152537,-0.24342504143714905,0.9999127388000488,0.9973184374674265,0.6633331055062754,0.04156135395169258,0.9999123811721802,0.9809789418743576,0.6571929216144967,-0.3316628634929657,0.9999728202819824,1.0238182586041553,1.017426812460759,0.12245188653469086,0.999885618686676,1.0104078903633125,1.0200182772761868,-0.12265054136514664,0.9999181628227234,1.011903827837128,1.2965162632904328,0.281757652759552,0.5544236302375793,1.0095234428876987,1.3178011828846092,-0.07411247491836548,0.8883731961250305,1.006782232077691,1.5432130564152537,0.41830283403396606,0.6891676187515259,0.9916292859013711,1.5922665600501285,0.006792421452701092,0.9247362017631531,1.097907944057637,0.9716614133227065,0.029310673475265503,0.43421146273612976,1.0542076694200029,1.0574425961453293,-0.5181475877761841,0.9919585585594177,0.003365427255630493,1.0171130744837338,1.018722544868473,178.74483558514277,176.43997427736267,1.0,0.006509125160645776,0.008683218180832421,0.07577928844662209,0.09173326259349641,96.65726842191066,0.8690838084630726,8,0.26666666666666666
1.0567262595405995,0.5426815331847898,-0.25403857231140137,0.9999192357063293,1.0013744428600602,0.6632118435370191,0.03563909977674484,0.999907374382019,0.9782893007997998,0.656159640731426,-0.33695176243782043,0.9999749660491943,1.024504133841039,1.017184854822945,0.12262707948684692,0.9998914003372192,1.0064648633154905,1.0171710555231128,-0.12279681116342545,0.9999246597290039,1.0124566931520866,1.2949650864132256,0.2582419514656067,0.5245210528373718,1.0095462361024345,1.3163007597601117,-0.10110294818878174,0.887189507484436,1.005963199005842,1.5426815331847898,0.3958699107170105,0.676609992980957,0.9890971949337446,1.595962694299167,-0.03282826393842697,0.9247974753379822,1.0970657418745349,0.9681834324628311,0.0032891046721488237,0.4013604521751404,1.0521987853247814,1.0576520078443044,-0.5340316295623779,0.9922527074813843,0.003868579864501953,1.0154844985782647,1.017177955173029,179.01818943290726,175.22775223654568,1.0,-0.0059887911214591425,-0.005322568854654701,-0.09751370167061948,-0.10926952713678699,86.21760254732119,0.8621519693219344,9,0.3
1.0515438035076525,0.5416750800219117,-0.325778990983963,0.9999269247055054,0.9952262346936305,0.6607877110962074,0.027747873216867447,0.9998996257781982,0.9784010050625328,0.6550975289142662,-0.3478565514087677,0.9999768733978271,1.020909637070203,1.0149151925664641,0.12463758140802383,0.999893069267273,1.0073480759336033,1.016161822912719,-0.12482257932424545,0.9999297261238098,1.0097466338948986,1.2922231016477246,0.2870733141899109,0.5021453499794006,1.0100730007443484,1.3152835417651234,-0.08322294056415558,0.8906903266906738,1.0030545965037898,1.5416750800219117,0.44278818368911743,0.6700384020805359,0.9851839527413867,1.5928795681945536,0.019913695752620697,0.9260438680648804,1.0856578077173733,0.9675041230632736,-0.005131835117936134,0.36925095319747925,1.0498798960242026,1.0555476486119089,-0.5292837619781494,0.9925954341888428,0.0031300783157348633,1.0141288565019033,1.0155385077395915,179.2315113424023,174.35466749016956,1.0,0.011124720738640088,0.0089856388081529,0.13102352606981715,0.10953902704721308,91.1039229838217,0.8609587692662849,10,0.3333333333333333
1.0536556927986416,0.5411172246420924,-0.3188236355781555,0.9999338388442993,0.9985831070952935,0.660975301943987,0.02440582774579525,0.9998997449874878,0.9790087829121727,0.656804090387378,-0.3638056218624115,0.9999788403511047,1.0255133543092614,1.0176374207804988,0.12777887284755707,0.9998994469642639,1.0114351828355281,1.018838547325162,-0.12792053818702698,0.9999356269836426,1.0131010619775977,1.2924471189220041,0.2933730483055115,0.4851631224155426,1.0120764567418303,1.3156914796171355,-0.08711951971054077,0.8968101739883423,1.0041873872485068,1.5411172246420926,0.44957786798477173,0.6697636246681213,0.9863621004624457,1.5949211584292318,-0.006934759207069874,0.929993212223053,1.0843508594421938,0.974126546563059,-0.011023832485079765,0.34140580892562866,1.0509412162871847,1.0581245262299972,-0.5582572221755981,0.9929858446121216,0.0022901594638824463,1.0184742685723949,1.0182379840528304,179.46679704751048,174.6146798928261,1.0,0.018201344325668254,0.005780573888227038,0.053156172013008686,-0.024275928031953057,90.55857197648689,0.869416997321517,11,0.36666666666666664
1.0517075428363873,0.5407732497070251,-0.33784204721450806,0.9999402761459351,0.9956915715018171,0.6598930579329741,0.023142213001847267,0.9999027252197266,0.9785457336978278,0.6557398231236752,-0.36630135774612427,0.9999807476997375,1.0241423012755935,1.0175162196661702,0.13269692659378052,0.9999062418937683,1.0092424052732656,1.0185382956836302,-0.1328393816947937,0.9999412894248962,1.016523001755137,1.2909340848302482,0.30683010816574097,0.46882718801498413,1.011655203344416,1.314433479569437,-0.11830500513315201,0.9049522876739502,1.0034805480089317,1.5407732497070252,0.47892507910728455,0.6720154881477356,0.9866450975827105,1.5965978462305563,-0.0633419007062912,0.9351150989532471,1.0774347616938798,0.9804388688750567,-0.01265738345682621,0.31737539172172546,1.0491846283065043,1.0578035465961864,-0.554897129535675,0.9933501482009888,0.0022818148136138916,1.0166923532744294,1.0180272576749,178.60791895533956,174.46753833222147,1.0,-0.008024993032347764,0.003424824604129696,-0.19105127611998113,-0.017140754946714874,89.37553573710096,0.8683542538026986,12,0.4
1.0527798811074827,0.5399810301343801,-0.32378023862838745,0.999946117401123,0.995343952716147,0.6597823595231944,0.03439949080348015,0.9999061822891235,0.9778655769027311,0.6534590528887736,-0.3564712405204773,0.9999825358390808,1.02456675222992,1.0187723284454238,0.13075874745845795,0.9999120831489563,1.0072776082357422,1.0193709654226348,-0.13091692328453064,0.9999463558197021,1.0176821012917867,1.292751666784371,0.2910071611404419,0.44373223185539246,1.0111116424849644,1.3168037584066616,-0.10670491307973862,0.9095800518989563,1.0035097996949167,1.5399810301343801,0.45217567682266235,0.6595107316970825,0.9867520898689377,1.5982164439628184,-0.05422031879425049,0.9373570680618286,1.0765076838921002,0.9866450430681524,0.01157595869153738,0.2918013334274292,1.0492373485419406,1.0581468776559835,-0.528247058391571,0.9937601089477539,0.003471583127975464,1.015922180232831,1.0190716469340293,178.15858418254524,174.31418759338663,1.0,-0.01148622290984549,0.002424485301193689,-0.026504247133268485,-0.007691582959603886,87.32929791425993,0.8729784439909866,13,0.43333333333333335
1.0537736524148646,0.5401360309133801,-0.31872838735580444,0.9999514222145081,0.9961083337557912,0.6598561013168788,0.03846665471792221,0.9999117851257324,0.9784156322152352,0.6522745706020675,-0.3490835428237915,0.9999841451644897,1.023748765159516,1.0200227676303653,0.13031479716300964,0.9999182224273682,1.0069694421365472,1.0210839385077286,-0.1304701268672943,0.9999510049819946,1.020753470444435,1.2921762039195512,0.2928563058376312,0.42164963483810425,1.0109909157143975,1.3181692938660357,-0.10056455433368683,0.9150896072387695,1.0044774021406746,1.5401360309133802,0.4605194926261902,0.6487959027290344,0.9880495206555852,1.6007407874692074,-0.03158806636929512,0.940670907497406,1.0760597622314343,0.9925805518621049,0.005175297148525715,0.27348509430885315,1.0488995473261291,1.0589388867181886,-0.5137828588485718,0.9939516186714172,0.004158377647399902,1.0153591036480316,1.020553353069047,176.8750623280881,174.58292188752745,1.0,-0.0115964497451203,0.0038046880251626403,-0.0007483570010578958,0.010393414779905127,89.23025072633348,0.8759262757396095,14,0.4666666666666667
1.0532938319438738,0.5389628763733875,-0.3118053376674652,0.9999561309814453,0.9922373052428616,0.6586470728894178,0.02755066379904747,0.9999170899391174,0.9767786544912013,0.650511454948975,-0.35800036787986755,0.9999855756759644,1.0188362289907869,1.0207612353486035,0.12935876846313477,0.9999244809150696,1.0050208710558817,1.0221810889584841,-0.12950679659843445,0.999955415725708,1.0189743728034877,1.290705314234038,0.28790968656539917,0.40072304010391235,1.0093098403484002,1.3165603449449919,-0.0712660402059555,0.9181210398674011,1.0030385670286963,1.5389628763733874,0.44872403144836426,0.6381470561027527,0.9874182239903714,1.5978023739357676,0.006156356073915958,0.9423472881317139,1.0636217368475398,1.0151586518748248,0.020457696169614792,0.2524382472038269,1.046584253157164,1.0574825303149977,-0.5148529410362244,0.9941821098327637,0.004468560218811035,1.0119285500233342,1.0214711621535437,176.29786653365753,174.71441093802625,1.0,-0.014842902931217958,0.0173967754280959,-0.0241500819517585,0.10064544274058312,91.66680046108628,0.8850626893012987,15,0.5
1.0532036648026464,0.538579884635262,-0.3089349865913391,0.9999603629112244,0.991448316501896,0.6588132675957695,0.03257637470960617,0.9999212622642517,0.9774809645578661,0.6500807436005028,-0.3550650179386139,0.9999868273735046,1.015254281048914,1.022125352080284,0.12992560863494873,0.9999300241470337,1.0033112144540484,1.023859554952296,-0.13006888329982758,0.9999593496322632,1.0193760775034422,1.2886844618633753,0.29185783863067627,0.3876219093799591,1.00887799916425,1.3132629310176493,-0.07154079526662827,0.9238694310188293,1.0029307659696154,1.538579884635262,0.4590669274330139,0.637995183467865,0.9867887717903578,1.5972555203541567,-0.006964143365621567,0.9460184574127197,1.0583730777425377,1.0209325858737428,0.018781442195177078,0.2353373020887375,1.0457123987369155,1.0567695964056676,-0.5014914274215698,0.994211733341217,0.004797995090484619,1.0092827477514812,1.02299245351629,175.3489715262568,174.45046133079012,1.0,-0.017829625968604153,0.014319231493911224,-0.02306267868796171,-0.023681038449100487,94.51299982127091,0.8922833138308308,16,0.5333333333333333
1.0526115801984888,0.5382818188477427,-0.29025596380233765,0.99996417760849,0.9912966032738574,0.6586587543991005,0.042877696454524994,0.9999253153800964,0.977149428959383,0.6497306143127958,-0.3390735387802124,0.9999880194664001,1.0084956243362413,1.0223997830318383,0.12963104248046875,0.9999354481697083,0.9977169436269371,1.0243105082458583,-0.12978044152259827,0.9999630451202393,1.0188824003393326,1.2881151861501268,0.28961923718452454,0.3806111812591553,1.00806674134978,1.3127950976560054,-0.07859618961811066,0.9297047853469849,1.0034519387273149,1.5382818188477427,0.4520159661769867,0.6457217335700989,0.9861913233447516,1.5970404146035144,-0.018321894109249115,0.9498984217643738,1.0534667435945024,1.0231082261546074,0.030416050925850868,0.21963660418987274,1.044564087073765,1.055936589081138,-0.4840128421783447,0.9944721460342407,0.004907369613647461,1.0031062839815892,1.0233551456388483,174.23188194066293,173.54452502351498,1.0,-0.041477756345818496,0.005431652590200602,-0.16955476955596935,-0.06366487715187168,97.34519392005814,0.8957000277951139,17,0.5666666666666667
1.0536888530802178,0.5386656301836702,-0.29165375232696533,0.9999675750732422,0.9923167495511116,0.6592321699658427,0.038710277527570724,0.9999291896820068,0.9781917920164648,0.6501676658881645,-0.3384513258934021,0.9999890923500061,1.0047942766338163,1.0237268087879385,0.129023939371109,0.9999399185180664,0.9954574623763348,1.025439806450804,-0.1291767805814743,0.9999662041664124,1.0175181149774235,1.2895131596594696,0.2885172665119171,0.3662961423397064,1.0088391439288753,1.3131665310000742,-0.07847844064235687,0.9334356188774109,1.0039935750646594,1.53866563018367,0.4499254822731018,0.6408965587615967,0.9882247693925746,1.597710097724997,-0.014253427274525166,0.952130138874054,1.0560430850393157,1.0217011727683525,0.021547578275203705,0.2055656462907791,1.0450937950350532,1.0569629799819722,-0.4914758801460266,0.9945948719978333,0.00497707724571228,1.0001258695050756,1.0245833076193713,174.15211368936264,173.19351197031125,1.0,-0.0295801053517991,0.0010967229564340802,0.08748564037853371,-0.031800799921227044,98.43566272184077,0.8992675186496837,18,0.6
1.0531121260334302,0.5382945217957709,-0.2906375527381897,0.9999707341194153,0.9919722492252901,0.6588031225155384,0.05579277127981186,0.9999321699142456,0.9780062588765164,0.6488906667089119,-0.3211057782173157,0.9999900460243225,0.9982308002219177,1.0245184722143403,0.12899954617023468,0.9999438524246216,0.9907829086078378,1.0263528844466778,-0.1291593611240387,0.9999690651893616,1.0154658767966385,1.2891804508904103,0.2811681032180786,0.3533000946044922,1.0080664876235768,1.3129439343248737,-0.078761525452137,0.9374303221702576,1.0035220150626663,1.5382945217957709,0.44492149353027344,0.6369624733924866,0.9890396419022462,1.5970436731386863,-0.014035607688128948,0.954529345035553,1.0683988584673814,0.982724450471141,0.019857216626405716,0.19646503031253815,1.0441842046755268,1.0565208602271412,-0.4688369333744049,0.9948097467422485,0.0054450929164886475,0.9945068544148777,1.0254356783305092,173.5291330651946,172.71730176611763,1.0,-0.04054897164685773,0.010262483311819304,-0.08608286950584604,0.07184966359447982,102.8561040774689,0.9048676107780655,19,0.6333333333333333
1.0537554023454079,0.5386944439786528,-0.27808722853660583,0.9999735951423645,0.988913853507272,0.6565177651361046,0.06219710037112236,0.999935507774353,0.9791669617433548,0.6468892839163045,-0.3193451166152954,0.9999909400939941,0.9912030516708992,1.0250809486931236,0.13157843053340912,0.9999476671218872,0.9864380854762413,1.026842780372915,-0.13175085186958313,0.9999717473983765,1.0139583890587356,1.2897154907202655,0.28560593724250793,0.33820605278015137,1.0058342969791798,1.3132680100022722,-0.08564111590385437,0.9415044188499451,1.0037801833605184,1.538694443978653,0.4492054879665375,0.6272424459457397,0.9891481783145578,1.5975507793741857,-0.03222767636179924,0.9566707015037537,1.0511261673030283,1.0037893002126776,0.0538937933743,0.18378369510173798,1.043899976627213,1.0566585770883845,-0.4562892019748688,0.9949632287025452,0.005287766456604004,0.9888205685735703,1.0259618645330193,172.74441637953592,172.7667952100437,1.0,-0.046298632901253765,0.002085844247354189,-0.04475651749984846,-0.06378223747549663,109.9358517987773,0.906603065254415,20,0.6666666666666666
1.054685949255306,0.5385976810233373,-0.29445692896842957,0.9999761581420898,0.9895433446385589,0.6564463824417702,0.05603966861963272,0.9999375343322754,0.9790628134047396,0.6461945712126653,-0.3229261040687561,0.9999917149543762,0.9883439076316296,1.0258613682198898,0.13106316328048706,0.9999508857727051,0.9793869826356206,1.027925111806912,-0.13123279809951782,0.9999740123748779,1.0132416673476716,1.2905351809351593,0.2738688588142395,0.3418668508529663,1.003364653051559,1.3133041895752948,-0.05929531529545784,0.9450660347938538,1.004640167270021,1.5385976810233373,0.44890451431274414,0.6354923248291016,0.9889588198720622,1.5975350549356693,0.04280510172247887,0.9588472843170166,1.0991899242082137,0.9295353549034476,0.08559603989124298,0.1945936679840088,1.0426780133494344,1.057278109308736,-0.47606125473976135,0.9953209161758423,0.005630463361740112,0.9838654451336252,1.0268932400134008,172.64010330802984,172.29579324557488,1.0,-0.038810582734095316,0.007938557656821454,0.0594185854213184,0.04646231822583748,103.16097337685164,0.9114681681181509,21,0.7
1.0554830013085807,0.5384977657331096,-0.30031678080558777,0.9999784827232361,0.9909770971773438,0.6572461291932451,0.06045949459075928,0.9999386072158813,0.9796813504284764,0.6457057356727548,-0.32496875524520874,0.9999924302101135,0.9846446034958933,1.0262177348671404,0.13122491538524628,0.9999532103538513,0.9748947595674033,1.027817678092161,-0.13140568137168884,0.9999759793281555,1.0130510832659547,1.2899873222078826,0.265083372592926,0.32600611448287964,1.0031013549492058,1.3120592465139869,-0.054121751338243484,0.9446733593940735,1.0055902519791213,1.5384977657331096,0.4267132878303528,0.6216610670089722,0.9913914069462755,1.5972986091540755,0.03678419440984726,0.9582452178001404,1.0973312178721384,0.9310036420845402,0.027502819895744324,0.18451625108718872,1.0417845183355947,1.0569290704496976,-0.499739408493042,0.9956207871437073,0.00633886456489563,0.9797696815316483,1.0270177064796506,172.1336327123159,171.981983862264,1.0,-0.028982562353265635,0.001717380041501049,0.07138359984745445,-0.04519927880794052,100.30238821702214,0.9134269837429626,22,0.7333333333333333
1.0587726872357615,0.5385506649944672,-0.30015838146209717,0.9999805092811584,0.9940109908476167,0.6585504544501473,0.055988192558288574,0.9999411106109619,0.9797732025267055,0.6452585419132966,-0.32635384798049927,0.9999930262565613,0.984641117439017,1.028484041825823,0.1311638206243515,0.9999561905860901,0.969281909294034,1.028658337793834,-0.13133075833320618,0.9999778866767883,1.013391812560857,1.2901972518105727,0.28543680906295776,0.31493785977363586,1.0031552345442019,1.3117837965959542,-0.05270636826753616,0.9462928175926208,1.0068558222884387,1.5385506649944671,0.4666220247745514,0.6145865321159363,0.991296922623443,1.5965752687261807,0.043928634375333786,0.9589727520942688,1.0843377599733977,0.9704249261901072,0.010863056406378746,0.1725395768880844,1.0391846855705078,1.0570830148036534,-0.5038016438484192,0.9952375888824463,0.007300049066543579,0.9769615133665256,1.0285711898098286,172.22334699606213,170.79318469690955,1.0,-0.022305547647651074,0.010892435597364124,0.05091441897666339,0.06992448380172794,92.10107095009148,0.9209484441272526,23,0.7666666666666667
1.062153497342352,0.5391384171536854,-0.2936776280403137,0.9999824166297913,0.995364756395804,0.6588966403806902,0.06551432609558105,0.9999431371688843,0.981021128027794,0.6452608025451146,-0.3202609419822693,0.9999935626983643,0.9779655617212724,1.0296156516647896,0.13179463148117065,0.999958872795105,0.9629306990070685,1.0300452439858025,-0.1319599449634552,0.9999796152114868,1.013690446108881,1.2907298330588173,0.28393036127090454,0.310566782951355,1.004233552528192,1.3122408244394497,-0.053762029856443405,0.9489558935165405,1.0071484183929567,1.5391384171536855,0.4581618309020996,0.6077720522880554,0.9923601071472947,1.5971415228770938,0.039827726781368256,0.9601842164993286,1.0656289936710315,0.99015992570235,0.009385639801621437,0.1617335081100464,1.0356198475994913,1.0574896468196353,-0.4911028742790222,0.9952993392944336,0.00748637318611145,0.9704481303641704,1.029830447825296,170.7007495025676,169.28670648437867,1.0,-0.05037655057362465,0.006673239715865318,-0.20644938299842114,-0.031066132701516855,94.32379945647286,0.9259507145185761,24,0.8
1.069531526804419,0.5438788321988597,-0.2937113344669342,0.9999841451644897,0.9995504668999386,0.6624982622266248,0.0649200975894928,0.999945878982544,0.9862605862539184,0.6479566399939336,-0.32264775037765503,0.9999940395355225,0.9780001159241926,1.0333643771929175,0.13359320163726807,0.9999613165855408,0.9613866756035794,1.0341565621591187,-0.1337544173002243,0.999981164932251,1.0208933745837516,1.2948931688836804,0.2796974778175354,0.30556291341781616,1.008996981177136,1.3172617441884282,-0.05682596564292908,0.9507942199707031,1.0115455701923164,1.5438788321988597,0.4461047053337097,0.5971157550811768,0.9959451591408187,1.6027882601042533,0.032191675156354904,0.9606810212135315,1.054148582565263,1.023403830640856,0.005281279794871807,0.15364190936088562,1.0357654461359982,1.0618115639175927,-0.4916548728942871,0.9951906800270081,0.007955372333526611,0.9696933957638859,1.033760469676018,168.53578302967023,167.8365423561946,1.0,-0.03197080464558828,0.0020295900485984325,0.14125163168522673,-0.03547367978290135,96.05560171647652,0.9247261852750114,25,0.8333333333333334
1.0778594808302737,0.5504489278159268,-0.29170382022857666,0.9999856352806091,1.003798908311125,0.6654263009872455,0.06402553617954254,0.9999489188194275,0.9948710770628729,0.6518700669937549,-0.3270643353462219,0.9999945163726807,0.9799396300528148,1.0382740080745338,0.137499138712883,0.99996417760849,0.9633348576390233,1.0391749115881723,-0.13761168718338013,0.9999827742576599,1.027974684742594,1.3004294886776115,0.30463075637817383,0.30789652466773987,1.0140341002704953,1.3235768649247193,-0.13020776212215424,0.9551317691802979,1.0167083566188035,1.5504489278159268,0.49530649185180664,0.6052101850509644,1.0002979482283627,1.6103448938157932,-0.07380535453557968,0.9637982249259949,1.0342463171109233,1.0468124546408706,0.026302063837647438,0.14842860400676727,1.0369989319281048,1.0698328814132672,-0.4812888205051422,0.9952428340911865,0.007383227348327637,0.971637243845919,1.0387244598313532,167.03669958812225,167.14991516884388,1.0,-0.017497021501203424,0.0024417512039527603,0.10662936045316719,0.002940377874303542,96.76705787937625,0.9203736828259018,26,0.8666666666666667
1.0886425033830558,0.5601104604733426,-0.2705105245113373,0.9999869465827942,1.0097569233009196,0.6696531832332596,0.07467200607061386,0.9999499917030334,1.0045487740986623,0.6605141143387487,-0.3271910548210144,0.9999949336051941,0.9751621427278921,1.0449587651017769,0.1395113468170166,0.9999666810035706,0.9631524187347994,1.0468884312434326,-0.13962626457214355,0.9999842643737793,1.034319334250313,1.3087106788259533,0.31357601284980774,0.3180118501186371,1.0203176080025471,1.3329739645404435,-0.10480263084173203,0.9589347839355469,1.0282005932063107,1.5601104604733425,0.5076884031295776,0.6147420406341553,1.0063893414498035,1.6207162507493273,-0.03546386584639549,0.966571033000946,1.0220065201812065,1.0535435271821247,0.043655555695295334,0.13736644387245178,1.0422631136844398,1.0824584525952032,-0.47515374422073364,0.9953333139419556,0.0049460530281066895,0.9691572807313458,1.0459235981726047,165.96405647974188,165.92880643528687,1.0,-0.06566641387939517,0.00455392225672536,-0.36471461554913887,0.015911571140588703,104.39450666429768,0.9152524320009187,27,0.9
1.1020557258783497,0.5726753121843452,-0.25394776463508606,0.9999881982803345,1.0174734645943149,0.6769973420467161,0.0744943767786026,0.9999517202377319,1.015447833989542,0.6725336168424296,-0.33236202597618103,0.9999953508377075,0.9707529668711096,1.05592359019851,0.14046567678451538,0.999968945980072,0.9676407536851168,1.0633644828480808,-0.14059853553771973,0.9999855756759644,1.0369806636479624,1.3233587835070797,0.3199525475502014,0.3384723961353302,1.028328189235883,1.3496396948554623,-0.02225857600569725,0.9618623852729797,1.033943383363719,1.572675312184345,0.5146065950393677,0.6264784336090088,1.0143332764583357,1.6351157335892228,0.10773830115795135,0.9683875441551208,1.0190130859489264,1.0770123730317485,0.09483528137207031,0.12809740006923676,1.0510346346532589,1.1022851870752624,-0.4510032534599304,0.9954988956451416,0.0023966729640960693,0.9691968602781131,1.0596440365232953,165.39311478716215,165.22450254319526,1.0,-0.0601440810417657,0.042207920765782315,0.047343834513752854,0.2946001469244005,164.3314148590406,0.9227593020158451,28,0.9333333333333333
1.1006058554574993,0.5790363472398783,-0.24908611178398132,0.9999893307685852,1.011769223656346,0.6810669423825837,0.080557681620121,0.9999541640281677,1.0149079263428418,0.6813833977641425,-0.3321079611778259,0.9999957084655762,0.9535742444979904,1.0520964326657076,0.14075084030628204,0.9999703168869019,0.9613279261020066,1.0623414339798067,-0.1408982276916504,0.999986469745636,1.023682727546002,1.3234900924443005,0.30834251642227173,0.3510265052318573,1.0237840330390686,1.3474347560034552,-0.03489406779408455,0.9641997814178467,1.025230701994039,1.5790363472398783,0.4697168469429016,0.6293571591377258,1.0095166402281792,1.6316230675590535,0.07813746482133865,0.9696381688117981,1.0166187408091778,1.0802809023458133,0.09443295001983643,0.12263274937868118,1.0464761320612663,1.1051284773497156,-0.453311026096344,0.9956290125846863,0.00017073750495910645,0.9574510852999985,1.0572189333227573,165.86263796809646,164.76921494494766,1.0,-0.050601977204510803,0.01934546238797155,0.0663149572752853,-0.1624195441387217,133.96655891676707,0.9052786974507899,29,0.9666666666666667
1.1177572241129579,0.5988004708120737,-0.23895692825317383,0.9999903440475464,1.024628130120768,0.7025200394689138,0.07890744507312775,0.9999564290046692,1.0290300361701414,0.700579038883056,-0.33175036311149597,0.9999960064888,0.9565129833293122,1.0677297772302137,0.14026577770709991,0.999971866607666,0.9659802419364538,1.0834420477517024,-0.14041033387184143,0.9999873638153076,1.0356668507273885,1.340138899742772,0.3054993450641632,0.36151114106178284,1.0373105870008006,1.369962330670802,-0.037007518112659454,0.9662962555885315,1.0389649518439086,1.5988004708120735,0.46987995505332947,0.633442759513855,1.0223111019270323,1.6538785021346922,0.06748972833156586,0.9710519909858704,1.0279002751512936,1.1017517169475397,0.09930696338415146,0.11553656309843063,1.064929205055149,1.1339666879368586,-0.4490281641483307,0.9953568577766418,0.001034080982208252,0.961246612632883,1.075585912490958,164.52824885084166,162.9960175440615,1.0,-0.06127708466848788,0.03600681733148827,-0.07336180467231378,0.12004593046515138,138.3645588410871,0.9039954645935412,30,1.0
1.1403166320151665,0.624510499711547,-0.24612143635749817,0.999991238117218,1.0413696389187095,0.7290160967455636,0.0753370076417923,0.999959409236908,1.0480030343844604,0.7282914964695492,-0.3428019881248474,0.9999963045120239,0.9629389641661116,1.0885745101245066,0.1400672048330307,0.999973714351654,0.9727438644332348,1.1063805983131243,-0.1402033567428589,0.9999882578849792,1.0489303590119785,1.3608840237065833,0.30352145433425903,0.3744284510612488,1.0555381723245671,1.3947774204866885,-0.033765338361263275,0.9683234095573425,1.0571121000855694,1.624510499711547,0.4650651514530182,0.6410242319107056,1.0405652223248287,1.6807554216541443,0.07495282590389252,0.9725583791732788,1.0455968339072452,1.1295201674914732,0.08658526092767715,0.10999105125665665,1.0852305247615914,1.1658445510127462,-0.4543507695198059,0.9947495460510254,0.00037986040115356445,0.9678414142996732,1.0974775542188153,164.25226308726545,160.98494026628842,1.0,-0.059028890124092355,0.02879846822994785,0.021204115789868326,-0.050937323104228584,138.85546414202236,0.8973304445467217,31,1.0333333333333334
1.155976364839119,0.6481656818682966,-0.22882187366485596,0.9999920129776001,1.0530343318162465,0.7484630906885597,0.07437656819820404,0.9999613165855408,1.0606338530872301,0.7493630506411467,-0.3333110213279724,0.999996542930603,0.9610990988038387,1.1057520217043753,0.1356101632118225,0.9999745488166809,0.9742690915907045,1.1236677335435463,-0.1357361376285553,0.9999889135360718,1.0586221102542939,1.3763395974616897,0.2774195373058319,0.3906311094760895,1.068914841605726,1.4103399372753442,-0.040006037801504135,0.9705082178115845,1.064911365271792,1.6481656818682966,0.42468446493148804,0.6471912860870361,1.0523949531635013,1.6991702739524783,0.07336108386516571,0.9740675091743469,1.0565651739302555,1.1668725960411996,0.08317704498767853,0.10872078686952591,1.1015915756112693,1.1944731695270525,-0.41430631279945374,0.9950870275497437,0.00046646595001220703,0.9676840951972716,1.1147098776239608,161.50564757334547,158.4556812113966,1.0,-0.0869503232017345,0.03652390594087398,-0.21146334905453987,0.057404487716834325,129.25013749944196,0.8883899671974769,32,1.0666666666666667
1.17508728556739,0.6760235719959659,-0.2306620180606842,0.9999927282333374,1.073346516648185,0.7791574514618167,0.07302937656641006,0.9999641180038452,1.0772201888743829,0.7804950035026396,-0.339428573846817,0.9999968409538269,0.9789370752308322,1.1300235536517274,0.13633939623832703,0.999976396560669,0.9699200641043504,1.1482094708732926,-0.1364174783229828,0.9999898076057434,1.0849924207331725,1.383042363915691,0.26670125126838684,0.4106958210468292,1.0889770931287333,1.4325577868342232,-0.08662921190261841,0.9731720089912415,1.0829968713725948,1.676023571995966,0.4097861349582672,0.663853108882904,1.0647891046440077,1.7264264120579835,0.011159276589751244,0.9762912392616272,1.0739698702308704,1.1979646541576485,0.07152970135211945,0.11318499594926834,1.1206237087832271,1.226392031216052,-0.43468427658081055,0.9953747391700745,0.0006823241710662842,0.9744285696675913,1.13911651226251,156.86827568915737,152.57552957183907,1.0,-0.06973038617901185,0.05165085062326718,0.14766923098925624,0.11534270921897487,168.6868781354088,0.8841261502691324,33,1.1
1.183814228086888,0.6830223805995601,-0.23135633766651154,0.9999934434890747,1.0851575344882334,0.7845573275000294,0.0886644646525383,0.9999662041664124,1.0847854261487258,0.785844711804208,-0.31343406438827515,0.999997079372406,0.9850904397323266,1.144405555751567,0.13559667766094208,0.9999776482582092,0.9727548248244716,1.1600783262181138,-0.1356845200061798,0.9999905228614807,1.092131508073716,1.4007885544931729,0.26212385296821594,0.42548951506614685,1.0981473379670466,1.4407353961589575,-0.08918248862028122,0.9755427837371826,1.0928149219677992,1.68302238059956,0.40396055579185486,0.679619550704956,1.0724204683108116,1.7346974561620152,0.011281102895736694,0.9783105254173279,1.0829255900927919,1.2006197885427325,0.05928226560354233,0.11733120679855347,1.1276493902080467,1.2336996789330699,-0.4155382215976715,0.99569171667099,0.0006524622440338135,0.9789226322783992,1.1522419409848406,157.47798008168442,150.92412191979548,1.0,-0.013479023897538942,0.04059493034226008,0.4059534208369288,-0.08156579324210175,157.3349298796422,0.9042858462441066,34,1.1333333333333333
1.201498121080111,0.7085850624301693,-0.22621099650859833,0.9999940395355225,1.1056613562192712,0.8147944680443323,0.08937879651784897,0.9999673366546631,1.1011569633168092,0.8098364120316544,-0.3112315833568573,0.9999971985816956,0.9957865867000113,1.172224402944064,0.13490739464759827,0.9999785423278809,0.977400007104344,1.1828636058486064,-0.13500440120697021,0.9999909996986389,1.1099203806017977,1.4197524046562706,0.24244146049022675,0.4318157136440277,1.1164408549928762,1.4575657830912434,-0.11185070127248764,0.9775412082672119,1.1070904636718772,1.7085850624301693,0.3655703067779541,0.6825160384178162,1.088918506905691,1.7600640943170323,-0.012367988005280495,0.9797196388244629,1.1275786753861048,1.2453898329673203,0.0535883791744709,0.11826638132333755,1.1477905937888333,1.2692404889102085,-0.40718287229537964,0.9957409501075745,0.002475053071975708,0.9865932969021777,1.1775440043963352,154.68448118618443,147.95503506409858,1.0,-0.05374335408834601,0.05720047464217313,-0.29652510290034695,0.11833520903628694,137.14292007027726,0.9084839551266268,35,1.1666666666666667
1.2434215197958354,0.7687792297844609,-0.2545450031757355,0.9999946355819702,1.1465966835907795,0.8823503164657681,0.07856976985931396,0.999968409538269,1.139713078040956,0.8714471337004911,-0.3160717189311981,0.9999973177909851,1.0241444701844225,1.2362678453289975,0.13295578956604004,0.9999789595603943,0.9941712082432203,1.2421301330475671,-0.133061021566391,0.9999914169311523,1.1611734834347947,1.4597222492600141,0.25720682740211487,0.4119959771633148,1.1577298266398575,1.5078549575413964,-0.14731763303279877,0.9792349338531494,1.146051478102015,1.768779229784461,0.40129223465919495,0.661904513835907,1.1238921071586494,1.8269222865876174,-0.059534408152103424,0.9807974100112915,1.1839323208529975,1.3292318702334305,0.043443288654088974,0.11323795467615128,1.1939326576666354,1.3419759094817982,-0.4210668206214905,0.9953968524932861,0.0052578747272491455,1.0091578392138214,1.2391989891882822,145.68089211011647,142.33322000033107,1.0,-0.093026696241743,0.1549485525096426,-0.2864281033448717,0.7333373767370189,120.15158536892439,0.9177098969607363,36,1.2
1.270233553552178,0.807143531900749,-0.27033531665802,0.9999951124191284,1.1707169219608942,0.9181105162496855,0.0691748857498169,0.9999682307243347,1.1637508044773903,0.9104766951614158,-0.3303524851799011,0.9999973773956299,1.0318559154472793,1.272321658602528,0.1324748694896698,0.9999794960021973,1.0102875229976975,1.2780987408223905,-0.13258138298988342,0.9999918341636658,1.1868662056855461,1.4989794377094545,0.25937217473983765,0.3969782888889313,1.1871173996461815,1.541472135530066,-0.13558650016784668,0.9807290434837341,1.1687325023010326,1.807143531900749,0.4112575948238373,0.6475023031234741,1.1484907397958926,1.8649785102240615,-0.03052179142832756,0.9818071722984314,1.2141539019552967,1.3791308714220332,0.03839412331581116,0.10675522685050964,1.2274534160863146,1.3964011192465342,-0.4235423505306244,0.9947217106819153,0.0036028623580932617,1.0210717192224883,1.2752101997124594,142.26429463493255,139.31356036071057,1.0,-0.08038805156928308,0.07229727758319318,0.11727850671184395,-0.6880212166079805,126.40128326832944,0.9182319955636652,37,1.2333333333333334
1.2893206674821664,0.839049119905269,-0.24422797560691833,0.9999955296516418,1.1871874631720292,0.952231645195786,0.10066379606723785,0.9999664425849915,1.179211526528129,0.9433544611808983,-0.30767568945884705,0.9999971985816956,1.041355495024994,1.3092900676461299,0.13212749361991882,0.999979555606842,1.0100537555329319,1.3142061489230492,-0.1322326511144638,0.9999920129776001,1.2206910905388133,1.5294619278768713,0.2139047384262085,0.3910743296146393,1.205723561989161,1.5680057696246037,-0.12932723760604858,0.9819214940071106,1.1862649285125404,1.839049119905269,0.3517194390296936,0.6405265927314758,1.1636736012359965,1.893682304659313,-0.02913600765168667,0.9825968146324158,1.2299937638503626,1.4031906054835799,0.05116682127118111,0.10140720009803772,1.2481443832142805,1.4241265254874884,-0.3711334466934204,0.9937347769737244,0.004126131534576416,1.0257046252789628,1.3117481082845894,134.49107093722589,135.01206724473576,1.0,-0.08128471832717797,0.12381575901387089,0.0025018604431364857,0.3693379404463359,121.14203814312756,0.9423400392284781,38,1.2666666666666666
1.3188555669553084,0.8827279517380063,-0.2422718107700348,0.9999959468841553,1.2119582057700988,0.9907663315139328,0.1043226569890976,0.9999666213989258,1.2047099766077072,0.9828193212131161,-0.31094568967819214,0.9999971389770508,1.0503650346780482,1.353852800919276,0.13357391953468323,0.9999802112579346,1.0307877375138508,1.3567703205154513,-0.13367649912834167,0.9999923706054688,1.246361062092174,1.5675441703943858,0.2376306802034378,0.4026513397693634,1.237365157795379,1.6048876595395412,-0.12663283944129944,0.9836070537567139,1.2069821644026757,1.8827279517380062,0.37970787286758423,0.6556357145309448,1.191779176755448,1.9384706201009563,-0.01866757497191429,0.9841673970222473,1.2725079000287274,1.4614426396355726,0.07451234757900238,0.1031818687915802,1.2831708458160627,1.4825714121557845,-0.3741918206214905,0.9933655261993408,0.0036069154739379883,1.0405763860959494,1.3553115607173636,130.35159731750008,132.43833849916464,1.0,-0.07560489780141845,0.09205844035312284,0.058732900527156774,-0.26714788881855667,122.467818372472,0.9495761467011448,39,1.3
1.3332493368135314,0.9106909332745491,-0.22378131747245789,0.9999961853027344,1.2132960500603285,1.020395180330278,0.10619509220123291,0.9999657869338989,1.2176087588535793,1.0252046799506298,-0.31123748421669006,0.9999969601631165,1.0448585344191381,1.38966105340954,0.13408836722373962,0.9999804496765137,1.0360763721383943,1.3972392433870378,-0.13418377935886383,0.9999926090240479,1.2607989440133245,1.590252862803732,0.24861815571784973,0.40830156207084656,1.25416761179391,1.6269474945874827,-0.12239338457584381,0.9851762056350708,1.224233568363849,1.910690933274549,0.4218963086605072,0.674342930316925,1.208111428105901,1.964961470756432,0.011033853515982628,0.9856624603271484,1.292580112179948,1.506137469955603,0.0883355662226677,0.11270986497402191,1.3068286375152152,1.5254072832836543,-0.3496580123901367,0.9935486912727356,0.0021535158157348633,1.040467453278766,1.3934501483982888,126.37979275770391,128.7269889935109,1.0,-0.1130838278047056,0.15536801410691023,-0.28816453959617183,0.49061393756300997,155.3108421121307,0.9870154938004295,40,1.3333333333333333
1.3474487551654888,0.944988162668588,-0.255294531583786,0.9999964833259583,1.2321715149005332,1.0589562815122775,0.09934120625257492,0.9999633431434631,1.2355044031619535,1.065410117953094,-0.31281474232673645,0.9999966025352478,1.0667514336624833,1.429902190363809,0.13387832045555115,0.999980092048645,1.0477343015567802,1.4391223633725245,-0.13396546244621277,0.9999926090240479,1.2855785178020858,1.619284717473094,0.22083480656147003,0.42088085412979126,1.2777675735063376,1.657383099150952,-0.1355377733707428,0.9865386486053467,1.2476375153600643,1.9449881626685879,0.38084954023361206,0.6910465955734253,1.2265663198946468,2.0021493584525594,0.020747991278767586,0.9869418144226074,1.3182103771340576,1.5440522916572061,0.07942308485507965,0.12002629041671753,1.3320303344749316,1.5655164607700738,-0.35717493295669556,0.9934440851211548,0.0028378069400787354,1.0572428676096317,1.4345122768681668,124.22993957599412,125.0484577308996,1.0,-0.018398489130541543,0.1251855229590393,0.7795751058352987,-0.26611237177431946,139.89979912557823,1.0014227478629238,41,1.3666666666666667
1.3627346570147845,0.9810758110978234,-0.21239802241325378,0.9999966621398926,1.2428033452002507,1.099776632207495,0.11913392692804337,0.9999622106552124,1.2517413711675334,1.1047935349696607,-0.3085724711418152,0.9999963045120239,1.0714288772091662,1.4716066738291662,0.1351984441280365,0.9999803304672241,1.0601292978448977,1.4797619803850626,-0.13529035449028015,0.9999927878379822,1.303936244548721,1.6520475265900887,0.2312866449356079,0.4354858100414276,1.3012958784326831,1.6888466626711336,-0.11386190354824066,0.9878341555595398,1.2734550682048549,1.9810758110978233,0.4199100434780121,0.7110382318496704,1.2498683959775845,2.039637943939172,0.0790199264883995,0.9881736636161804,1.3417227560340375,1.6003365362042252,0.11459221690893173,0.13967539370059967,1.3583456007247197,1.6184016394574545,-0.33475422859191895,0.9937173128128052,0.0021654069423675537,1.065779087527032,1.4756843271071143,122.52101708960477,122.5839844043122,1.0,-0.08978594023761889,0.11389398196125688,-0.5659446376223025,-0.10863451888909621,150.56404006334077,1.0131333083743683,42,1.4
1.3785335680322672,1.0237731417935734,-0.21598263084888458,0.9999969005584717,1.2545427306575812,1.1417894119708305,0.13231858611106873,0.9999570250511169,1.270164702111698,1.1476832884785262,-0.2845170497894287,0.9999958872795105,1.0803499408503388,1.52057612588199,0.1345405876636505,0.9999781847000122,1.0774426778700705,1.524544076442861,-0.13464954495429993,0.9999922513961792,1.3222109023278699,1.6876337850225103,0.22154071927070618,0.44375741481781006,1.3278524793625097,1.7244968752107197,-0.11364728212356567,0.9889757633209229,1.3008938892037831,2.0237731417935736,0.38762643933296204,0.7304941415786743,1.2770235518066673,2.0760932953654483,0.05541621521115303,0.9892825484275818,1.3676930842154058,1.6528857219517328,0.1370086520910263,0.1542670726776123,1.3871300889092903,1.6666989241335415,-0.294603168964386,0.9940099716186523,0.002490311861038208,1.0788963093602046,1.5225601011624255,121.00484818755238,120.38140746617577,1.0,-0.07131095887466125,0.10958343874029587,0.1480633961875906,-0.04906420103009987,168.4665779726486,1.0250085322175069,43,1.4333333333333333
1.388735703804197,1.0659289905865248,-0.2165296971797943,0.999997079372406,1.2659341974410467,1.187438132643612,0.14224793016910553,0.9999482035636902,1.2792516628133066,1.1863064328817754,-0.27361196279525757,0.9999947547912598,1.0939035356843576,1.5706882282224748,0.13445845246315002,0.9999752640724182,1.0875009025693958,1.5735810530331078,-0.13457521796226501,0.9999911785125732,1.3449572764641258,1.7257155613319997,0.19556520879268646,0.4483441114425659,1.3511194881057895,1.760134020407993,-0.12075413763523102,0.9899042248725891,1.3296226583897817,2.065928990586525,0.35397785902023315,0.7431706786155701,1.3012434313804178,2.1140742716085184,0.0529942624270916,0.990154504776001,1.3934927839037428,1.7014694548941125,0.15430177748203278,0.15609824657440186,1.4129162211353992,1.7127947949865758,-0.28990525007247925,0.9932466149330139,0.00046896934509277344,1.0907022191268767,1.5721346406277914,119.11482656723388,117.26449648800084,1.0,-0.07480643836416576,0.15734591721720992,-0.016744126016032854,0.36434828633985744,138.48833786083352,1.0405578537795002,44,1.4666666666666666
1.3906973483002492,1.0741988949199084,-0.177749365568161,0.9999969005584717,1.2601705487829844,1.1902751247798602,0.15983407199382782,0.999943196773529,1.2789041540621937,1.1942457820071055,-0.27126723527908325,0.9999933838844299,1.0845517907997704,1.5832696024122024,0.1370069533586502,0.9999735951423645,1.0880200141689524,1.5900025627159562,-0.13715915381908417,0.9999903440475464,1.350356054324379,1.733236360758486,0.20996472239494324,0.4548671841621399,1.356565062332343,1.767503967371694,-0.12115009129047394,0.9908318519592285,1.335233069592866,2.0741988949199084,0.37390434741973877,0.7561143040657043,1.3067490124806216,2.1227163287176767,0.06246037408709526,0.9910104274749756,1.3926371849146508,1.7121136312154257,0.15821370482444763,0.16735637187957764,1.417843796216351,1.7200312609465123,-0.295100599527359,0.9926619529724121,0.0016387701034545898,1.0862859024843614,1.5866360825640793,116.89206892158138,115.48041752595918,1.0,-0.06646274570573396,0.061099847548206035,0.06501685360201176,-0.7284684234671643,128.6679015070986,1.0585413516105768,45,1.5
1.3908065077678262,1.091507425785312,-0.23525209724903107,0.9999971389770508,1.2729710360897268,1.2147269642711829,0.14089860022068024,0.9999428987503052,1.275435333608666,1.2184226820278867,-0.28169724345207214,0.9999927878379822,1.0992837393154096,1.6072012039258285,0.1366090029478073,0.9999735355377197,1.0889124314725165,1.6190908238538697,-0.13674771785736084,0.9999901652336121,1.3625942133375277,1.7497039834182633,0.1980835497379303,0.4810370206832886,1.3663286155967609,1.7858628469010909,-0.1302213966846466,0.9916763305664062,1.3516270475922103,2.091507425785312,0.3761897683143616,0.7721929550170898,1.3170702033384216,2.144127382894325,0.05935342237353325,0.9918088316917419,1.4007240194407473,1.7350537033417364,0.13661187887191772,0.17789927124977112,1.4278755862687356,1.747670970748615,-0.320485383272171,0.9917798042297363,0.0015118420124053955,1.094098085393963,1.613146013889849,116.58433704343857,113.18406710650694,1.0,-0.014050007529379497,0.09381198219228007,0.4013509205060386,0.24358052721479578,162.77334975603128,1.0736691915119734,46,1.5333333333333334
1.3929421504402701,1.1209627733786693,-0.23924818634986877,0.9999973177909851,1.2968120559184693,1.253844200722542,0.12372372299432755,0.9999426603317261,1.2722516885492798,1.2470132034852026,-0.2819926142692566,0.9999920129776001,1.1209320976817674,1.6527540677637231,0.1351104974746704,0.999972939491272,1.0999543560413567,1.6625104177253787,-0.13520623743534088,0.9999897480010986,1.3800778719197258,1.7857767511480287,0.19721077382564545,0.5003864169120789,1.3852878618484878,1.8127267183472082,-0.12813124060630798,0.9924119114875793,1.3714319082685786,2.120962773378669,0.37814173102378845,0.7839064002037048,1.3369899749605003,2.175367267553059,0.06052263826131821,0.9925031065940857,1.4137235676205084,1.7719552430494598,0.13466313481330872,0.18589092791080475,1.4328105036542886,1.7789457539106894,-0.31514111161231995,0.9905943870544434,0.0027541518211364746,1.110443226861562,1.657632242744551,115.694392429372,110.17871977146486,1.0,0.002559725690619451,0.1535857141486286,0.1235653444978732,0.429164943761227,138.73499973152607,1.1071903444227715,47,1.5666666666666667
1.3605650781888066,1.1420641278307122,-0.13013005256652832,0.9999829530715942,1.255912591657649,1.2800027435322903,0.1431715190410614,0.9999330043792725,1.2349460407586015,1.280624958763144,-0.2619551122188568,0.9999892711639404,1.1121961565945606,1.6869353812410235,0.13141712546348572,0.9999712705612183,1.094195677221935,1.694784418376746,-0.13147763907909393,0.9999886751174927,1.3826928589507554,1.8147240457558562,0.16791029274463654,0.46947336196899414,1.3917172909258788,1.832245972580333,-0.1275825947523117,0.9919658899307251,1.3843928052356735,2.142064127830712,0.32254645228385925,0.7421875,1.3491657015223248,2.1950222036006624,0.055001694709062576,0.9910574555397034,1.3499246460526497,1.7974977941776729,0.1269819438457489,0.17174825072288513,1.4128574000632952,1.817129855185481,-0.2757572829723358,0.9870621562004089,0.0002487301826477051,1.103195916908248,1.6908598998088846,115.58463965103877,108.10807838574028,1.0,-0.13944823903029963,0.15767523515142898,-1.1796723276382302,0.02300516113906587,133.01111334445977,1.1110112482646082,48,1.6
1.3295662198851208,1.1349495789251407,-0.2208758145570755,0.9999844431877136,1.222963940694331,1.2721525274721055,0.13242588937282562,0.999920129776001,1.19783498072534,1.265050229041,-0.27355891466140747,0.9999873638153076,1.0956611500509001,1.6839630825245568,0.12943081557750702,0.9999670386314392,1.0742096384896123,1.6902278178919277,-0.129531592130661,0.9999865889549255,1.3651759447456544,1.8133859269758752,0.14508140087127686,0.4660177528858185,1.3678564419863126,1.8158472101800989,-0.12145636975765228,0.9914036393165588,1.3745463107747466,2.1349495789251405,0.3033178448677063,0.7239623069763184,1.3407331365281712,2.173933486413863,0.0831179991364479,0.9898266196250916,1.3237462644798146,1.7757783113857097,0.12622950971126556,0.1595534384250641,1.375368658848082,1.8040873520665317,-0.29420724511146545,0.9848229289054871,0.0028657913208007812,1.0849353942702562,1.6870954502082423,117.31976322449117,108.82918485673886,1.0,-0.060069474610045574,0.08979659059397037,0.5862260095198039,-0.4986123711621931,123.45792639951038,1.1160938627353651,49,1.6333333333333333
1.3068219957984064,1.126059795460882,-0.21486619114875793,0.9999856352806091,1.2009902868484437,1.2620501326242675,0.11160192638635635,0.9999168515205383,1.1802259022504986,1.2636619865878123,-0.2802673280239105,0.9999843835830688,1.093953239068783,1.682205943200942,0.1270148903131485,0.9999659061431885,1.07486197427545,1.6981045769430891,-0.1271255910396576,0.9999855756759644,1.3577487082378583,1.7683260337204822,0.15777736902236938,0.47197794914245605,1.3611084144933079,1.786499938734159,-0.1270780861377716,0.9914200901985168,1.3769642805348064,2.1260597954608818,0.30024152994155884,0.7166396975517273,1.345627542754382,2.175771550037618,0.05148278921842575,0.9895191788673401,1.3087848704745408,1.769098516064377,0.07381490617990494,0.14703503251075745,1.3401325591540934,1.7950579184175772,-0.3036211431026459,0.9677743315696716,0.0006492137908935547,1.0844076066721164,1.6901552600720156,111.15474086129457,104.88375245362666,1.0,-0.018514673024884534,9.694411246778563e-05,0.3101517237180317,-0.668953432403217,144.07892259478493,1.1279863468479334,50,1.6666666666666667
1.307808385653965,1.1382716041940102,-0.1725657880306244,0.9999814629554749,1.2041339961789743,1.2747755714489069,0.10981129109859467,0.9999147653579712,1.1779210187231461,1.2938425693123246,-0.28981655836105347,0.9999822378158569,1.1195321809468828,1.7076115846721605,0.12749627232551575,0.9999675154685974,1.0920056646972753,1.7438542834770594,-0.12761732935905457,0.999985933303833,1.3859521505948,1.7796260042852217,0.16499128937721252,0.47902536392211914,1.3855753681974106,1.8235326077659826,-0.14411120116710663,0.9917218685150146,1.4021864983946433,2.13827160419401,0.3154446482658386,0.7139484286308289,1.3712035311443431,2.203737244314523,0.04794800281524658,0.989439845085144,1.3093473156778628,1.7940778699194944,0.060122888535261154,0.13482096791267395,1.3274625612054747,1.8303917052410206,-0.31031617522239685,0.9564560055732727,0.007540702819824219,1.105768922822079,1.72573293407461,107.71758050648928,103.02018486518979,1.0,0.01006887052461993,0.03245206369909217,0.21223694764668596,0.2373937233680545,153.84270018618696,1.1799587704884058,51,1.7
1.2818726182031843,1.129891566006088,-0.23521116375923157,0.9999831318855286,1.1834516969764475,1.2644181708071018,0.09176474809646606,0.9999169111251831,1.1468441196890995,1.2826392123740926,-0.2905251085758209,0.9999816417694092,1.1164781972350601,1.7079280718217569,0.12763963639736176,0.9999687671661377,1.0848923378611992,1.7487507145484391,-0.12776455283164978,0.9999862313270569,1.381650711737594,1.7791786409427726,0.17350199818611145,0.5029101967811584,1.3791086253418297,1.8195912309443103,-0.164625346660614,0.9922417998313904,1.4035993550387709,2.129891566006088,0.32892274856567383,0.7251242399215698,1.36730457823567,2.1983028807556755,0.026528935879468918,0.9898838996887207,1.2730438583556434,1.756659711703473,0.028599431738257408,0.12809473276138306,1.2806629025389749,1.8170629733061388,-0.3119637966156006,0.9464905858039856,0.007225334644317627,1.1006852675481298,1.728339393185098,108.6209373811356,101.75254859350457,1.0,-0.015692148202010626,0.05257917879106921,-0.1881651318513376,0.14779681089561247,150.85690248160353,1.201165044252528,52,1.7333333333333334
1.2543417852640515,1.1237966669044508,-0.25072088837623596,0.9999848008155823,1.1618481889533436,1.2566073544865388,0.09238538146018982,0.9999200701713562,1.1233172519256027,1.2754720866285931,-0.27259331941604614,0.9999828934669495,1.1143550841966,1.70659998117708,0.12456856667995453,0.9999693036079407,1.0807915397568246,1.7526026883206178,-0.12471753358840942,0.9999865889549255,1.37722240838663,1.7677738719885576,0.1661035418510437,0.5197552442550659,1.3756488362459904,1.8084201395653583,-0.17093895375728607,0.9926583766937256,1.3994966966974167,2.123796666904451,0.2860131859779358,0.7365649342536926,1.3644871143924004,2.192507968269592,-0.013225791044533253,0.9903411865234375,1.2277379256063048,1.6456424940009435,-0.02706758677959442,0.13130943477153778,1.2521040158160486,1.8078059968384688,-0.3555406630039215,0.9508628845214844,0.0075029730796813965,1.0975733119767124,1.7296013347488488,106.6805678085107,99.05486732226683,1.0,0.0013366034338701867,0.04966912279045516,0.1313883735113118,-0.02130097504030799,149.91033934489124,1.2166115360950234,53,1.7666666666666666
1.2379952956932943,1.1168171334668244,-0.26324743032455444,0.9999862313270569,1.144375567766313,1.2543871355374137,0.08490968495607376,0.9999203681945801,1.1016607650886703,1.2726855182038297,-0.2903049886226654,0.9999840259552002,1.1129442790100907,1.7100241648524077,0.12503427267074585,0.9999697804450989,1.078359605678441,1.753843456280049,-0.12516528367996216,0.9999869465827942,1.3726711856576395,1.7623029499312397,0.1671985685825348,0.5432981848716736,1.3730007743763997,1.7940508862241191,-0.16363787651062012,0.9930338859558105,1.4003891031955293,2.1168171334668244,0.30277809500694275,0.7481136918067932,1.3666999895872107,2.182513605446248,0.006583074573427439,0.9905266761779785,1.2231614844089425,1.6798390446086287,0.0002594027610030025,0.12424937635660172,1.2257532366420072,1.807902588954544,-0.3711875081062317,0.9546377062797546,0.0072901248931884766,1.0956519423442659,1.7319338105662283,105.8512473351666,96.8414750819167,1.0,-0.0004154219594053683,0.040574987749732914,-0.013458626661265861,-0.06929970349780437,145.66368633222774,1.24449742942115,54,1.8
1.2123614141788188,1.1118381919075224,-0.25035256147384644,0.9999875426292419,1.122235004030035,1.2486969776712415,0.0700768381357193,0.9999241828918457,1.0803013119593203,1.272743189635804,-0.2994840741157532,0.9999851584434509,1.1112374709678265,1.7079431400032496,0.12530480325222015,0.9999711513519287,1.0775507915296259,1.757454297373121,-0.12543901801109314,0.9999876022338867,1.3673114002084776,1.7562519606760436,0.16834381222724915,0.5666523575782776,1.369730838094447,1.7832881313693776,-0.16303709149360657,0.9933965802192688,1.4013812853205978,2.1118381919075224,0.2952180504798889,0.7594293355941772,1.3626996589924367,2.1759333861922023,0.0018091893289238214,0.9908668994903564,1.1926034668369008,1.6836196091242472,-0.053216345608234406,0.1184549555182457,1.1994098975635084,1.80300782525523,-0.394172728061676,0.9574443101882935,0.00961044430732727,1.0943941312487262,1.7326987186881853,106.1563867546912,94.02691317669962,1.0,0.017438393018121005,0.04934482715439689,0.1412248384936729,0.07038937213240043,147.14098782542158,1.2593667248096745,55,1.8333333333333333
1.2054259401797387,1.1050411317846804,-0.24458475410938263,0.9999886751174927,1.1134895578152173,1.2426001284006325,0.07399843633174896,0.9999275207519531,1.0744249980751786,1.267853415984713,-0.29813843965530396,0.9999862909317017,1.1066697869688429,1.698878911165012,0.12480808794498444,0.999972403049469,1.0756863594411403,1.7487778589614011,-0.12495897710323334,0.9999881982803345,1.3590463754663469,1.7511421412227284,0.17432263493537903,0.5726770162582397,1.3645273466099122,1.7752489998909329,-0.1621982604265213,0.9933436512947083,1.3949513322697875,2.1050411317846804,0.3060159385204315,0.7558422088623047,1.3567668818729772,2.167315661305949,0.010043180547654629,0.9905412793159485,1.1792347057985426,1.6834150024415722,-0.002473629079759121,0.10935577750205994,1.1959232984781623,1.794707776449851,-0.39714282751083374,0.9597719311714172,0.010136693716049194,1.0911780732049916,1.7238283850632066,107.49282733638896,94.10235615014558,1.0,0.01237193731711266,-0.011264355512018343,-0.040752935722845336,-0.4931428009272563,149.0191914313234,1.255786177665195,56,1.8666666666666667
1.1774011761115453,1.0967149443635547,-0.21883663535118103,0.99998939037323,1.07934158168078,1.2347476398927997,0.07775286585092545,0.9999306201934814,1.0512209750070027,1.258733329606389,-0.2994752526283264,0.9999872446060181,1.0993669996381716,1.6915643268880305,0.12509867548942566,0.9999735951423645,1.0701117154038398,1.7379911877924183,-0.12524482607841492,0.9999887347221375,1.348519845020082,1.7410457088095082,0.18085023760795593,0.5669744610786438,1.3559253031842216,1.7613238755481817,-0.1576121300458908,0.9931077361106873,1.3852842830084229,2.096714944363555,0.31663626432418823,0.7514216303825378,1.3475784719695185,2.1528812254783163,0.013505007140338421,0.9900410175323486,1.1657396261265096,1.7019902325539544,0.024333568289875984,0.10152574628591537,1.1745753606593092,1.7820466205341754,-0.3932343125343323,0.9612466096878052,0.00969231128692627,1.0847393575210058,1.7147777573402243,107.13423006826247,93.44586115483095,1.0,0.005833893795184608,0.01723963513148867,-0.046199111734764035,0.2034449725015505,145.27339100215025,1.2563148811742038,57,1.9
1.1575063404199337,1.0952821022289843,-0.22090640664100647,0.9999902248382568,1.0652635543990037,1.2356134116621251,0.07612062990665436,0.9999316334724426,1.035706342543731,1.2580164499901774,-0.3004975914955139,0.9999882578849792,1.0979617740079064,1.6925807795162107,0.1253204494714737,0.9999745488166809,1.0707230409002069,1.7371678395730696,-0.1254645138978958,0.9999893307685852,1.3476672446148463,1.741332252163176,0.1846499741077423,0.5671617388725281,1.3560956227947167,1.7561806926764978,-0.15269909799098969,0.9930648803710938,1.3901085319427966,2.0952821022289845,0.33276188373565674,0.7458703517913818,1.3490170358042732,2.151424684542354,0.01527237705886364,0.9897873401641846,1.151561035280403,1.7068450282789513,0.031475331634283066,0.09337422251701355,1.1593903993741876,1.7811323615387384,-0.3932510018348694,0.9640257954597473,0.009053915739059448,1.0843424074540566,1.7148743095446402,107.88478547815284,92.78565508457827,1.0,-0.001973267863577439,0.0023522066230331463,-0.058991857196655825,-0.1124854231225208,144.48596215091013,1.2522895436997008,58,1.9333333333333333
1.1359907486923373,1.0926339289000029,-0.2537258565425873,0.9999909996986389,1.0390232133515118,1.230847638110889,0.03803553432226181,0.9999341368675232,1.0193794935038591,1.2544905966333884,-0.33302122354507446,0.9999892711639404,1.093087897726888,1.6862691210816116,0.12521477043628693,0.9999752640724182,1.0691472245635407,1.7302483079945912,-0.1253548115491867,0.9999898672103882,1.3354919423477254,1.743427682500915,0.19101622700691223,0.5516592264175415,1.353526310319783,1.7459950204742296,-0.15859878063201904,0.992357611656189,1.3867649539598477,2.092633928900003,0.34695297479629517,0.7299042344093323,1.3485924169541754,2.141686850419038,-0.01034133043140173,0.9883598685264587,1.1545441484684145,1.708797839320354,-0.002571538556367159,0.08639752864837646,1.1465193956856474,1.7713333700355256,-0.4420146942138672,0.9670616984367371,0.009573489427566528,1.0811175611452144,1.7082587145381014,111.62081267767728,92.45497444529418,1.0,-0.008292219088555895,-0.024213128814158824,-0.04630484940296424,-0.19451850292614137,144.66763310037814,1.2378147402193433,59,1.9666666666666666
1.1231969146836227,1.0934809763318691,-0.24133959412574768,0.9999913573265076,1.0335216522811472,1.2329576315167037,0.041966572403907776,0.9999376535415649,1.0058793131774642,1.253847155694482,-0.3303855061531067,0.9999902248382568,1.0949537160530398,1.6870067296709255,0.12494046986103058,0.9999768733978271,1.0703657216420948,1.7286115346602413,-0.12507961690425873,0.9999905824661255,1.338228854509811,1.7459407892443197,0.19866521656513214,0.5278065204620361,1.3556321109296363,1.7460886455017977,-0.1524670273065567,0.9906030893325806,1.3788823968575459,2.093480976331869,0.3572874367237091,0.7089076042175293,1.3565140889839644,2.139329535997434,0.0007276644464582205,0.9861807823181152,1.1318992799636123,1.7112404144957802,0.00883125327527523,0.07979661226272583,1.1365987650685685,1.7707756284241052,-0.4330504834651947,0.9695862531661987,0.008446365594863892,1.0826597188475673,1.7078091321655833,110.28956960749558,93.63440245343514,1.0,-0.00014692806883884885,-0.021346356863596424,0.059672537571603665,0.021227119030073155,141.71213553743885,1.2357846259257035,60,2.0
1.1034993668650637,1.1025720972047426,-0.2584556043148041,0.9999920725822449,1.028538390919136,1.2436905258138626,0.023675236850976944,0.999941349029541,0.9829486610197855,1.2644636559433315,-0.344270259141922,0.9999911189079285,1.106122009298865,1.6965568952754744,0.12502270936965942,0.9999784231185913,1.079545953820588,1.741200398265776,-0.12515921890735626,0.9999912977218628,1.3509931628266343,1.7562499261224866,0.1961374133825302,0.5154918432235718,1.3659197287641458,1.7603961366167882,-0.17070898413658142,0.9902851581573486,1.375853624466121,2.1025720972047424,0.3583942651748657,0.6895918846130371,1.3677232693686023,2.1556257791522153,-0.04182864725589752,0.9852588176727295,1.1524382107063256,1.7256606582596101,-0.038446974009275436,0.07366817444562912,1.1413701511353644,1.785198908746421,-0.4531685411930084,0.9721190333366394,0.00832754373550415,1.0928339815597266,1.7188786467706252,107.80586219851996,94.09627489200096,1.0,0.006346651155127697,-0.027397159368703298,0.04879182782075237,-0.04407413899399072,139.5135144305015,1.2425306028367822,61,2.033333333333333
1.091618983000971,1.1044665805796738,-0.2503754496574402,0.9999924302101135,1.0102051955103513,1.2492395657248276,0.028868477791547775,0.9999445676803589,0.9758432462192734,1.2661957049927528,-0.3425549268722534,0.9999918937683105,1.107912120380413,1.698842263481299,0.12495770305395126,0.9999799132347107,1.0808064825262815,1.7437679386166285,-0.12509578466415405,0.9999919533729553,1.3525094070466737,1.756959025381267,0.20277826488018036,0.5007458925247192,1.3683872002511426,1.7561243161303803,-0.17213357985019684,0.9897139668464661,1.3792114655841408,2.104466580579674,0.3650546371936798,0.6809561848640442,1.3694630146362283,2.1578580392627575,-0.0338837206363678,0.9840103983879089,1.1435911381130328,1.726649176243981,-0.011895352974534035,0.0688033327460289,1.141540106327513,1.7873670142859632,-0.4529194235801697,0.9744154214859009,0.006786525249481201,1.0943593014533473,1.7213051010489637,107.75964519157645,92.6137275981835,1.0,-0.001704048383786303,-0.002471962313353395,-0.061419442580750876,0.19025083582591593,136.63478649844646,1.2427368182891565,62,2.066666666666667
1.0784215619853674,1.1040343599611941,-0.22455620765686035,0.9999924302101135,0.9944294975836891,1.2500286157217932,0.03449215367436409,0.9999470710754395,0.9664186984076735,1.2639917509471785,-0.33905377984046936,0.9999926090240479,1.0995874656527775,1.694758008298225,0.12120704352855682,0.9999811053276062,1.0751005784126857,1.7384115240135487,-0.1213567852973938,0.9999924898147583,1.3473128593074335,1.7509089994792346,0.19001923501491547,0.48759567737579346,1.3647538539119308,1.7475612757122752,-0.16846677660942078,0.9883099794387817,1.3740349296758887,2.104034359961194,0.3160378038883209,0.6787723898887634,1.3594615237944276,2.1534062662228486,-0.03311167657375336,0.9824715256690979,1.1309701290489205,1.7230813706340227,-0.0029110265895724297,0.06438926607370377,1.1399233403197042,1.7828299578418554,-0.43197959661483765,0.9766589403152466,0.005602359771728516,1.0873440220327317,1.7165847661558868,107.09871918128613,91.06218349873446,1.0,-0.03549230237355016,-0.0040532874402988694,-0.27708741856181734,-0.013016135045403455,137.4068409419875,1.2303475978433263,63,2.1
1.069616145269743,1.1133875637215012,-0.25004199147224426,0.9999930262565613,0.9924930977224757,1.260406932136089,0.033392153680324554,0.9999481439590454,0.9628114037356448,1.27103258608412,-0.33174943923950195,0.9999932646751404,1.1034409946017563,1.7004053043002147,0.12117687612771988,0.999981701374054,1.078865443116453,1.7433910534319237,-0.12133389711380005,0.999992847442627,1.35264783455344,1.7523924491670235,0.1761084794998169,0.4743465781211853,1.3698282111410458,1.7504181764272968,-0.1649133712053299,0.9862839579582214,1.3747206629167807,2.113387563721501,0.30879440903663635,0.6641351580619812,1.3643056437755476,2.1568600238540565,-0.028842294588685036,0.9789517521858215,1.123521363780622,1.7289873891912593,-0.014763593673706055,0.06064322590827942,1.1444370423295465,1.788959724925551,-0.4484875798225403,0.9787348508834839,0.004248619079589844,1.0911532188591047,1.7218981788660692,105.28246362496724,90.60503344524912,1.0,0.0004293016562450751,-0.004559518110093798,0.26961723779700936,-0.003682097157706337,136.0903881592318,1.222087316963965,64,2.1333333333333333
1.0582772522124604,1.1204052109219143,-0.254702627658844,0.9999935626983643,0.9790572544759999,1.2697056614260374,0.037865862250328064,0.9999486804008484,0.961653549218724,1.277285157045192,-0.3253803849220276,0.9999937415122986,1.1047363630149598,1.7041770521170632,0.1213613748550415,0.9999815821647644,1.0861657022967455,1.7381338797701946,-0.1215248703956604,0.999992847442627,1.3541135721604065,1.756884204266884,0.1919471174478531,0.4557487368583679,1.3750861993939243,1.7524373576650134,-0.16323938965797424,0.9839615821838379,1.3709958415865993,2.120405210921914,0.31407231092453003,0.6484647989273071,1.3687367843470641,2.1559876035728065,-0.03310432657599449,0.975398600101471,1.1278473253815615,1.7326369898958736,-0.014102076180279255,0.057488568127155304,1.1474335159977336,1.792984596352265,-0.4421633183956146,0.9803764224052429,0.0030237436294555664,1.0954510326558526,1.721155465943629,104.59308382580087,91.9327954681113,1.0,0.0138800620952303,-0.03567403172504162,0.10291243347221546,-0.23799656427722787,135.19265949163972,1.2056581911038438,65,2.1666666666666665
1.058576646772664,1.1238792743894799,-0.21104450523853302,0.9999938607215881,0.9829982400260349,1.2773278320898802,0.05876949429512024,0.9999504089355469,0.9562304013526176,1.2792231426289635,-0.28778785467147827,0.9999942183494568,1.10634604342516,1.7064839236384517,0.12078069150447845,0.9999819993972778,1.0894933856026274,1.7396190152001152,-0.1209583654999733,0.9999930262565613,1.3552178084677005,1.7599908728236453,0.21179310977458954,0.4254388213157654,1.3788350506015894,1.7536241436258455,-0.1533372700214386,0.9799802303314209,1.3673394467958562,2.1238792743894797,0.336351215839386,0.6193793416023254,1.3712672747710257,2.157289677500201,-0.03179303556680679,0.9701279401779175,1.135346374472335,1.7362421095747447,0.018872378394007683,0.054691944271326065,1.150284569648024,1.7955624715944691,-0.409492552280426,0.9817001223564148,0.000755012035369873,1.0979197145138937,1.7230514694192833,104.04167259967004,91.69711452820118,1.0,0.006625670546298698,-0.004595081576907518,-0.05505317785498663,0.23559459350291045,137.00622513300723,1.205793191607566,66,2.2
1.0520485293938038,1.1290107944085561,-0.21024182438850403,0.999994158744812,0.9714634264583758,1.2789380641577246,0.0593067929148674,0.9999510645866394,0.9558281271741242,1.2816571032986857,-0.2861748933792114,0.9999946355819702,1.1081676749795124,1.709018453694849,0.11986827850341797,0.9999822974205017,1.0975474773471474,1.7384636214996811,-0.12006205320358276,0.9999932050704956,1.3576353950440627,1.7629505590896855,0.20637547969818115,0.40188324451446533,1.383147517089717,1.7538951876648776,-0.14298361539840698,0.9769678711891174,1.369884858193432,2.1290107944085563,0.33053117990493774,0.5997061133384705,1.3746959270085453,2.1604276552236192,-0.03127902373671532,0.9670045375823975,1.1385409186992461,1.739173053339039,0.022183025255799294,0.05220003426074982,1.151808373079025,1.7983671528562613,-0.41126003861427307,0.9832965135574341,0.0010814666748046875,1.10285757616333,1.723741037597265,104.11553515761574,91.90182639862114,1.0,0.02495812604252139,-0.015415398339533709,0.14166086864861854,-0.08360387907361602,142.53354186657472,1.1942252516650393,67,2.2333333333333334
1.0545414543280842,1.139707969036808,-0.2135404795408249,0.9999943971633911,0.9720806715534731,1.2870343143174572,0.045557569712400436,0.9999513626098633,0.9577869891797894,1.2907422893923293,-0.2923019528388977,0.9999950528144836,1.1203318218046565,1.7170089242585258,0.1168128103017807,0.999982476234436,1.1080546263646025,1.7491086308086174,-0.11700563132762909,0.9999933838844299,1.3690680550188388,1.773216054004444,0.18869896233081818,0.38913846015930176,1.3963641797893924,1.7668745773355232,-0.14504574239253998,0.9749177098274231,1.3812576985315428,2.139707969036808,0.3174417018890381,0.5870101451873779,1.386152455076804,2.173785292483818,-0.028125982731580734,0.9641733169555664,1.1490908185199498,1.7511390807651435,0.0007210735348053277,0.04976029321551323,1.1608556842334075,1.8105113636363637,-0.4121167063713074,0.9847651720046997,0.0014641284942626953,1.1141932240846295,1.7330587775335717,104.63829041900959,92.0885911461958,1.0,0.025578985638081843,-0.025249584617743123,0.0034081359972949385,-0.07549648104036456,140.0459090739324,1.18758649564821,68,2.2666666666666666
1.0475364669065703,1.1376755851683922,-0.2170713245868683,0.9999944567680359,0.9702600102264924,1.2842690694404144,0.043490104377269745,0.999951183795929,0.9583476079378552,1.2886554030621022,-0.29180628061294556,0.9999954104423523,1.1183023480255547,1.7129371757706253,0.11492534726858139,0.9999823570251465,1.1093122849581676,1.7386115773897495,-0.11511757224798203,0.9999934434890747,1.3658628595430138,1.7743895365566973,0.19022129476070404,0.36284926533699036,1.3943884156800994,1.7636211364784768,-0.14319704473018646,0.9700064659118652,1.3800832281004969,2.137675585168392,0.3067280650138855,0.5660316348075867,1.3833889101313084,2.17015644966556,-0.039245568215847015,0.9594387412071228,1.1461714983378184,1.7470559663929859,0.0056134494952857494,0.04697791486978531,1.1570733038229424,1.8062305673292796,-0.4143466353416443,0.9859703779220581,0.001735389232635498,1.1138073164918612,1.7257743765801874,106.18247194598209,93.46383154971623,1.0,0.01382632930816881,-0.02983813866642984,-0.08989234234342913,-0.03562739944333754,141.6493883071643,1.1717649683647702,69,2.3
1.0416701815479987,1.1329239059462786,-0.21140038967132568,0.9999946355819702,0.9721278416126926,1.2790061766847038,0.048555951565504074,0.9999504089355469,0.956350952770502,1.284456819495208,-0.2795626223087311,0.9999957084655762,1.1142476527847616,1.708658616212484,0.11424475908279419,0.9999822974205017,1.105449592098647,1.732514428525326,-0.11444004625082016,0.9999935626983643,1.3614064528718206,1.767828854048618,0.1816239058971405,0.341901570558548,1.3893540373603117,1.757072266460527,-0.1399916708469391,0.964927613735199,1.3751671757615784,2.132923905946279,0.29046860337257385,0.543368399143219,1.3787392958729539,2.162164166222616,-0.039500247687101364,0.9544588327407837,1.1425314650675833,1.7403000532861013,0.011857399716973305,0.04419993609189987,1.150196633219006,1.7995282303760798,-0.41445016860961914,0.9871552586555481,0.0021644234657287598,1.1098486224417043,1.720586522368905,105.62181778193543,93.44280536183547,1.0,0.001034137136517486,0.008831175535751376,-0.09737399019472832,0.29468617584548185,141.45283968395754,1.174687481335553,70,2.3333333333333335
1.0407727331039185,1.132039818238698,-0.2153937816619873,0.9999948143959045,0.9704431575812273,1.278453693555006,0.04280645027756691,0.9999502301216125,0.9577681800688245,1.2862932562715828,-0.2864134907722473,0.9999960064888,1.115059525551087,1.707967623861835,0.11325323581695557,0.9999827146530151,1.1053005460791308,1.7324906954988046,-0.11343451589345932,0.9999938607215881,1.3649511574641944,1.7656092432088957,0.17454907298088074,0.32561641931533813,1.3889255242292138,1.7568605738969825,-0.1410457193851471,0.962581992149353,1.376875173017584,2.132039818238698,0.28898701071739197,0.5277116894721985,1.3780444530468725,2.1617135436476946,-0.039427630603313446,0.9525734186172485,1.1387357581677429,1.7375387203038057,-0.0016942198853939772,0.04097612947225571,1.1476548755886349,1.7987891582399131,-0.425748735666275,0.988243043422699,0.0031142830848693848,1.1101800358151088,1.7202291596803199,104.85283032338258,93.37141223615826,1.0,0.005892830866487514,0.002470437252166002,0.03717695132025079,-0.04863923937342082,139.69160805059508,1.1764064710704014,71,2.3666666666666667
1.0399245894717217,1.1324037334801176,-0.2282111942768097,0.9999950528144836,0.9698114714277062,1.2787967218831107,0.04313492029905319,0.9999487400054932,0.9596511343664517,1.286482927744186,-0.28245115280151367,0.9999963045120239,1.1171309174534814,1.7082514095567887,0.1119605302810669,0.9999829530715942,1.1065942632729278,1.7326228590209045,-0.11214146763086319,0.9999940991401672,1.372084039553376,1.7662949102846928,0.1651918888092041,0.3147353529930115,1.3896942397137049,1.7592654205771612,-0.1421554684638977,0.9625124931335449,1.3823609343502252,2.1324037334801176,0.27617591619491577,0.5240674614906311,1.3754254113426063,2.1656900109119954,-0.050054263323545456,0.9535693526268005,1.1357473568675884,1.7382821761456826,-0.0011801362270489335,0.03821469098329544,1.1448032099384946,1.7993821464320912,-0.4251503348350525,0.989242434501648,0.003052055835723877,1.1118625903632047,1.7204371342888465,104.4334548146855,93.36555091849881,1.0,0.009137558648704754,-0.003996013590172581,0.024534213143166464,-0.04894050507505095,137.68549899139714,1.1731286098544556,72,2.4
1.0434552812020215,1.135363451622653,-0.22870203852653503,0.999995231628418,0.9765156536588689,1.2825763110459196,0.043029241263866425,0.9999477863311768,0.960153960172253,1.2902238828722319,-0.28068259358406067,0.9999966025352478,1.1302346326828117,1.7098406310470038,0.11040002107620239,0.9999834299087524,1.1121979109384217,1.7374912817756458,-0.11057236045598984,0.9999943971633911,1.3793831731588972,1.7710236145786402,0.1708473265171051,0.30604928731918335,1.3941099619804493,1.765665120064017,-0.1492253988981247,0.9634711146354675,1.3925590684400844,2.135363451622653,0.2895427644252777,0.5233007669448853,1.3769197501798223,2.1745585557915548,-0.05826219916343689,0.9552943110466003,1.1393705413786783,1.7391011938838998,-0.007230869494378567,0.035663921386003494,1.142049035848134,1.8051675122356257,-0.4172798693180084,0.9902010560035706,0.003027617931365967,1.1212162718106167,1.7236659564113248,105.86814178319614,93.29975497669285,1.0,0.044397404363755,-0.01432834165494681,0.2601454373816497,-0.07620216750263166,127.09583773697257,1.1740815092329828,73,2.433333333333333
1.042761521807675,1.1344775086005368,-0.21861331164836884,0.9999952912330627,0.9772051451172944,1.281765146796512,0.05575009435415268,0.9999456405639648,0.9571011765583904,1.2883574308359007,-0.27100831270217896,0.9999968409538269,1.128940754382574,1.7088377789094609,0.11096129566431046,0.9999834895133972,1.1111843052119776,1.734778985371771,-0.11113890260457993,0.9999945759773254,1.3781071077632752,1.7722354729793017,0.17365387082099915,0.2914556860923767,1.3934355374095042,1.764661087279978,-0.1490449160337448,0.9634140729904175,1.3918184627137289,2.1344775086005368,0.28649336099624634,0.5170024037361145,1.3760672192687533,2.1733149873272475,-0.059183817356824875,0.9560636281967163,1.1380391506016858,1.7369369908883627,0.0095894243568182,0.03345554322004318,1.1358858848127316,1.8051869623183376,-0.40675410628318787,0.9910830855369568,0.002611398696899414,1.120062529797276,1.721808382140616,106.44306803737842,93.60974523965605,1.0,-0.004020536839906848,-0.006878848133159428,-0.4025629524299033,0.06190028509432483,126.04908789614477,1.1700593667661534,74,2.466666666666667
1.0418814346295717,1.1333931262275252,-0.2166871577501297,0.9999954104423523,0.9725186205731203,1.2806620173832857,0.06121436506509781,0.9999445080757141,0.9576668113131543,1.2871469807006306,-0.2706301212310791,0.9999970197677612,1.1250219957622312,1.7088067010535941,0.11124764382839203,0.9999834895133972,1.1099299525643207,1.7332797442275265,-0.11141888797283173,0.9999946355819702,1.3728834364036648,1.7740622363750111,0.18464168906211853,0.278600811958313,1.3920090946134605,1.7631401612438766,-0.1477837860584259,0.9637003540992737,1.3907308035156238,2.133393126227525,0.28990688920021057,0.5169306397438049,1.3750174293630666,2.1714070650576205,-0.05823466181755066,0.9571214914321899,1.1283211533874902,1.7366900739410895,0.01213888730853796,0.03188817575573921,1.1300509730414074,1.8039476088567548,-0.4072530269622803,0.9918586015701294,0.0025711655616760254,1.117475974163276,1.7210432226405603,107.59324695137421,93.65951066211818,1.0,-0.0112367482327792,0.005370167528187658,-0.05091334952689717,0.08633617673126635,128.7329937430419,1.1698568455510263,75,2.5
1.0392400485266786,1.1299946818538031,-0.21474364399909973,0.9999952912330627,0.9630150103645759,1.2769635821293797,0.0595187172293663,0.9999402165412903,0.9563646666714138,1.2834922718228574,-0.271025151014328,0.9999971985816956,1.121696799705272,1.7049054745424201,0.11153340339660645,0.9999828338623047,1.1082910236513215,1.7281456609886054,-0.11170969158411026,0.9999945759773254,1.3651983361210813,1.7751104011921042,0.1921701282262802,0.26633548736572266,1.3880743850870036,1.758346435061837,-0.14529286324977875,0.9633901119232178,1.3867287704213629,2.129994681853803,0.29220765829086304,0.514431357383728,1.372177362986527,2.1645718517530206,-0.05435360595583916,0.9572563767433167,1.1149564335514686,1.7300410048185628,0.01151494774967432,0.029931142926216125,1.1226853227784934,1.8006490462004112,-0.408357709646225,0.9925745129585266,0.0025957822799682617,1.1149939116782968,1.716525567765513,109.55483319623102,93.9198074232309,1.0,0.004702852535026467,0.0022297728046044092,0.11474982500792155,-0.02254397464100409,129.67721372578853,1.1700204672425194,76,2.533333333333333
1.0381807972628425,1.1286218092784899,-0.2160683572292328,0.999995231628418,0.9591144821903789,1.27558221090276,0.058302462100982666,0.9999361634254456,0.9562448067860466,1.2820936972044308,-0.2739940285682678,0.9999973177909851,1.1203304128910687,1.7033951423602351,0.11176438629627228,0.9999821782112122,1.1081058577394265,1.726048992715854,-0.11194048076868057,0.9999945163726807,1.361943678885681,1.776662204723879,0.1962171494960785,0.25622597336769104,1.386590615214229,1.7565639191836508,-0.1453562080860138,0.9635463356971741,1.385242223441725,2.12862180927849,0.2945837676525116,0.5130550265312195,1.371831236280125,2.1613650864320775,-0.053713757544755936,0.9575843811035156,1.1126142993772674,1.7287451772418605,0.011862345971167088,0.028379710391163826,1.120183952745188,1.8000784565137289,-0.40922150015830994,0.9932312965393066,0.0025916695594787598,1.1142181353152476,1.7147220675380446,110.65672072211997,94.16510387728617,1.0,0.00314071487891536,2.247804226363757e-05,-0.01230171110484424,-0.017418978711174003,130.99936029170667,1.1703774394688726,77,2.566666666666667
1.0379394681899468,1.1285799227776097,-0.2164364755153656,0.9999950528144836,0.9588307008426167,1.2764751783034438,0.04731941968202591,0.999933123588562,0.9562634607492788,1.2823031023750828,-0.28029686212539673,0.9999974966049194,1.1202910217738384,1.7032478035951246,0.11155076324939728,0.9999824166297913,1.108014518887734,1.7253842398027803,-0.11173490434885025,0.9999946355819702,1.3622092553041718,1.7764977938599513,0.19584518671035767,0.2491430938243866,1.3865855302374483,1.7568510159027801,-0.14507979154586792,0.9632861018180847,1.3857047217088374,2.1285799227776097,0.295218288898468,0.5146061182022095,1.3719907081514853,2.159894231086056,-0.04738740995526314,0.9574328660964966,1.1121793758106404,1.7323986568456242,0.005633524619042873,0.027048880234360695,1.116826123813432,1.8047816175964007,-0.4094787538051605,0.9938358664512634,0.0023193359375,1.1141527703307863,1.7143160216989526,110.6635476161315,94.37082592665251,1.0,-0.0014602888039402168,-0.004559116296873706,-0.03482529440843497,-0.0346756930643773,130.26490380631637,1.1699417957492528,78,2.6
1.0395619345510503,1.1302407054314225,-0.2251463234424591,0.9999950528144836,0.9623600696556825,1.2786841595426253,0.04106605798006058,0.9999302625656128,0.9573552082038715,1.2843326392616743,-0.2847716212272644,0.999997615814209,1.1219858004954384,1.7052207334638072,0.11160503327846527,0.9999826550483704,1.1092665204418366,1.727749997993615,-0.11179061233997345,0.9999948143959045,1.3645919346928097,1.7791595039976562,0.1846989393234253,0.24269966781139374,1.3880658127242604,1.7597822513618477,-0.14585767686367035,0.9626314043998718,1.3885758470113154,2.1302407054314227,0.29577478766441345,0.5111420750617981,1.3740634214135046,2.1633716326580053,-0.04594061151146889,0.9566541910171509,1.10647235760424,1.7418219939835455,-0.0048772734589874744,0.025557247921824455,1.1128214594226098,1.810730476356273,-0.41002243757247925,0.9943639039993286,0.0022443532943725586,1.1156261604686375,1.7164853657287111,110.85764023477243,94.56711958398972,1.0,-0.002259159186884054,-0.004215734670637262,-0.006028924393899565,0.0026538696029563213,130.0346552287796,1.1689015458392131,79,2.6333333333333333
1.041658865711712,1.132468896080006,-0.238507479429245,0.9999952912330627,0.9643197911761711,1.281288568691683,0.03628607839345932,0.9999292492866516,0.9592828858635423,1.2876104049644512,-0.29099327325820923,0.9999977350234985,1.1242019256677662,1.7087540431244055,0.11171047389507294,0.9999828934669495,1.1113921500909996,1.731995690340357,-0.11189574003219604,0.9999949932098389,1.3677258803930403,1.7818870281424382,0.18355374038219452,0.24238520860671997,1.390334231617524,1.763772477930281,-0.1489667296409607,0.9637506008148193,1.3931875960870335,2.132468896080006,0.3002459406852722,0.5139157772064209,1.3763489576658992,2.1678713896547874,-0.04569917917251587,0.9574665427207947,1.1042664052109752,1.748015087566737,-0.019014468416571617,0.02425793558359146,1.1117500607854418,1.8180157151505882,-0.420762300491333,0.9948381185531616,0.002506732940673828,1.117797037879383,1.7203748667323813,110.8695323621041,94.51692523750572,1.0,-0.000986754386725273,0.0026476817099195023,0.009683092517136121,0.0521064494620137,130.63139721863,1.1716545007864543,80,2.6666666666666665
1.0436811979224834,1.134594280059007,-0.23481592535972595,0.9999953508377075,0.9661735944459585,1.283742608604499,0.037479765713214874,0.9999279975891113,0.9610032981846768,1.2903660881821788,-0.2904922366142273,0.9999978542327881,1.1286052550307728,1.7101025421633642,0.11166805028915405,0.9999831914901733,1.1136818297413165,1.7360843784638489,-0.11185421049594879,0.9999951720237732,1.371339658500038,1.7826171201215621,0.1836491972208023,0.23942768573760986,1.3927775200214654,1.7680096795548923,-0.1474735289812088,0.9643098711967468,1.3962792572973381,2.134594280059007,0.30464819073677063,0.5122544765472412,1.3790341425408892,2.1721451032571957,-0.0449201837182045,0.9578918218612671,1.1089292568492664,1.7462427300357108,-0.012138400226831436,0.02307453192770481,1.1116886258226542,1.8258259976957816,-0.42008814215660095,0.9952166676521301,0.0026212334632873535,1.1211435423860445,1.7230934603136066,110.68597232410593,94.57790852489885,1.0,0.00884377271020213,-0.004792015253565932,0.07440548680042218,-0.056337750957768516,129.2723441903995,1.172768213519578,81,2.7
1.0433929784377727,1.1341769813453877,-0.23372948169708252,0.9999952912330627,0.9670180963356778,1.2849973941824662,0.03914849832653999,0.9999256134033203,0.9605159360628811,1.2917007779210357,-0.2896588444709778,0.9999979138374329,1.1280775691241751,1.7095253075960013,0.11177915334701538,0.9999834895133972,1.1115679854896277,1.737535041903488,-0.11196386814117432,0.9999952912330627,1.3710724066469537,1.7817594880477552,0.17659133672714233,0.233328178524971,1.391912773956188,1.7674306910125228,-0.14753684401512146,0.96401047706604,1.3961103872938183,2.1341769813453877,0.2976834177970886,0.5048733949661255,1.3782078976408676,2.173545415187697,-0.047250568866729736,0.9576249122619629,1.108310017232347,1.7529070693123374,-0.016009021550416946,0.02160230651497841,1.1109491085303618,1.8295302248862313,-0.42043548822402954,0.995529055595398,0.002653777599334717,1.1198227773069014,1.7235301747497447,110.61926881926128,94.15416488213967,1.0,-0.00724845738575681,0.008060352588308738,-0.12524115592027876,0.10003239196871372,128.70793330073082,1.1730633672671948,82,2.7333333333333334
1.043380066637696,1.134055388491685,-0.23258444666862488,0.9999950528144836,0.9674052195338192,1.2865570721989168,0.0334843248128891,0.9999237656593323,0.9604152845914988,1.293114102243992,-0.29041534662246704,0.9999980330467224,1.1271395238708548,1.7092754936459482,0.11157311499118805,0.9999837279319763,1.1108803355566224,1.7382987146164606,-0.11175672709941864,0.9999954104423523,1.3710109386960447,1.7812891593191642,0.17770850658416748,0.22826741635799408,1.3916378671872465,1.7689582573842804,-0.14497488737106323,0.9634694457054138,1.3959738414336582,2.134055388491685,0.30268794298171997,0.4976077973842621,1.3778576258519875,2.1737686731167565,-0.0421195849776268,0.9568061828613281,1.1072876238654876,1.7558085170782902,-0.013539882376790047,0.020351996645331383,1.1113344679240504,1.8305820549741796,-0.42039012908935547,0.9958217740058899,0.0025960206985473633,1.1190099297137386,1.7237871041312045,110.49922406020538,94.28250585941383,1.0,-0.005533705197267299,0.0028501206055753544,0.012921805671057999,-0.03926998632591117,130.0416044794018,1.1733111466394137,83,2.7666666666666666
