nose_x,nose_y,nose_z,nose_visibility,left_shoulder_x,left_shoulder_y,left_shoulder_z,left_shoulder_visibility,right_shoulder_x,right_shoulder_y,right_shoulder_z,right_shoulder_visibility,left_hip_x,left_hip_y,left_hip_z,left_hip_visibility,right_hip_x,right_hip_y,right_hip_z,right_hip_visibility,left_knee_x,left_knee_y,left_knee_z,left_knee_visibility,right_knee_x,right_knee_y,right_knee_z,right_knee_visibility,left_ankle_x,left_ankle_y,left_ankle_z,left_ankle_visibility,right_ankle_x,right_ankle_y,right_ankle_z,right_ankle_visibility,left_wrist_x,left_wrist_y,left_wrist_z,left_wrist_visibility,right_wrist_x,right_wrist_y,right_wrist_z,right_wrist_visibility,trunk_lateral_inclination,center_mass_x,center_mass_y,left_knee_angle,right_knee_angle,person_height,center_mass_velocity_x,center_mass_velocity_y,center_mass_acceleration_x,center_mass_acceleration_y,body_orientation,torso_leg_ratio,frame,timestamp
1.346137871934214,0.8627860427689652,-0.3085051476955414,0.9998776316642761,1.4200621010947267,1.0404934935010357,-0.11936863511800766,0.999989926815033,1.2571595169012744,1.0029931878854121,-0.16768458485603333,0.9999720454216003,1.3648335521208033,1.368153883271285,0.014464202336966991,0.9999585747718811,1.2733044022335236,1.3658948648425475,-0.014632059261202812,0.9999566078186035,1.3631065739727433,1.639265310804554,0.024877725169062614,0.9598883986473083,1.2741413661779533,1.6398822314999522,-0.01924150250852108,0.8593599200248718,1.3342495395006848,1.862786042768965,0.1717861294746399,0.9656946659088135,1.260011160544385,1.8861127799304565,0.11312214285135269,0.9079111218452454,1.462684370793941,1.3899107940670434,-0.1668667048215866,0.9269195795059204,1.1959716554771624,1.3674765314110584,-0.23603887856006622,0.9158006310462952,0.014536052942276001,1.3190689771771633,1.3670243740569163,173.0086436642307,176.54059810117158,1.0,0.0510311411683674,0.024458144933584586,0.1670844150154189,-0.02881381236016926,98.15369480364956,0.9942168303338279,0,0.0
1.3632285039083802,0.8837897945054477,-0.37046173214912415,0.9998888373374939,1.4369914947765783,1.0476169516567588,-0.15153969824314117,0.9999904036521912,1.255447636213145,1.0125667673575791,-0.19478291273117065,0.9999744892120361,1.3792350327019844,1.376688803196324,0.014529066160321236,0.9999616742134094,1.273441733998074,1.3748455793337382,-0.014698376879096031,0.9999601244926453,1.3720309266787083,1.6491922938575965,-0.005407848861068487,0.9613445997238159,1.270782101513458,1.6565436845138408,-0.018207021057605743,0.8698315620422363,1.3440072404630492,1.8837897945054478,0.15549251437187195,0.9666465520858765,1.2575343747945247,1.9038735703759857,0.12152908742427826,0.9153063893318176,1.4824868205780768,1.3995371054392431,-0.21198976039886475,0.9298622608184814,1.1932318688671693,1.3798568152018782,-0.2841348946094513,0.9237884879112244,0.013503611087799072,1.3263383833500293,1.375767191265031,174.70241092937835,177.47493487876682,1.0,-0.006470643353693687,0.0029496250132589365,-0.4616774962984276,-0.17295295134546174,98.95661842922335,0.951148648642726,1,0.03333333333333333
1.3683462546100698,0.8907541000458085,-0.3688761591911316,0.9998981952667236,1.437224949729089,1.0507935520096676,-0.14479926228523254,0.9999906420707703,1.2585929625214083,1.0127958026479136,-0.20023982226848602,0.999976634979248,1.3783241151290169,1.3777424912543554,0.017649490386247635,0.9999645948410034,1.2733456500742084,1.3757477551284534,-0.017800401896238327,0.9999634623527527,1.3703304636070186,1.651097507377118,0.01618937775492668,0.9624767303466797,1.2731409128971418,1.6598529824517405,-0.02205880545079708,0.8800819516181946,1.3402468704625945,1.8907541000458086,0.19164864718914032,0.9682611227035522,1.2580286000420156,1.9085116636718533,0.11997666209936142,0.9225298166275024,1.4820096784565866,1.4005315580878461,-0.19829128682613373,0.9310930371284485,1.1942484411721586,1.3803810851643183,-0.28050851821899414,0.9310076236724854,0.014629751443862915,1.3258348826016126,1.3767451231914045,174.52021208066324,176.56339757788058,1.0,-0.01034351109840053,0.0006761503244047454,-0.029411402901826,-0.017298413061791265,99.12389692462635,0.9317673619799051,2,0.06666666666666667
1.3581876506685169,0.8875473705707703,-0.39899998903274536,0.9999075531959534,1.4286407172015925,1.0455725825418691,-0.1760513186454773,0.9999911189079285,1.2512953457684781,1.0141131233072722,-0.2106042206287384,0.9999785423278809,1.3736126247669942,1.3711967670647105,0.014805793762207031,0.999967098236084,1.2680787776068172,1.3690043145708652,-0.014962403103709221,0.9999662637710571,1.3645503850773948,1.6432625572793622,0.015285046771168709,0.9635931253433228,1.2661586483584302,1.6519383829946421,-0.011354239657521248,0.8885900378227234,1.3318213679686388,1.8875473705707702,0.18629305064678192,0.9695002436637878,1.252311454285478,1.8995687278005517,0.14445126056671143,0.9285841584205627,1.4757242122790128,1.3955590280086192,-0.23195895552635193,0.9356933236122131,1.1903853023408166,1.3747572297969854,-0.2931396961212158,0.9375422596931458,0.01217043399810791,1.3208457011869057,1.3701005408177878,174.27677588236077,177.18825269130596,1.0,0.010153666404461152,-0.0006098597794164313,0.15579982619799215,-0.009774023922267684,98.40179855456483,0.9232146319485434,3,0.1
1.3592644274280388,0.8902175577457191,-0.4001278877258301,0.9999134540557861,1.4286385520226905,1.0461503907644476,-0.17760755121707916,0.9999908208847046,1.252007177340797,1.0163521825398356,-0.21511664986610413,0.9999801516532898,1.3734208007490687,1.3709038585762854,0.01357561070472002,0.9999693632125854,1.2674614983562464,1.366320254291038,-0.013740907423198223,0.999968945980072,1.3651470588462067,1.6445316493681508,0.004242363385856152,0.964040219783783,1.265997317132709,1.6524434709622562,-0.014179317280650139,0.8950906991958618,1.3373413398885063,1.8902175577457192,0.17059096693992615,0.9704680442810059,1.2546254325271522,1.9008514148277533,0.13405849039554596,0.9340833425521851,1.4721359142605084,1.4056010213338683,-0.21024522185325623,0.9295814037322998,1.195871826238775,1.3767500974964275,-0.30346617102622986,0.9433063864707947,0.011517822742462158,1.3204411495526576,1.3686120564336617,175.27491205736104,177.67208024411312,1.0,-0.011762579028297422,-0.02034262238221365,-0.16700289268263382,-0.15030055022639588,97.17273638339427,0.9099037157176708,4,0.13333333333333333
1.3580889795114115,0.891906796506601,-0.37375274300575256,0.9999192357063293,1.4281918047343007,1.0434431339770707,-0.15676605701446533,0.9999905228614807,1.2527690998628807,1.0208970997098143,-0.1932487040758133,0.9999813437461853,1.3737636173271368,1.3716557153022253,0.012660590000450611,0.9999712705612183,1.2685781335986483,1.3670180531061389,-0.012823762372136116,0.9999712705612183,1.3662538016802268,1.6456352996207366,0.007542409934103489,0.9646496176719666,1.2657295110063855,1.6542891007454807,-0.011430743150413036,0.9017717242240906,1.3423604907472422,1.891906796506601,0.17784211039543152,0.9713066816329956,1.255434567510149,1.9015374754382197,0.1399565041065216,0.9390538930892944,1.471146654108646,1.4038099777475228,-0.19868195056915283,0.9257948398590088,1.196020229749131,1.379223393716088,-0.27933043241500854,0.9482299089431763,0.00870928168296814,1.3211708754628926,1.3693368842041822,176.028587137647,178.18382686052476,1.0,-0.0006709473668438483,-0.0009425933251061458,0.08703595266649143,0.152230768197604,96.8912375837798,0.9071670101498983,5,0.16666666666666666
1.3541791634583433,0.8907406402754976,-0.3699553608894348,0.9999254941940308,1.4238534649583283,1.043314907436919,-0.14952681958675385,0.999990701675415,1.252465733874284,1.020174291327879,-0.2008858472108841,0.999982476234436,1.3738367580450568,1.3706604409268823,0.015869833528995514,0.9999731183052063,1.2696466518667664,1.3654695844787228,-0.016013985499739647,0.9999732971191406,1.3665137665581848,1.644088958456503,0.010625212453305721,0.9648453593254089,1.2621340893160213,1.6523582640345778,-0.022433260455727577,0.9074041247367859,1.33901702317329,1.8907406402754976,0.19247065484523773,0.9719527959823608,1.253164757906963,1.8989638631315413,0.13228945434093475,0.9433757662773132,1.4650770028414082,1.400685260865196,-0.1790953278541565,0.927665650844574,1.1992121395760882,1.3810746737374104,-0.30165529251098633,0.9522460103034973,0.00894927978515625,1.3217417049559117,1.3680650127028025,175.17306278620018,179.4170278527931,1.0,0.015532058428197028,0.002276065161318217,0.12017699727139623,0.02386573073160795,95.83513421066145,0.9071153046733191,6,0.2
1.3529347758167836,0.8892139712855626,-0.3636229634284973,0.9999316930770874,1.4212852393336635,1.0407229059554923,-0.14211972057819366,0.9999911189079285,1.2482640240905039,1.0186434839995333,-0.1975179761648178,0.9999831318855286,1.3725717191448155,1.368364715156511,0.018048027530312538,0.9999748468399048,1.2680103941547962,1.3630800655883233,-0.018195854499936104,0.9999749064445496,1.364733317347693,1.641814895518244,0.008535361848771572,0.9657551050186157,1.262058333838656,1.6497062407714478,-0.025559771806001663,0.9116734862327576,1.3367166869462677,1.8892139712855625,0.17528173327445984,0.9731294512748718,1.2519469032541448,1.894177882009352,0.13052737712860107,0.9471299648284912,1.46053357769406,1.3977384833362012,-0.1647881418466568,0.931688129901886,1.1994879413583506,1.383448059545382,-0.30076032876968384,0.9544346928596497,0.008550941944122314,1.3202910566498058,1.3657223903724172,175.18100664708817,178.82120632238212,1.0,0.0031661840957837245,-0.0031567661843629143,-0.094420303264917,-0.04153175136911214,95.5634073113619,0.9069700757699424,7,0.23333333333333334
1.3525934435817588,0.8880929486538853,-0.3622513711452484,0.9999352097511292,1.4188627329305235,1.039464770637293,-0.14211727678775787,0.999991238117218,1.2474049727720482,1.0183134075791769,-0.1922324001789093,0.9999827742576599,1.3721717693387032,1.3660879541720468,0.017203520983457565,0.9999765157699585,1.267124596669915,1.36113575414923,-0.017347287386655807,0.999976396560669,1.3648657790662884,1.640204963792928,-0.0035888231359422207,0.9660366773605347,1.2567190417925769,1.6478576649552013,-0.031578466296195984,0.9143829345703125,1.3371848736265712,1.8880929486538853,0.1632850468158722,0.9737074375152588,1.2512154100152246,1.888978868009701,0.12810705602169037,0.9500203132629395,1.4516100761718445,1.3958414373480352,-0.15639160573482513,0.9298273921012878,1.2007466046164363,1.380738372731273,-0.2849283516407013,0.9487001299858093,0.008199691772460938,1.319648183004309,1.3636118541606383,175.15508143165633,179.2291237512236,1.0,0.00542454803696737,-0.006048012979662769,0.01824060161391696,-0.023345133412818672,95.43627162656593,0.906983243327984,8,0.26666666666666666
1.3538021994533747,0.887032329624713,-0.36163434386253357,0.9999406933784485,1.4161197121854732,1.037773448113563,-0.13955171406269073,0.9999917149543762,1.2440363262634404,1.0177066758930866,-0.19697429239749908,0.9999834299087524,1.3695332558643858,1.3636870568961972,0.020177844911813736,0.9999780654907227,1.2650535744094056,1.3580078614568223,-0.0203310064971447,0.999977707862854,1.3609798175390424,1.6385731753155264,-0.0011498809326440096,0.9667667150497437,1.2564981388017489,1.6464195757019544,-0.03869836777448654,0.9183138608932495,1.3344746521444781,1.887032329624713,0.16429898142814636,0.9747809767723083,1.249389196500239,1.8873651075855322,0.10818944126367569,0.9533005952835083,1.4439303320274435,1.3939457303058937,-0.13942305743694305,0.9349284172058105,1.1946576692683317,1.380558254233912,-0.2880685031414032,0.951336145401001,0.007785052061080933,1.3172934151368956,1.3608474591765098,175.6930782194215,179.99086284721625,1.0,-0.010372058367190141,-0.01322838562297408,-0.11972901074345525,-0.05447127213218849,95.02345649387296,0.9018057425177585,9,0.3
1.3538677225033393,0.8883761190559595,-0.37750735878944397,0.9999447464942932,1.4184305890826825,1.0388454544084553,-0.1443658322095871,0.9999918937683105,1.2454139042347363,1.0182963285092201,-0.20680181682109833,0.9999842643737793,1.3700892476825404,1.364891821130655,0.021300049498677254,0.9999789595603943,1.2647587446213502,1.3587995803799646,-0.021437998861074448,0.9999787211418152,1.3596241196021668,1.6400069752143078,0.02775198593735695,0.9660136699676514,1.2550071305266195,1.6479172926572951,-0.03982751816511154,0.9223893880844116,1.3346808085958752,1.8886212357139585,0.19669850170612335,0.9751506447792053,1.2505981061739566,1.8883761190559596,0.10911335796117783,0.9560831189155579,1.4404838608979882,1.3981730966476222,-0.14265018701553345,0.9387146234512329,1.2001196058573347,1.3810776706105743,-0.29799509048461914,0.9552932977676392,0.007965058088302612,1.3174239961519452,1.36184570075531,176.4491516527716,179.1186612314482,1.0,-0.008431491924140097,-0.001764730867843276,0.01568637766215964,0.09231950376591173,95.12327473355427,0.9006742658958459,10,0.3333333333333333
1.353133957967309,0.8872969245803474,-0.3916643261909485,0.9999487400054932,1.4172551474855253,1.037576728815689,-0.15409886837005615,0.9999921321868896,1.2435543340318198,1.0168827971084438,-0.21925857663154602,0.9999850988388062,1.3686491458259924,1.3634200200114712,0.022173698991537094,0.9999797344207764,1.2636200272001175,1.357366043107916,-0.022307269275188446,0.999979555606842,1.3579339154498449,1.6386997090441466,0.03293166309595108,0.964466392993927,1.2530656197457983,1.6469414613780757,-0.03876744955778122,0.9249587655067444,1.3321441858136058,1.8872969245803475,0.2084398716688156,0.9744696617126465,1.2480217398183115,1.8882273013114979,0.11109715700149536,0.958060622215271,1.4365869228692039,1.3963464780087327,-0.16608120501041412,0.9420953989028931,1.199260752172031,1.3790548650393086,-0.3106977045536041,0.9589298367500305,0.008030116558074951,1.316134586513055,1.3603930315596935,176.30637006941114,179.1101610569547,1.0,0.0012975572462992264,0.00045662670306923604,0.07178699760358034,0.016391879898944518,95.18531151646874,0.8987262589624789,11,0.36666666666666664
1.3508852352544687,0.8873179713714286,-0.3797038793563843,0.9999517202377319,1.4157491826283823,1.036480081055763,-0.15367045998573303,0.9999919533729553,1.2435646180913222,1.0165159404346955,-0.20442664623260498,0.9999858140945435,1.366340096574467,1.3621456572797332,0.020640574395656586,0.9999799132347107,1.26295340644149,1.356232527645761,-0.020758550614118576,0.999980092048645,1.3569235949372684,1.6372045583737773,0.020695194602012634,0.9646043181419373,1.2513987091483005,1.6456054074826183,-0.033854566514492035,0.9289218783378601,1.3323950799323758,1.8873179713714285,0.1809713989496231,0.9751173853874207,1.246670047059488,1.88889715911951,0.10990194231271744,0.9605153799057007,1.4326670562712631,1.395180300576672,-0.18067732453346252,0.9445298314094543,1.2013597128794193,1.3777093275514702,-0.29831916093826294,0.9625584483146667,0.0077537596225738525,1.3146467515079785,1.3591890924627472,176.35966415047506,178.82685755788197,1.0,-0.0024341735075441512,-3.8149619884317694e-05,-0.027682431093063727,-0.0036684498286990034,95.3535415200653,0.8937590885899559,12,0.4
1.3533658431277489,0.8908643910425622,-0.3394605219364166,0.9999542832374573,1.4174236537623095,1.0383822537084775,-0.1155412569642067,0.999991774559021,1.246626760943994,1.0190345976449735,-0.17006006836891174,0.9999861717224121,1.3690275284599087,1.3647634144801972,0.01996725983917713,0.9999800324440002,1.2659644225098536,1.359095150462165,-0.020093221217393875,0.9999803900718689,1.3610928198990755,1.6401264319328197,0.009488595649600029,0.9635998606681824,1.2545725403329875,1.6486777241175763,-0.040326934307813644,0.9311179518699646,1.3354663128922024,1.8908643910425622,0.1545850783586502,0.974446713924408,1.2487484390324497,1.892695536772563,0.09207838773727417,0.9617723226547241,1.4340255906805768,1.3937929710543204,-0.13900309801101685,0.94693922996521,1.2021478636722844,1.3769905291371511,-0.24337300658226013,0.9655370712280273,0.007499992847442627,1.3174959754848812,1.361929282471181,175.81493238915684,179.11445316320322,1.0,0.002620091816944101,0.0011091791822386947,0.03936696702427664,0.008928733411481373,95.28643584645037,0.8905997569028523,13,0.43333333333333335
1.3581723621830624,0.897326598544517,-0.3433462083339691,0.9999571442604065,1.4227022471975141,1.0421165582507659,-0.12271778285503387,0.999991774559021,1.2506237370824052,1.0228306562792158,-0.17295238375663757,0.9999865293502808,1.3733142931886468,1.3700583821458903,0.01862126775085926,0.9999801516532898,1.269174990942298,1.3650073677025694,-0.01875786855816841,0.9999805688858032,1.3656668532868366,1.6462013406556348,-0.005718490108847618,0.963689386844635,1.2572212166683323,1.6556843204717182,-0.03653348609805107,0.9333076477050781,1.3402427811369837,1.897326598544517,0.14390483498573303,0.9742312431335449,1.2531605109662822,1.899604933717686,0.09861662983894348,0.9631123542785645,1.438405350584188,1.3954080634575456,-0.147878497838974,0.9502570033073425,1.2081325237284781,1.380805697535649,-0.2538089156150818,0.96834397315979,0.007448136806488037,1.3212446420654724,1.3675328749242297,175.80536883504175,178.59885230395602,1.0,-0.009440543241215422,0.003957850996884747,-0.09578699226096091,0.02257308893769488,95.78755787701367,0.8873978214469156,14,0.4666666666666667
1.3602077081435875,0.9003350039075929,-0.36195820569992065,0.99996018409729,1.4255372196198661,1.0436142107586095,-0.1279306858778,0.9999919533729553,1.253547622035067,1.024621430431819,-0.17743410170078278,0.9999871253967285,1.3752347590152758,1.3709982154719962,0.018484756350517273,0.9999801516532898,1.271213312827844,1.366186027709314,-0.018621724098920822,0.9999806880950928,1.3676971131125428,1.6473901616171784,-2.015002610278316e-05,0.964611828327179,1.2585937474028945,1.658610971890147,-0.03571338951587677,0.937070906162262,1.3426583676798731,1.900335003907593,0.15018072724342346,0.9748750925064087,1.254290486029727,1.9028775485070706,0.10199397802352905,0.9651125073432922,1.4404280517009838,1.392423220185924,-0.16590505838394165,0.9540208578109741,1.2113910760302629,1.3832668744892278,-0.25657886266708374,0.9710667133331299,0.0073216259479522705,1.32322403592156,1.3685921215906551,175.90892709030965,178.53821968781747,1.0,-0.0032457559447352743,-0.010965977971666261,0.04775299012175217,-0.11477898381778452,96.08646726625786,0.8802909411947863,15,0.5
1.362023996311548,0.9025084603174677,-0.36124521493911743,0.9999625086784363,1.427606614867888,1.0442261924397571,-0.12663334608078003,0.9999918341636658,1.2560856905370665,1.0261348735130076,-0.1726730316877365,0.9999876022338867,1.3773588879756553,1.371924863738981,0.016712015494704247,0.9999805092811584,1.2736433175688244,1.3658032039788697,-0.01685417629778385,0.9999812245368958,1.3679853626557228,1.6485598604533531,-0.0014650827506557107,0.96533203125,1.2613226390522152,1.6571063646707735,-0.03548402711749077,0.9402971863746643,1.3461729133862659,1.9025084603174678,0.14354170858860016,0.9753502607345581,1.2569292055997692,1.9054872850151674,0.09207783639431,0.9670958518981934,1.4410532965541252,1.386325562277554,-0.16316598653793335,0.9561808705329895,1.212886227760063,1.3814681297196538,-0.25133392214775085,0.9735310673713684,0.0069626569747924805,1.3255011027722399,1.3688640338589253,177.03140626133666,178.59147485212011,1.0,0.0007336140562204731,-0.014653947934406296,0.029480828547317182,-0.027151850292196092,95.33967841987531,0.8732646900489979,16,0.5333333333333333
1.3637877844803683,0.9053796917325453,-0.35815176367759705,0.9999653100967407,1.4297699725239035,1.0457268174070864,-0.1258784532546997,0.9999920725822449,1.2576335654355746,1.0268077507024147,-0.17962148785591125,0.9999880194664001,1.3793005132620157,1.3732499549174844,0.017815083265304565,0.999980628490448,1.2756892971199545,1.366401135497682,-0.01796262338757515,0.9999812245368958,1.3701561891022471,1.6505071540619831,-0.00046659944928251207,0.9659735560417175,1.2686210567341645,1.654145710568311,-0.038445521146059036,0.9422155618667603,1.348434211521346,1.9053796917325454,0.13926373422145844,0.975891649723053,1.2636215317972315,1.9069507737710893,0.09134579449892044,0.9684557914733887,1.443086475051433,1.3882410062805277,-0.1473342478275299,0.9598047733306885,1.2135760226944414,1.3780069456159436,-0.2732718586921692,0.9758377075195312,0.007269501686096191,1.327494905190985,1.3698255452075832,177.0176432997252,179.72579843685725,1.0,-0.0011604031624273794,-0.010050154828872388,-0.015285334269097069,0.03732151778424575,94.97823789616571,0.8678953755871904,17,0.5666666666666667
1.3643058007370932,0.9020290191706154,-0.35738953948020935,0.9999675154685974,1.4275979435721144,1.043805088420205,-0.12460701167583466,0.9999922513961792,1.2550831552541113,1.023565688005203,-0.18228617310523987,0.9999883770942688,1.3766827712223977,1.3705155006348912,0.01902262307703495,0.9999812245368958,1.2735319303787667,1.3637119452445106,-0.01916913501918316,0.999981701374054,1.3664241692217163,1.6470979280869646,0.0043685161508619785,0.9667014479637146,1.2664389575397195,1.6507964012512002,-0.037795595824718475,0.9442187547683716,1.3457189755024932,1.9020290191706153,0.14300177991390228,0.9765479564666748,1.2632522685744372,1.9035648363219673,0.0942191630601883,0.9697929620742798,1.4404377651831892,1.3849953544550775,-0.1434270143508911,0.9627053737640381,1.2118069621233238,1.3747581219610394,-0.2715913951396942,0.9777790307998657,0.0077904462814331055,1.3251073508005822,1.3671137229397008,177.48085812197988,179.30698374897042,1.0,-0.0005081368450181368,-0.002399388832952653,0.004913577830398264,0.057680904458348184,95.08422123013801,0.8706375918477147,18,0.6
1.360817067693909,0.8957903988432409,-0.3433438837528229,0.999969482421875,1.423050458308394,1.0393928465510966,-0.11571355909109116,0.9999923706054688,1.2510948439707432,1.0178984430035043,-0.18336449563503265,0.9999887943267822,1.3724868608688632,1.366524444117839,0.021736254915595055,0.9999821186065674,1.269700051270516,1.360222694050258,-0.02188115380704403,0.9999825358390808,1.362197867140354,1.6428427301233348,0.01813691109418869,0.9662038683891296,1.2626630532866006,1.6459470587536031,-0.0379810594022274,0.9444718360900879,1.341519222120827,1.8957903988432407,0.17185452580451965,0.9766367673873901,1.2648314364065745,1.897788266199731,0.09860605001449585,0.9704577922821045,1.4359932917601133,1.3804239875616895,-0.1405729055404663,0.9639688730239868,1.205830820882492,1.3713791645329683,-0.2881733775138855,0.9793217182159424,0.008298635482788086,1.3210934560696896,1.3633735690840485,177.45890544990868,178.09585762100426,1.0,-2.150528471362674e-05,0.003038431596388304,0.003702618056153239,0.04145032425243776,95.27812630762945,0.8792404066322788,19,0.6333333333333333
1.361176337637821,0.8953301820815861,-0.36183005571365356,0.9999717473983765,1.4227475543526087,1.0386252193386694,-0.1265730857849121,0.9999926686286926,1.2498901569851975,1.0163111087645,-0.2015060931444168,0.9999891519546509,1.3729907528082914,1.3665571787311812,0.023286206647753716,0.9999824166297913,1.2699066728049073,1.360812767293675,-0.023429851979017258,0.9999825358390808,1.3639143079365168,1.6427613376054007,0.022583000361919403,0.9668594598770142,1.2672243573295936,1.6460394916128722,-0.03255826234817505,0.9452122449874878,1.3413840621259123,1.8953301820815862,0.17197944223880768,0.9773739576339722,1.2673629154543795,1.8977959763646857,0.11331535875797272,0.9713394641876221,1.4360497518613102,1.3809480803022682,-0.14404739439487457,0.9666818976402283,1.2064306099367248,1.3742008013677038,-0.2981528043746948,0.9808936715126038,0.00861513614654541,1.3214487128065995,1.363684973012428,176.7845984065695,179.4296640360708,1.0,0.002764187724888635,0.0024276133356034312,0.021441089645899025,-0.004701314266891889,95.43809080784476,0.8816149146260125,20,0.6666666666666666
1.360541712446435,0.8950937233439042,-0.3807614743709564,0.9999735355377197,1.4223321099584956,1.0378245006452063,-0.14970698952674866,0.9999929666519165,1.247954775904159,1.014580327277529,-0.21577756106853485,0.9999895691871643,1.3729678278167763,1.366213631853566,0.0233103446662426,0.9999826550483704,1.270026071412503,1.3605804533784909,-0.023446762934327126,0.9999826550483704,1.364086121863692,1.6424732118416676,0.03258251026272774,0.9671540260314941,1.2748024733384056,1.6457066133780773,-0.029149021953344345,0.9462199807167053,1.3409810917240956,1.8950937233439042,0.18662555515766144,0.9779221415519714,1.27108496449764,1.8973434756373173,0.11706508696079254,0.9722357392311096,1.4357208834692057,1.3824124348822426,-0.15872779488563538,0.9687044620513916,1.2060094594243145,1.3758070287935418,-0.29654359817504883,0.9822242259979248,0.00897631049156189,1.3214969496146396,1.3633970426160285,176.61560290101573,178.19389058048378,1.0,0.002636994695910936,0.00022058293479718742,-0.000937080754394582,-0.01633861584644025,95.41662173608249,0.8815861530479566,21,0.7
1.3582473774001007,0.8929778895603032,-0.3838965594768524,0.9999750852584839,1.4203433922195048,1.0352652805838993,-0.1554083377122879,0.9999932050704956,1.2454476104173506,1.0127748779048173,-0.21286344528198242,0.9999898672103882,1.3711169570906132,1.362966284931397,0.02264341711997986,0.9999828338623047,1.2681666381559582,1.3576545087759042,-0.022785037755966187,0.9999826550483704,1.3621576595944698,1.6381946402950318,0.0231992956250906,0.9669809937477112,1.273972651295542,1.6399077485941138,-0.02929471805691719,0.9456960558891296,1.3393863879089938,1.8929778895603033,0.16757042706012726,0.9783320426940918,1.2734418897822244,1.8938333649262806,0.11454012244939804,0.972746729850769,1.4341234652377408,1.3805859027646141,-0.16775929927825928,0.9708079099655151,1.2026497236002398,1.3778410150428662,-0.2973077893257141,0.9835299253463745,0.008698433637619019,1.3196417976232857,1.3603103968536507,176.7572025488303,178.70181815517464,1.0,0.0011982415501502887,-0.008020311208264826,-0.011325244801990044,-0.06504719066115836,95.58936746524856,0.8793509698342756,22,0.7333333333333333
1.3541165882614359,0.890779195420019,-0.3920728266239166,0.9999761581420898,1.418695323925424,1.0331824955283966,-0.16133013367652893,0.9999933838844299,1.2423921937375924,1.0115152976595883,-0.21713364124298096,0.9999901056289673,1.3695277360251954,1.3614395580603427,0.022337542846798897,0.9999828338623047,1.2665949999164905,1.3562419612542365,-0.022478003054857254,0.9999826550483704,1.3620298966876616,1.6361996262009677,0.030300045385956764,0.9660645723342896,1.274585044667545,1.6372545390074906,-0.029049169272184372,0.9457629919052124,1.337979793486156,1.890779195420019,0.1934729367494583,0.978121817111969,1.2741596468066336,1.8910539684186536,0.11853839457035065,0.9730022549629211,1.4324407469730907,1.379115081627977,-0.18692657351493835,0.972393810749054,1.1998150015743647,1.3787105418854493,-0.3016802966594696,0.9846024513244629,0.008389711380004883,1.318061367970843,1.3588407596572896,176.16642876882335,178.27531060206803,1.0,-0.0004625640871249665,0.0007396329311896671,-0.012656034818042384,0.06673951136056624,95.62795025169174,0.8820673990717705,23,0.7666666666666667
1.354855000506325,0.891288402235222,-0.3868539035320282,0.9999776482582092,1.4193571638417077,1.0337446436416575,-0.15879327058792114,0.9999935626983643,1.2409196707001953,1.0119734462469778,-0.2105638086795807,0.9999904036521912,1.3702115436669546,1.3643081427427866,0.022636856883764267,0.9999831914901733,1.266778122301125,1.3592433543422842,-0.022776711732149124,0.999983012676239,1.362806186942826,1.6370708319552185,0.04364701360464096,0.965533435344696,1.274967493176166,1.6378880363722192,-0.03292189911007881,0.9467347860336304,1.3384268198912115,1.8912884022352219,0.1967668980360031,0.9782184958457947,1.2764747624990038,1.8927757265953755,0.09841378033161163,0.973648190498352,1.4337113763679914,1.3786723662542013,-0.17585787177085876,0.9738196134567261,1.198825249398667,1.3810482040485195,-0.28246212005615234,0.9856346249580383,0.00842556357383728,1.3184948329840398,1.3617757485425352,176.07727555726316,178.65537348914523,1.0,-0.0020023591419457984,0.017279739738328487,-0.011969384747469431,0.1285894795536303,95.65300746585325,0.889731277968089,24,0.8
1.3539549565168483,0.8967852660706566,-0.392739474773407,0.9999793171882629,1.4241283050424758,1.0371090943309813,-0.16137740015983582,0.9999938011169434,1.2452635334568867,1.0177984091356493,-0.20880703628063202,0.9999907612800598,1.3750738213842355,1.3699896874114414,0.020583292469382286,0.9999832510948181,1.271071891134666,1.365664395548497,-0.020715314894914627,0.9999831914901733,1.3672471322072617,1.6421551857610255,0.03585049510002136,0.964340329170227,1.27988943248623,1.643058039446192,-0.030531713739037514,0.9473890066146851,1.3427540390456791,1.8967852660706566,0.19280776381492615,0.9775146245956421,1.2835415629458835,1.8993147397701562,0.10090748220682144,0.974032461643219,1.4386336082841886,1.3834819650224932,-0.18293391168117523,0.9754825830459595,1.1999803142975372,1.38608746199995,-0.28251489996910095,0.9866247177124023,0.007448971271514893,1.3230728562594507,1.3678270414799694,176.1527788638306,178.99586120701537,1.0,0.0020176488652250257,0.012121720187097125,0.030550410008273774,-0.039563854759023374,96.00150098002648,0.890131271147598,25,0.8333333333333334
1.3485381129054939,0.8968288307221124,-0.37839654088020325,0.999980628490448,1.424144277230844,1.037117298649603,-0.15738527476787567,0.9999939203262329,1.244722341120896,1.0190401503222626,-0.19553446769714355,0.9999909996986389,1.3756325881605767,1.3700704481080688,0.019830670207738876,0.9999831318855286,1.2713439687982409,1.3663460780692984,-0.019963983446359634,0.9999832510948181,1.3671287489782011,1.6410780924772423,0.03276994079351425,0.9627866744995117,1.2799953024292932,1.6427291958655197,-0.028765913099050522,0.9479826092720032,1.342656105373928,1.8968288307221124,0.1874035745859146,0.9766374826431274,1.2829821229620038,1.9012624721274896,0.09486263990402222,0.9744932055473328,1.4386809406885341,1.383670224355359,-0.18087491393089294,0.9768244624137878,1.1994967109278785,1.3860352348708092,-0.27437064051628113,0.9874241948127747,0.006972849369049072,1.3234882784794086,1.3682082630886836,176.33131301127386,178.86902064376804,1.0,0.002712407971659024,0.00244041000671061,0.005236730950695004,-0.07298540409851917,96.24444859057533,0.8890612229475271,26,0.8666666666666667
1.3466550837480795,0.8999062663388195,-0.37165650725364685,0.9999812841415405,1.4275065816085775,1.0395734487226223,-0.1536475121974945,0.9999939203262329,1.2478112613136947,1.0247316532215438,-0.18499857187271118,0.9999910593032837,1.3790217359399701,1.3751185804775468,0.018629446625709534,0.9999827742576599,1.2743666278736476,1.3718009215684772,-0.018769118934869766,0.9999831318855286,1.374062673069025,1.6444728621960287,0.02220073528587818,0.9606454372406006,1.2834557648447578,1.645841344219542,-0.029964318498969078,0.9485873579978943,1.3470412326654104,1.8999062663388195,0.18118742108345032,0.9751411080360413,1.2866204666515955,1.906353388836238,0.09204821288585663,0.9748086333274841,1.4421594847692287,1.387091365420558,-0.1923186480998993,0.9778913259506226,1.2011834310361345,1.3898256962820272,-0.26158028841018677,0.9880746006965637,0.005711287260055542,1.326694181906809,1.373459751023012,175.01608073146545,178.79635446839953,1.0,0.0004254228643036858,0.015491529903109464,-0.017819144661689594,0.10135688402951097,96.4063702750043,0.8946880819258801,27,0.9
1.3411827480147422,0.9008755428313637,-0.35981637239456177,0.9999820590019226,1.4282400241576083,1.04009600433188,-0.14700153470039368,0.9999940991401672,1.2476777088643995,1.0281548960186826,-0.1832883507013321,0.9999911189079285,1.3797538691808473,1.3760504154471696,0.018494270741939545,0.9999822974205017,1.2750646229197713,1.37399869247022,-0.018640561029314995,0.9999825954437256,1.3751394684225824,1.6427675835208475,0.007683760020881891,0.9557697176933289,1.2842373232415238,1.6442993631042124,-0.04619669169187546,0.9455046653747559,1.3460396857062291,1.9008755428313637,0.12608149647712708,0.9727799892425537,1.2872247118634113,1.9105331620438843,0.04775295779109001,0.9735987186431885,1.4434688639531303,1.3877752552042575,-0.18835344910621643,0.9792038202285767,1.2012577670903108,1.3911902992045642,-0.24920204281806946,0.9884946942329407,0.004592627286911011,1.3274092460503093,1.3750245539586947,174.55864268109627,178.69928807348722,1.0,6.820316109867139e-05,0.006169233832488226,-0.0026438358681803633,-0.06901296504582038,97.08967597456663,0.8936630253937597,28,0.9333333333333333
1.341889800513766,0.9005050197126495,-0.3653908371925354,0.9999828934669495,1.4270909310501558,1.0405263038427717,-0.14498171210289001,0.9999942779541016,1.2446518335735035,1.0277400218729027,-0.1935006082057953,0.9999913573265076,1.3796925661801727,1.3761411827155883,0.0207047276198864,0.9999825358390808,1.274854474389127,1.373920890187012,-0.020855631679296494,0.9999828338623047,1.37492180363674,1.6424655039285465,0.026236753910779953,0.9538821578025818,1.2843664059049555,1.6441002775830482,-0.0466269887983799,0.9453566074371338,1.3441963947128528,1.9005050197126496,0.1678766906261444,0.9718925356864929,1.2872919860532162,1.9123825776294758,0.06694336235523224,0.9738200306892395,1.4438480195044874,1.3875181289673881,-0.16114118695259094,0.9802196621894836,1.200157822049519,1.391390393508503,-0.259272038936615,0.9889793992042542,0.004918813705444336,1.32727352028465,1.3750310364513,174.23587003661493,178.6084559341037,1.0,0.001243167999726925,0.0023731388212768294,0.008670957273777723,-0.02800346069094803,96.82538415408942,0.8931608100998445,29,0.9666666666666667
1.3346106133764806,0.8973455392322364,-0.3363325595855713,0.9999837875366211,1.4223089506688256,1.0346145313028017,-0.12013562768697739,0.9999945759773254,1.2392280402354805,1.0282495624789083,-0.17774787545204163,0.9999915361404419,1.376247428715958,1.3726990393507401,0.021386723965406418,0.9999828934669495,1.2716316092113462,1.3707006650969717,-0.02155337668955326,0.9999829530715942,1.3713538073704772,1.638441085709159,-0.016237959265708923,0.9538408517837524,1.2810702569193708,1.642013430836893,-0.055049002170562744,0.9441794753074646,1.3407449886669924,1.8973455392322363,0.09954545646905899,0.9711769223213196,1.2838409340459993,1.9119931743077692,0.049671072512865067,0.9732699394226074,1.4409947545380521,1.3840780265459214,-0.12468564510345459,0.9812853932380676,1.1955552941887415,1.3911049471817938,-0.23860296607017517,0.9886332750320435,0.002454698085784912,1.323939518963652,1.371699852223856,174.31251741113888,178.59553108396,1.0,-0.00015565820704274081,0.0007917874115468897,-0.010833913391737613,-0.012228815771626622,96.66402676342804,0.8900298620129652,30,1.0
1.3303338802269704,0.8973515340648587,-0.3525971472263336,0.9999841451644897,1.421226876317728,1.0346666580115744,-0.1389944851398468,0.9999948143959045,1.237765119190279,1.0334111287020709,-0.18192879855632782,0.9999913573265076,1.3761327641682892,1.3722803208164471,0.020074982196092606,0.9999834895133972,1.2714373689323457,1.3708088005904628,-0.020234357565641403,0.9999833703041077,1.3686253990325925,1.6388151209715278,-0.006602231413125992,0.9549281597137451,1.279978940306061,1.643725649342495,-0.04941904544830322,0.9464040398597717,1.339521260577083,1.8973515340648586,0.12381535768508911,0.9719904065132141,1.2836975388395329,1.9130180236885237,0.06089290231466293,0.9745691418647766,1.4416477935426675,1.3837830928801897,-0.14265140891075134,0.9823885560035706,1.1959012883645654,1.3917246036218933,-0.24397678673267365,0.9875046610832214,0.00048419833183288574,1.3237850665503175,1.3715445607034549,175.19049847616117,178.9985140666344,1.0,-0.0013295601927817136,-0.001340687477815173,-0.009136817172381465,-0.016597769506565004,96.80255494143255,0.8884498105888292,31,1.0333333333333334
1.327986276342066,0.8972298788424519,-0.39774999022483826,0.9999845623970032,1.4203676898164024,1.036640333936986,-0.1748216450214386,0.9999950528144836,1.2354752107079394,1.0352682463007796,-0.20607927441596985,0.9999914169311523,1.3759228058149071,1.3708680714326225,0.018041417002677917,0.9999838471412659,1.2711116289642617,1.3698439893552332,-0.018190497532486916,0.9999836683273315,1.367948193531269,1.6386034901619664,-0.00024227755784522742,0.9559449553489685,1.2794843923679229,1.6434938027349342,-0.047038376331329346,0.9486912488937378,1.3393020201475438,1.897229878842452,0.1336289644241333,0.9730291366577148,1.283360899226584,1.9164641398969984,0.0579448863863945,0.9759548306465149,1.4421747504041391,1.3836467675584025,-0.1826154738664627,0.9836542010307312,1.194690952674489,1.392617028072706,-0.25000426173210144,0.9875943660736084,0.0005292296409606934,1.3235172173895844,1.3703560303939277,175.38559901776065,179.06110293390662,1.0,-0.0005133250027982289,-0.007504716918789777,0.0062458693926241175,-0.047180650547313976,97.01482620460477,0.8816978961110762,32,1.0666666666666667
1.3212827301548193,0.895307654463237,-0.3219936490058899,0.9999837875366211,1.4164601578929574,1.0371785259279465,-0.1104104295372963,0.999995231628418,1.2311976675275895,1.034490708687478,-0.1578049659729004,0.9999911189079285,1.3737953140299537,1.3697336789374017,0.019014103338122368,0.9999843239784241,1.268203067243826,1.3694831360558992,-0.019176417961716652,0.9999839067459106,1.367158320408686,1.640849172104744,0.002914879471063614,0.9552872776985168,1.2773590742602616,1.642722146091971,-0.06481251120567322,0.9498167634010315,1.3380538205628245,1.895307654463237,0.14157596230506897,0.9733617305755615,1.2817942081216338,1.9184136359545552,0.03540118783712387,0.9766479730606079,1.4407500046696995,1.3823901852643428,-0.12393520027399063,0.9846398830413818,1.1934539921916452,1.393123084168978,-0.21337106823921204,0.9866137504577637,0.0010378062725067139,1.3209991906368899,1.3696084074966506,174.87730716560404,179.00244058323045,1.0,-0.00866999538863548,0.0052347364571356525,-0.06234237298279327,0.09730274738924276,97.17482363199386,0.8826353292894327,33,1.1
1.3185524860863898,0.8950112383686106,-0.32264435291290283,0.9999834895133972,1.4141871412323173,1.0373263060383962,-0.10948579013347626,0.9999954104423523,1.2297523608444143,1.0342360729449633,-0.1550953984260559,0.9999906420707703,1.3725181051889082,1.3692143774269394,0.0194636732339859,0.9999847412109375,1.2663000710388657,1.3695063412237372,-0.01963091269135475,0.999984085559845,1.3666578424261204,1.6423153377208661,0.005186482332646847,0.9548550844192505,1.2766866985414387,1.6435267097107513,-0.06302479654550552,0.9511061906814575,1.3373000493576217,1.8950112383686106,0.1418810486793518,0.9737866520881653,1.2812356704145385,1.9204330755168526,0.03479156643152237,0.9773749113082886,1.4402143557456955,1.3819293081885429,-0.13090792298316956,0.9855667948722839,1.1931006424052262,1.392579196915924,-0.20956604182720184,0.9847487807273865,0.001193612813949585,1.319409088113887,1.3693603593253383,174.60245648678276,178.7704275487866,1.0,-0.008243264159058985,0.0017924720890349715,0.00312721883941041,-0.025397165011457057,97.3136149143486,0.8809382080923813,34,1.1333333333333333
1.318614784242977,0.8956317836554063,-0.30411654710769653,0.9999816417694092,1.4127483705950334,1.037814252310839,-0.09756481647491455,0.9999954700469971,1.2294624268122452,1.037427221352376,-0.14498208463191986,0.9999899864196777,1.3723265608833506,1.369852928235784,0.01979970559477806,0.9999850988388062,1.2656182506941702,1.370932199648075,-0.019965093582868576,0.9999843239784241,1.3673462582427405,1.6438503142716083,0.016337908804416656,0.9548153281211853,1.2774998077967519,1.64520623485724,-0.05783103033900261,0.9527149200439453,1.3385983643735146,1.8956317836554062,0.15722128748893738,0.9738490581512451,1.2817110658743056,1.9221169281196904,0.043084073811769485,0.978225588798523,1.440660604879832,1.381911868095156,-0.12108476459980011,0.9861729741096497,1.1937011985146162,1.393075403264028,-0.2063329964876175,0.9827783107757568,0.0001494288444519043,1.3189724057887604,1.3703925639419297,174.52761254019404,178.39078358173785,1.0,-0.007668776257218994,0.003497714502846176,0.00445781083176238,0.013146443095193704,97.5204165301864,0.8815432570617036,35,1.1666666666666667
1.3091519882873803,0.8941572278796448,-0.3250845670700073,0.9999793171882629,1.4048970999618553,1.037237861289846,-0.11258555948734283,0.9999955892562866,1.22242476065072,1.0363605718850075,-0.15995417535305023,0.9999898076057434,1.3698226483834401,1.3705088671951384,0.021503102034330368,0.9999856948852539,1.262258621028796,1.3738703828624257,-0.02165527641773224,0.9999849796295166,1.3667372864196017,1.6467401713772858,0.039209190756082535,0.9543002247810364,1.2763690724822476,1.6491357661857504,-0.055690694600343704,0.9548555612564087,1.3376956361929513,1.8941572278796448,0.21454854309558868,0.9727950096130371,1.2794810470236533,1.929760999768972,0.047805629670619965,0.9792422652244568,1.4395658061547565,1.3807785451713792,-0.13298925757408142,0.9865683317184448,1.1883682980176715,1.3905281593854268,-0.22086043655872345,0.9808847308158875,0.0003389418125152588,1.316040634706118,1.3721896250287822,173.94523139614114,177.70086608788284,1.0,-0.015446753608919901,0.02061202095693931,-0.058916089658106054,0.129567862628441,97.79785054702474,0.8856265269420248,36,1.2
1.3054856121976108,0.894310136653708,-0.33733680844306946,0.9999801516532898,1.4011975955514044,1.0403117522404868,-0.12243925034999847,0.9999958276748657,1.2182801075072636,1.0411051193703547,-0.16504430770874023,0.9999901652336121,1.3645022828591427,1.3756544758087441,0.02186249941587448,0.999986469745636,1.2573071511894374,1.3783951565415025,-0.022004082798957825,0.9999858140945435,1.3647429776710045,1.6508741811844083,0.058564357459545135,0.9545218348503113,1.2722603163763582,1.6558915879709064,-0.06594882905483246,0.9580029845237732,1.3374765756503408,1.894310136653708,0.2436244934797287,0.9723864793777466,1.2781963750281293,1.9401691328498814,0.02626335248351097,0.9806362986564636,1.4397295948080278,1.3818036110856315,-0.16056889295578003,0.9872409701347351,1.178632966101453,1.393201281885023,-0.22691205143928528,0.979792594909668,0.0003064870834350586,1.31090471702429,1.3770248161751233,173.5590302731477,178.11177558095082,1.0,-0.03894622638955973,0.03469779592062219,-0.1736491000656034,0.10407812520078587,97.70939304221959,0.893598214933275,37,1.2333333333333334
1.303503424269146,0.8944680135381492,-0.3439334034919739,0.9999807476997375,1.3972075060041398,1.0403271436495758,-0.12488099187612534,0.9999960064888,1.2102741189749335,1.0424605516633763,-0.16800156235694885,0.9999905824661255,1.3622428519297727,1.3787362799715166,0.02180616185069084,0.9999867081642151,1.2535519125683061,1.3818668419497466,-0.02194826491177082,0.9999863505363464,1.3647418702056566,1.6549730016224486,0.05318445712327957,0.9527883529663086,1.2688561621800525,1.6597031760028822,-0.07023830711841583,0.9601879715919495,1.3360087147784776,1.894468013538149,0.24099759757518768,0.9701960682868958,1.27719067203934,1.9404747301512357,0.027308547869324684,0.981465756893158,1.4396508533863503,1.3820018531248144,-0.17250856757164001,0.987524151802063,1.1670949992632247,1.3928538199290381,-0.21810472011566162,0.9807926416397095,0.0008241236209869385,1.3078973822490394,1.3803015609606315,172.6403786459181,178.54740987402414,1.0,-0.023750612356397156,0.024900943939893564,0.11771422764407839,-0.07589555926839,97.5487073172168,0.9044619558158074,38,1.2666666666666666
1.3021959693138931,0.8936140319707864,-0.33458659052848816,0.9999812841415405,1.394850671033035,1.0398044788588467,-0.11616668850183487,0.9999961256980896,1.2059521072061272,1.0428714393516332,-0.16506709158420563,0.9999909996986389,1.3592433005809434,1.3778875024733552,0.022665420547127724,0.999987006187439,1.2510560822022214,1.3815368870377986,-0.022799964994192123,0.9999868273735046,1.3574060391045366,1.6536411259098593,0.05912870913743973,0.9517863392829895,1.264897849464853,1.6630189785578802,-0.06832878291606903,0.9625157117843628,1.3353743237118079,1.8936140319707864,0.24561336636543274,0.968795120716095,1.276173881769687,1.9408660282749806,0.02758486568927765,0.982377827167511,1.4384133389532283,1.380838255753645,-0.13562467694282532,0.9880930185317993,1.16256587067425,1.3829953762329956,-0.2053922861814499,0.981799840927124,0.0011853277683258057,1.3051496913915825,1.379712194755577,175.13616523178948,179.50876452292783,1.0,-0.016088161445976943,0.000638552101687808,0.05833879284083639,-0.18491105676104339,97.94428097345599,0.9043335746027379,39,1.3
1.292685934996446,0.8909570438029782,-0.31192442774772644,0.999976634979248,1.3870833972412282,1.0370710213859247,-0.10684146732091904,0.9999960064888,1.2013820899148835,1.0440720654566806,-0.1484815627336502,0.9999906420707703,1.3558178190900323,1.376822337952754,0.022084027528762817,0.9999873042106628,1.247481053154857,1.3806904764307555,-0.022226102650165558,0.9999872446060181,1.3557429399655079,1.6522547206011038,0.05241468548774719,0.9504681825637817,1.2602554934276236,1.6618585075743084,-0.0672231912612915,0.9638773798942566,1.3338976487107501,1.8909570438029781,0.2245987355709076,0.9676530361175537,1.2742571963884535,1.9377948606266073,0.03250696510076523,0.9830451011657715,1.4360056578419975,1.3778344387120143,-0.14101630449295044,0.9872710704803467,1.1636949335104958,1.3834261837045307,-0.20513975620269775,0.9807265996932983,0.00270843505859375,1.3016494361224447,1.3787564071917546,174.78661127216105,179.69651714814393,1.0,-0.017843386190392194,0.003169532587888535,-0.014217358045583802,0.0203237058190542,97.30269269756748,0.910859859141752,40,1.3333333333333333
1.2836677169135242,0.8800780089902195,-0.31753724813461304,0.9999694228172302,1.3774241221630663,1.030840512133177,-0.11234090477228165,0.9999958872795105,1.1915611007417264,1.0398860951574416,-0.144202321767807,0.9999900460243225,1.3471765832549973,1.3725961407587925,0.01707223802804947,0.9999879002571106,1.236247112102305,1.378025913689078,-0.017213119193911552,0.9999878406524658,1.346275122860019,1.6470388413948835,0.04498510807752609,0.9516375660896301,1.2497529150427253,1.6584943510347816,-0.06272318214178085,0.9659841060638428,1.3283328710754438,1.8800780089902194,0.2376851737499237,0.967353343963623,1.2684067653697808,1.9322340413866632,0.043738365173339844,0.9840564131736755,1.4278963958530675,1.3715015979144642,-0.15657638013362885,0.9869778156280518,1.1577881584941594,1.3789474644739412,-0.20665030181407928,0.9782533049583435,0.00351560115814209,1.2917118476786513,1.3753110272239353,175.78554285289553,178.8585524010944,1.0,-0.031551073768703995,0.02335611344041778,-0.11057118155505835,0.16197784572834495,97.86013614705485,0.9329597039659728,41,1.3666666666666667
1.2772282951259626,0.8687381863094078,-0.3178029954433441,0.9999637603759766,1.3655010682607769,1.0212233654542424,-0.1142466813325882,0.9999956488609314,1.1835620920141834,1.0339733237953135,-0.13648691773414612,0.9999898076057434,1.337371281535428,1.3650465378856025,0.011906411498785019,0.9999884366989136,1.2251481132222963,1.3702434368597443,-0.012055865488946438,0.9999884963035583,1.3365212487230633,1.637658299164114,0.021051108837127686,0.9527373313903809,1.243009631696935,1.6482217071047445,-0.05508825182914734,0.9675133228302002,1.3213283421424016,1.868738186309408,0.22814878821372986,0.9668470025062561,1.2616730607244193,1.92380484631573,0.04615610092878342,0.9849515557289124,1.4181692416397107,1.363762413312249,-0.16471637785434723,0.9835436344146729,1.15102755514136,1.3749212865497522,-0.1961527317762375,0.9769137501716614,0.004982441663742065,1.2812596973788621,1.3676449873726733,176.41701803835068,179.8021418117333,1.0,-0.026157365468653753,-0.0013755525739949888,0.03992701593183916,-0.18812552866500284,97.32861291617289,0.9436285328225837,42,1.4
1.2699982714711031,0.8651727644816882,-0.3397788107395172,0.9999653697013855,1.361579741275502,1.0169388210518358,-0.12397869676351547,0.9999957084655762,1.1793956916645885,1.0309604828418357,-0.13855479657649994,0.9999902248382568,1.3332771383609643,1.364102113073227,0.013104451820254326,0.9999887347221375,1.2212061991692087,1.369030554415736,-0.013247834518551826,0.9999890327453613,1.3362366724934653,1.636421932989172,0.02529282309114933,0.9548378586769104,1.2418329296034505,1.6488793828267758,-0.04083770886063576,0.9696294069290161,1.3207497242584856,1.8651727644816882,0.24411702156066895,0.9672505855560303,1.2603290271522318,1.9231924983675004,0.0724533349275589,0.9859122633934021,1.4150996602084112,1.3589488410320445,-0.18289348483085632,0.98372882604599,1.146070142300303,1.3778196818165467,-0.219639390707016,0.9783494472503662,0.005482971668243408,1.2772416687650865,1.3665663337444813,175.5041985800517,179.64198162582375,1.0,-0.024658008379893195,-0.001452902018888528,0.011482366158605664,-0.0006061101212032288,97.17877183283264,0.9500924724971286,43,1.4333333333333333
1.268196859431474,0.8648226103839015,-0.3362191915512085,0.99996417760849,1.360987716127772,1.0164215895770246,-0.1270344853401184,0.9999956488609314,1.1780540258376477,1.0321252716860407,-0.14395146071910858,0.9999904632568359,1.332103063641692,1.3657370323336915,0.01064311433583498,0.9999889731407166,1.2185741672364951,1.3705454173586011,-0.010787351988255978,0.9999895095825195,1.3384847855817135,1.638910630555827,0.018879882991313934,0.9570932984352112,1.2426740927517828,1.6522911680668164,-0.03452654182910919,0.9715145826339722,1.3270768718862949,1.8648226103839016,0.23140954971313477,0.9677204489707947,1.262024854693758,1.9249458154244408,0.08169351518154144,0.9867769479751587,1.4168259133535215,1.3609303262674612,-0.18337363004684448,0.9834789633750916,1.143294544300088,1.3886723710559734,-0.20439903438091278,0.9796472191810608,0.006132453680038452,1.2753386154390935,1.3681412248461464,175.77091417629364,179.17051465242116,1.0,-0.026847631747849408,-0.0019510529599988356,-0.015989156565441878,-0.003679073162821756,97.15224128560894,0.9549863184445475,44,1.4666666666666666
1.2689462703924934,0.8642348026588125,-0.3404819965362549,0.9999651908874512,1.361780763537265,1.016379878040951,-0.13853666186332703,0.9999957084655762,1.177599272868239,1.032992640634143,-0.1479121446609497,0.9999908208847046,1.3329388486591291,1.3677006322964633,0.008720177225768566,0.9999893307685852,1.2189912728291064,1.372222276572991,-0.008869605138897896,0.9999899864196777,1.340800823251096,1.642058659697811,0.010036353953182697,0.9592551589012146,1.2443261618852597,1.6549743895780227,-0.030366402119398117,0.9729393124580383,1.33206952509589,1.8642348026588125,0.22875051200389862,0.9677238464355469,1.2639637485806807,1.9273533186545495,0.08931364864110947,0.9874690771102905,1.4190460584041134,1.3655919073879204,-0.1818954050540924,0.9836402535438538,1.1431489446133734,1.3949482013394339,-0.2048110067844391,0.980876088142395,0.00647774338722229,1.2759650607441178,1.3699614544347272,176.108079188376,179.00360438451406,1.0,-0.0100630368193689,-0.001813391401173185,0.13161411049257074,0.0010997623689292598,96.96561813142304,0.9610068423063586,45,1.5
1.2743772499298938,0.8687074612843634,-0.36109477281570435,0.9999678730964661,1.3709364441198775,1.0181996213419344,-0.15018367767333984,0.9999958872795105,1.185075951297068,1.0401325596141333,-0.14921438694000244,0.9999913573265076,1.3429955734838221,1.3802895850840604,0.005708674434572458,0.9999898076057434,1.2275571251524877,1.383897489451701,-0.005859932862222195,0.9999905228614807,1.3524426004352672,1.6598083646710575,-0.005491352640092373,0.961487889289856,1.258603556166868,1.6733356550459246,-0.01807667873799801,0.9740632176399231,1.3475485042913913,1.8687074612843635,0.2276800572872162,0.9661710262298584,1.2751028236557538,1.9438077720639393,0.12252575159072876,0.9879094362258911,1.4312611971372944,1.38096883247302,-0.1895817220211029,0.9838659167289734,1.1508674587314045,1.407427260328268,-0.20677132904529572,0.9819933176040649,0.008479952812194824,1.285276349318155,1.3820935372678809,176.7222023104404,177.3684238123537,1.0,-0.011372966421517423,0.0033317527703813745,-0.008912422478077069,0.0375709528487395,96.20265112839715,0.9784460683215587,46,1.5333333333333334
1.284570801934313,0.8749541455889418,-0.3783980906009674,0.9999704360961914,1.3813779653232485,1.0262415631385475,-0.16959276795387268,0.9999960660934448,1.1946051867116914,1.0500043811681672,-0.16663484275341034,0.9999918937683105,1.352055577180386,1.3934365276121763,0.0028593200258910656,0.9999904036521912,1.2352839829627809,1.39704527170791,-0.002998165786266327,0.9999911785125732,1.3644062692259744,1.6754657850998882,-0.00010637815285008401,0.9635776281356812,1.2684133961337085,1.6898389737825605,-0.020393427461385727,0.9753851890563965,1.3645022969616483,1.8749541455889418,0.25341829657554626,0.963813304901123,1.2907057602789753,1.962150909220795,0.11241291463375092,0.9885240197181702,1.4449685590874843,1.3982937879081938,-0.19755154848098755,0.9831659197807312,1.1575620596750902,1.4213421564716702,-0.24887052178382874,0.9827332496643066,0.009100526571273804,1.2936697800715835,1.3952408996600432,177.5200722405474,178.2244645869757,1.0,-0.03090928033218117,-0.00041642013599089305,-0.15470424584703274,-0.030100373603882603,96.3357938498615,0.9922827854730316,47,1.5666666666666667
1.281046442029428,0.8748712579636103,-0.3638817071914673,0.9999724626541138,1.376846151662222,1.026264269938049,-0.15427707135677338,0.9999960660934448,1.188576815660383,1.0456739136606763,-0.16541674733161926,0.9999923706054688,1.3480356265705051,1.391879130080697,0.004919270519167185,0.9999906420707703,1.2321171176251648,1.396309855178092,-0.005056203342974186,0.9999915957450867,1.3637625927232406,1.6744898836236553,-0.0019833208061754704,0.9657964706420898,1.2695614195090514,1.6892453291755258,-0.024682780727744102,0.9767046570777893,1.3637361462056832,1.8748712579636104,0.24621348083019257,0.9644153118133545,1.2898530545922238,1.9626260925231416,0.10818251222372055,0.989126443862915,1.4375642446193977,1.3962440500196989,-0.19758550822734833,0.9825476408004761,1.145352471796539,1.4178589443872518,-0.2449769675731659,0.9840788245201111,0.007436662912368774,1.290076372097835,1.3940944926293946,176.80727847776936,176.96068681183272,1.0,-0.022374271175932457,-0.0039233302937204464,0.06309560270758212,-0.025967974975053137,96.6945457390535,0.9873781311946322,48,1.6
1.2772615942262902,0.8728468397554641,-0.3668055236339569,0.9999739527702332,1.3717192008382955,1.0243349475568755,-0.15640540421009064,0.9999961256980896,1.1831811088045847,1.037933037554442,-0.17337021231651306,0.9999927878379822,1.3412263919030993,1.3868132048907187,0.006074658595025539,0.9999908804893494,1.2240693487070486,1.3916046615283,-0.006216739304363728,0.9999919533729553,1.3600157180387464,1.6683832147238045,-0.002697278978303075,0.967847466468811,1.2656357083794776,1.6831707108129181,-0.026477742940187454,0.9777883291244507,1.3609608489230784,1.872846839755464,0.21161988377571106,0.9655742645263672,1.286230948396164,1.9593221254364053,0.1005067378282547,0.9896407723426819,1.428529171488024,1.3927144531463391,-0.1908358335494995,0.9823893904685974,1.134507023455386,1.4125555283793783,-0.24487915635108948,0.985210120677948,0.0052225589752197266,1.2826478703050739,1.3892089332095092,176.44712744837057,176.1516429644217,1.0,-0.03313600008655079,-0.01175453407995017,-0.08279941359591898,-0.06002495822789031,97.15054113223408,0.9771475143360259,49,1.6333333333333333
1.2654069908404189,0.8640019187390054,-0.34728583693504333,0.9999740123748779,1.3545286059870836,1.013238054201303,-0.1450396329164505,0.9999958276748657,1.1693676022824757,1.02009627047027,-0.15029534697532654,0.9999931454658508,1.3254825492577913,1.3722405158709026,0.004788502119481564,0.9999909996986389,1.2096359152776213,1.377791856317741,-0.004936893004924059,0.999992311000824,1.3463744263014177,1.6522236369925318,-0.007564225234091282,0.9699174165725708,1.252574309446462,1.6666556774133112,-0.027713561430573463,0.9790734052658081,1.3496312413867884,1.8640019187390056,0.20493710041046143,0.9668111205101013,1.276004627167294,1.9403097570814019,0.09902078658342361,0.9901406764984131,1.4083845543969193,1.3783168813451891,-0.18539540469646454,0.977789580821991,1.1237678876034536,1.3967201151673752,-0.23978419601917267,0.9863179326057434,0.0026596784591674805,1.2675592322677063,1.3750161860943217,176.61364124741198,176.43887309022475,1.0,-0.02042626344826773,-0.005907220659468661,0.09347309965640813,0.043257932823394685,97.36909320557879,0.9658601692089352,50,1.6666666666666667
1.2380735167944021,0.8449389095389704,-0.344252347946167,0.9999731779098511,1.3225432556793608,0.9909032716024481,-0.14483413100242615,0.9999956488609314,1.1418947947896738,0.9952043681965256,-0.15120163559913635,0.9999933838844299,1.2942047279609366,1.341272189760289,0.005526353605091572,0.9999910593032837,1.180902527132765,1.3468340018160252,-0.005677417386323214,0.9999924898147583,1.3158301073606415,1.6127738977961068,-0.043480999767780304,0.9722077250480652,1.2235045230477222,1.628827849386346,-0.028964782133698463,0.9798617959022522,1.3187439812330537,1.8449389095389703,0.13989120721817017,0.968939483165741,1.247814500691846,1.8970110706623429,0.09995473176240921,0.9905216693878174,1.3742823210836894,1.3544254891394945,-0.1713944375514984,0.9765257239341736,1.0983634513013534,1.361851104711126,-0.2415989339351654,0.9873467087745667,0.0017063021659851074,1.2375536275468506,1.3440530957881571,176.16502338473933,176.58858016993574,1.0,-0.012450163267095178,-0.0008076399201907367,0.06017963340405101,0.03976142856086388,97.43442581953165,0.9436755955311225,51,1.7
1.2004314346786278,0.8178712370936283,-0.30493873357772827,0.9999724626541138,1.282007674398206,0.9606199207519935,-0.11006082594394684,0.9999954700469971,1.1063832605965183,0.9638969899660683,-0.13135740160942078,0.9999934434890747,1.2533143202174133,1.3013664039260775,0.005607407074421644,0.9999911785125732,1.1438035767514432,1.3059988491678305,-0.005730859003961086,0.9999925494194031,1.27504095426625,1.5664446164748067,-0.02744065597653389,0.9737116694450378,1.1840915832386134,1.582485659182618,-0.029576832428574562,0.9797561764717102,1.2776681417845615,1.8178712370936283,0.13211457431316376,0.9711808562278748,1.2109233699364932,1.8408110127577861,0.09754867851734161,0.9907636046409607,1.3297933415514833,1.3194150336824044,-0.141594797372818,0.9768379330635071,1.064731434278275,1.3168270079419067,-0.22862708568572998,0.9883130192756653,0.001341700553894043,1.1985589484844283,1.3036826265469539,175.91300264318141,177.63949315085188,1.0,-0.004391258742323983,0.010130598039111802,0.057737728002394836,0.08212493632551172,97.2356105260011,0.9207198300589172,52,1.7333333333333334
1.176452430105009,0.8002111972175419,-0.27473750710487366,0.999969482421875,1.2560930625443396,0.9411035150881081,-0.0807436853647232,0.9999940991401672,1.0846135147251552,0.9437289693229232,-0.09920728206634521,0.9999933838844299,1.2270542651633904,1.2752812189569218,0.0055395751260221004,0.9999911189079285,1.1198898962118773,1.2799923330660983,-0.005697699263691902,0.9999927282333374,1.2490945609193589,1.5363100841216386,-0.060531098395586014,0.974882185459137,1.1592108848213605,1.5526563694058817,-0.035787053406238556,0.9787257313728333,1.2513745325020738,1.8002111972175419,0.07783402502536774,0.9729295969009399,1.1879459854808865,1.807180890794752,0.0768914744257927,0.9907066226005554,1.3002585094445116,1.292179563414036,-0.12772533297538757,0.9615593552589417,1.0432216981074895,1.2864594545623997,-0.20374031364917755,0.9890741109848022,0.0010972917079925537,1.1734720806876338,1.2776367760115102,175.66860212291516,178.23518516273705,1.0,-0.00486132150822865,0.004055215866215023,-0.004211864292082961,-0.04417116260017332,97.4835064583162,0.904086437759943,53,1.7666666666666666
1.158331632549792,0.7875555495583023,-0.2492842972278595,0.999950110912323,1.2373321143916087,0.9270938753800759,-0.06532852351665497,0.9999890327453613,1.0695342158291503,0.9291164724681096,-0.07616424560546875,0.9999931454658508,1.2081666284341772,1.2571108213688131,0.004112922586500645,0.999990701675415,1.1031750817500585,1.2620245396358467,-0.004299485124647617,0.9999927878379822,1.2293108818661054,1.5200085235961929,-0.06070582941174507,0.9751895666122437,1.1412963878168798,1.536289660585452,-0.03808334097266197,0.976321816444397,1.2332233868138394,1.7936960809449272,0.048038408160209656,0.9745829105377197,1.1707481957638401,1.7875555495583022,0.06518952548503876,0.9901471138000488,1.2749863375074215,1.2683201093898995,-0.13554981350898743,0.9024879336357117,1.0293415381380329,1.2618635977222432,-0.15727916359901428,0.989660382270813,0.0008576810359954834,1.1556708550921178,1.25956768050233,176.22074785139645,178.7722541559107,1.0,-0.006858060649433585,0.0024818277982412026,-0.015668361287427608,-0.0114855148857628,97.72998414703848,0.8854635632008392,54,1.8
1.1589246517777707,0.7879040555889624,-0.27528995275497437,0.9999503493309021,1.2388948317878279,0.9270978609080328,-0.08544804900884628,0.999988317489624,1.0705903162395867,0.9292146582129809,-0.08814729750156403,0.9999927878379822,1.2093845758915227,1.2580958107837241,0.002310562413185835,0.9999900460243225,1.1038570469067035,1.263145797948469,-0.002517242217436433,0.999992311000824,1.2287944354773483,1.5275806071603142,-0.06158224865794182,0.9754128456115723,1.1414441596072764,1.5383151002380675,-0.03135032206773758,0.9723634719848633,1.2336813973197174,1.8072538532139126,0.03561257943511009,0.9761266112327576,1.170898010711284,1.7879040555889625,0.07690421491861343,0.9887567162513733,1.2785288336093792,1.2645931927433336,-0.16148579120635986,0.896404504776001,1.0309147492905444,1.2599364918610416,-0.1812773197889328,0.9900000095367432,0.0008969902992248535,1.1566208113991132,1.2606208043660967,176.88141400997856,178.95206126801224,1.0,0.0010350369580094754,0.0012693321959381463,0.06279468163916009,-0.009654240018808819,97.83453957809157,0.8772001247815137,55,1.8333333333333333
1.1595079113379456,0.7886636240059051,-0.26716703176498413,0.9999487996101379,1.24032531783694,0.9272354410033953,-0.08085903525352478,0.9999873638153076,1.0717429170085337,0.9299297885957726,-0.07967031002044678,0.999992311000824,1.2106442777737227,1.2594896745181654,0.001346358098089695,0.9999894499778748,1.1046932114335781,1.2649801467828201,-0.0015589843969792128,0.9999918937683105,1.2294551597002743,1.530875090735393,-0.06425156444311142,0.9758632779121399,1.1418246715947138,1.5399093198595308,-0.03131193667650223,0.9696142077445984,1.2345098064609583,1.8116783357209185,0.030657226219773293,0.9776206016540527,1.171396825667194,1.788663624005905,0.07850344479084015,0.987866997718811,1.2809851908717924,1.2638120330774103,-0.15653225779533386,0.8876109719276428,1.0321897817360255,1.2606027469535326,-0.1719418466091156,0.9902744889259338,0.0011408329010009766,1.1576687446036504,1.2622349106504929,177.0661778836396,179.0878328298216,1.0,0.0010782545278908145,0.004760575284806309,0.0003221639546271017,0.026515373994090253,98.07127559374109,0.8772485504985943,56,1.8666666666666667
1.16167002614968,0.7900524051148746,-0.2826257348060608,0.9999514222145081,1.2427746439053762,0.9278568472468103,-0.08888375014066696,0.9999870657920837,1.0734601546983762,0.9301690034990796,-0.08919879794120789,0.9999918341636658,1.2130583421991252,1.2624935753853181,-0.0008605069597251713,0.9999880790710449,1.1065970657929896,1.268330121907284,0.0006457283161580563,0.999990701675415,1.2279693705393433,1.5364674877482862,-0.06563770771026611,0.9756615161895752,1.143016117763099,1.5429952487815264,-0.02251511625945568,0.9634457230567932,1.2365293191565265,1.8235572730163363,0.01697584241628647,0.978849470615387,1.173254496525244,1.7900524051148745,0.0981067568063736,0.9853225946426392,1.2838930239083794,1.2617136677023604,-0.16440001130104065,0.8861444592475891,1.0343007798371797,1.2622737460456452,-0.1793411672115326,0.9905198216438293,0.0009773671627044678,1.1598277039960574,1.265411848646301,178.59259189896142,179.42492877527576,1.0,0.0016352305994740384,0.00798024387684879,0.0041806398216954095,0.024185300091618962,98.21264590789252,0.8750070558444718,57,1.9
1.1648683061105567,0.7918857841632245,-0.28874877095222473,0.9999486804008484,1.246170019742578,0.9295176461265008,-0.09087099879980087,0.9999850988388062,1.0765426968685388,0.9276096281457465,-0.09759020060300827,0.9999910593032837,1.2162853258147481,1.265887713672034,-0.00044567539589479566,0.9999867081642151,1.1093671806344445,1.2716458418887215,0.00024107206263579428,0.9999897480010986,1.228137517833323,1.5425740739025768,-0.05485359951853752,0.9752331376075745,1.1460648207223054,1.5480654047921296,-0.022993138059973717,0.9582253694534302,1.2395232740372621,1.8311664946104325,0.03350090608000755,0.9800145030021667,1.1762313696960511,1.7918857841632245,0.09797389060258865,0.9831902980804443,1.2870468483805777,1.258333687390023,-0.1497061401605606,0.8731198310852051,1.0373658351954596,1.2653749029112933,-0.1958439201116562,0.9905973076820374,0.0008043646812438965,1.1628262532245963,1.2687667777803777,179.80646877947524,179.49064575382513,1.0,-0.001003819855429286,-0.00045291655082275816,-0.020355807610404907,-0.06510478726233142,98.15980894570832,0.8756163210937399,58,1.9333333333333333
1.1623427478591546,0.7880554783373315,-0.2935774028301239,0.9999521970748901,1.2435824719670807,0.9256575777388054,-0.09303633123636246,0.9999855160713196,1.0742868392472227,0.9233608283505536,-0.1115807294845581,0.9999908804893494,1.2133587143620654,1.2639413731811817,0.0012727718567475677,0.9999856948852539,1.1063391933677331,1.268839732092694,-0.0014786176616325974,0.9999885559082031,1.2199922790397089,1.5420779286552515,-0.05196298286318779,0.9757519364356995,1.1410470471418022,1.5489413022916778,-0.022223524749279022,0.9563367962837219,1.2349706316424083,1.829315003541301,0.04882267490029335,0.9810850024223328,1.172764351368446,1.7880554783373315,0.10666755586862564,0.9816714525222778,1.28453459771053,1.254166098551364,-0.13749352097511292,0.8824149966239929,1.0352239716842633,1.2628755618345866,-0.21205119788646698,0.9910493493080139,0.0009703934192657471,1.1598489538648993,1.266390552636938,178.38118738706223,179.50771966251918,1.0,-0.0030751212355881745,0.0033536913607490684,-0.015947322780968633,0.02926859068523029,97.72613941734026,0.879174051059901,59,1.9666666666666666
1.1614201868208494,0.787310900400733,-0.24541358649730682,0.9999476075172424,1.242824544996925,0.9247517191385114,-0.04891608655452728,0.9999829530715942,1.0731606951300423,0.9219600039233393,-0.0777541846036911,0.9999903440475464,1.2107341943259269,1.2706616520076957,0.0025539440102875233,0.9999828338623047,1.1042043287510308,1.2726255764518468,-0.0027578428853303194,0.9999868273735046,1.2141559831769917,1.5531048777366843,-0.04631269723176956,0.9737181067466736,1.1400318574024,1.5527429835078825,-0.017498662695288658,0.9503446817398071,1.2302499888669611,1.834406191886241,0.05797772482037544,0.9811059236526489,1.1705878921014048,1.787310900400733,0.11821623891592026,0.9773773550987244,1.2832349398167642,1.245624151986557,-0.1599351167678833,0.8741191029548645,1.034245227872169,1.2616677066898008,-0.19471517205238342,0.9914742112159729,0.0011807680130004883,1.157469261538479,1.2716436142297713,177.41962603839508,179.86680863909834,1.0,-0.009163741898331416,0.05234681238527789,-0.04837924088756035,0.3891122475412928,96.35635932957979,0.8954082896108473,60,2.0
1.1596078030565904,0.7857680012329398,-0.24869196116924286,0.9999511241912842,1.2415717055246434,0.9232205921754331,-0.062085557729005814,0.9999833703041077,1.071455215652257,0.9208406696224488,-0.06908658146858215,0.9999902248382568,1.2087584019868842,1.2725937012733648,0.0005802912055514753,0.999981701374054,1.1024131306110698,1.2749627912888672,-0.000777707202360034,0.9999856352806091,1.2084393345192384,1.5539951699544239,-0.050398074090480804,0.9732081890106201,1.13773536237546,1.5525426251557266,-0.003268782515078783,0.9452077150344849,1.2269973000955443,1.8337641611687436,0.04966329038143158,0.9812922477722168,1.1679422448492516,1.7857680012329398,0.1367163360118866,0.9736940860748291,1.2806141401613584,1.2416485180631507,-0.2010815590620041,0.8816301226615906,1.0327942410854372,1.2604680120443748,-0.19550246000289917,0.9917104244232178,0.0010083317756652832,1.155585766298977,1.273778246281116,176.13998380319194,179.87220096465273,1.0,0.0008306585253449898,0.03382214646585347,0.0781159039555234,-0.1443123395723383,96.64169636257056,0.9077471406826746,61,2.033333333333333
1.15734419357302,0.7832097224468162,-0.26461249589920044,0.999954104423523,1.2401261487979733,0.9210193672964281,-0.07233048975467682,0.9999837875366211,1.0693667489803436,0.9190317109790499,-0.08134964853525162,0.9999901056289673,1.2062005331859997,1.2709854957237314,-0.0007122968672774732,0.9999805688858032,1.1001501550821116,1.273877142626132,0.0005129638011567295,0.9999844431877136,1.2050346099252551,1.5547171183250683,-0.05170357972383499,0.9729915857315063,1.134467757294811,1.5498350076811125,0.002335446421056986,0.9402498602867126,1.2228792998508697,1.837328719050956,0.04255645349621773,0.9818916916847229,1.164295305649885,1.7832097224468162,0.1456456333398819,0.9708356857299805,1.2779620851750035,1.23851159915373,-0.19046762585639954,0.8878039717674255,1.0306885151645824,1.2599107688299553,-0.19608786702156067,0.9920015931129456,0.0008440017700195312,1.1531753441340555,1.2724313191749317,176.15157945779495,179.8053349876147,1.0,0.0010882562188426353,0.011033774744615091,0.0019475371168073223,-0.17050750357540986,97.09881699262164,0.9070799967030193,62,2.066666666666667
1.158661411766738,0.7826525533383506,-0.26671770215034485,0.9999521970748901,1.2423547012516651,0.9209874218433336,-0.09529630839824677,0.9999830722808838,1.0710635976714258,0.9196032046436117,-0.08016540855169296,0.9999898672103882,1.2069857225877074,1.2728185730423296,-0.009503351524472237,0.9999796748161316,1.10085519557483,1.2755007878769113,0.009297708049416542,0.9999838471412659,1.205565065685898,1.556231550645534,-0.06293374300003052,0.9715172052383423,1.134265838649914,1.5497740703364886,0.012800226919353008,0.928921639919281,1.2232615611624953,1.8420651355111075,0.023103442043066025,0.982138991355896,1.1646834411464058,1.7826525533383506,0.15699151158332825,0.965714156627655,1.278076562271484,1.2391724410254314,-0.18965741991996765,0.8711732029914856,1.031162404731067,1.2679992644656666,-0.18538764119148254,0.9918740391731262,0.0005875527858734131,1.1539204590812688,1.2741596804596205,176.1700296878907,179.50367169383995,1.0,0.0024362464756884313,0.009549873528159584,0.010203973024411417,-0.011266791105464222,97.18827600290139,0.9107639571555807,63,2.1
1.1610111453640029,0.7805409146400373,-0.3209392726421356,0.9999550580978394,1.2450352102161446,0.9189448001475509,-0.11894495785236359,0.9999837279319763,1.0734892103391036,0.9198463362580033,-0.11861468851566315,0.9999896883964539,1.2101545947180283,1.2735357240095206,-0.007209526840597391,0.9999793767929077,1.1024648380892157,1.276526229810555,0.007017241325229406,0.9999830722808838,1.2074086018672217,1.5580001229590985,-0.05775076895952225,0.9725412726402283,1.1352566244214335,1.5520205166038696,0.008977675810456276,0.928515613079071,1.223171817774616,1.8446321151599785,0.04099953547120094,0.9830945730209351,1.1634697652359498,1.7805409146400373,0.17004063725471497,0.9649794697761536,1.279114132391818,1.240492890329267,-0.18503203988075256,0.8804295659065247,1.0315690107940523,1.2723808921560877,-0.22431299090385437,0.9921697378158569,0.00038239359855651855,1.156309716403622,1.2750309769100379,176.29914087315842,179.74979294881797,1.0,0.012185357479979085,-0.00042158329512980965,0.07655148785670295,-0.0783660340456893,97.2087062252937,0.9177513220974876,64,2.1333333333333333
1.1773112737833522,0.7891772020990547,-0.35714197158813477,0.9999584555625916,1.259848932312379,0.9263712409882872,-0.14760176837444305,0.9999844431877136,1.0873313957662096,0.9305572673337982,-0.1365492194890976,0.9999895691871643,1.2256788059582677,1.2881301624329475,-0.007091335952281952,0.9999790191650391,1.1157558466407804,1.2916558806868057,0.006876624189317226,0.9999821186065674,1.220943209950253,1.5756865889223188,-0.07286535203456879,0.9738258719444275,1.1480215278917976,1.569504285605639,0.021906457841396332,0.925693154335022,1.2366015385391766,1.8667816697336521,0.02071922831237316,0.9841068387031555,1.1763771759426094,1.7891772020990548,0.208304762840271,0.9622780680656433,1.2937438473714549,1.2554390124804626,-0.20830678939819336,0.8862362504005432,1.0429245749044544,1.2944776493884864,-0.24067768454551697,0.9923431873321533,0.0017551779747009277,1.170717326299524,1.2898930215598765,175.9774787585767,179.26877486920216,1.0,0.007441628675936877,0.000547592546205904,-0.0365038094583133,0.0072787398772106455,97.23299412661798,0.9285759476652109,65,2.1666666666666665
1.1792210373256298,0.7885951981990703,-0.34297090768814087,0.9999616742134094,1.2610015693689456,0.9249464932894416,-0.1384376883506775,0.9999851584434509,1.0884182165160095,0.9314356556954051,-0.12783971428871155,0.9999895691871643,1.227959961922015,1.2888059245509325,-0.007378149777650833,0.99997878074646,1.117422698283183,1.2925060303302263,0.007152004633098841,0.9999814033508301,1.2215156122085993,1.5753772606314023,-0.07103782147169113,0.9749170541763306,1.148934272370265,1.570274446444102,0.018071245402097702,0.9235320687294006,1.2372926674982858,1.8686507261043253,0.02026313915848732,0.984968364238739,1.1772489231972334,1.7885951981990704,0.19582654535770416,0.960330605506897,1.2944719560391753,1.2569183506339965,-0.20025157928466797,0.8923459649085999,1.0435252879091017,1.2977977691388074,-0.22976693511009216,0.9925244450569153,0.002718806266784668,1.172691330102599,1.2906559774405792,175.63242482252093,179.08266844893993,1.0,0.008281617162285987,-0.00165073232986017,0.006367108506444988,-0.016779296294564275,97.10591832328922,0.9314083889917073,66,2.2
1.1837415328123282,0.7886682240994205,-0.3707069754600525,0.9999613761901855,1.2645629076939116,0.9261063241226054,-0.14682801067829132,0.9999828338623047,1.0918509353426153,0.9324724871585853,-0.15189537405967712,0.9999896287918091,1.230337981136493,1.2899218891078257,-0.006079109851270914,0.9999781250953674,1.1196887640967887,1.293838114720246,0.005863254424184561,0.9999815225601196,1.2231368484374119,1.573414241224345,-0.0687093660235405,0.9740737080574036,1.1502092337419458,1.5717816142044247,0.014408834278583527,0.9183412194252014,1.2382840782407731,1.8684594517768347,0.0480215847492218,0.9850557446479797,1.1772985377563512,1.7886682240994205,0.19743786752223969,0.9564113020896912,1.2958874432981116,1.269946275975489,-0.1951473355293274,0.8373082280158997,1.0435806313242222,1.3017383547152785,-0.24438567459583282,0.9922084808349609,0.0026644468307495117,1.1750133726166407,1.291880001914036,175.60600465862365,179.14702100372003,1.0,0.008759050442937306,-0.0011751991086199145,0.0038064163314647497,0.0038765342861420485,97.40115638311467,0.9360244337363417,67,2.2333333333333334
1.1899146584857994,0.7880797463207694,-0.40717071294784546,0.9999603629112244,1.2712684996749761,0.9274943749993306,-0.1801411509513855,0.9999808669090271,1.0964797116230023,0.9349563225792864,-0.18040888011455536,0.9999894499778748,1.2350697328735998,1.293443657001863,-0.005548367742449045,0.999977707862854,1.1236224326061914,1.297511720313151,0.005335377063602209,0.9999815821647644,1.2266608789458446,1.5770029482392847,-0.05803883075714111,0.9743759632110596,1.1520830975824723,1.5786925724289116,0.02383529394865036,0.9143401980400085,1.240664212358902,1.8736918459890346,0.07121811807155609,0.9857412576675415,1.1789874320546683,1.7880797463207694,0.2513682246208191,0.9527697563171387,1.2998111970265585,1.2762883955602564,-0.22355809807777405,0.7890589237213135,1.0440082632089795,1.3083942537356323,-0.2698061466217041,0.9919201135635376,0.003114849328994751,1.1793460827398956,1.295477688657507,175.5991295604415,178.4578360680093,1.0,0.00946590891747093,0.0014506404639016545,0.005252472470604424,0.02019526777398954,97.73966426963287,0.9463535440077567,68,2.2666666666666666
1.1976932268112748,0.7873565133221986,-0.40436428785324097,0.9999631643295288,1.2832705986767559,0.9311333598537452,-0.18120314180850983,0.9999818801879883,1.1034026789445641,0.9384046679754537,-0.1810588538646698,0.9999896883964539,1.243779359747472,1.3006034590467874,-0.005069605074822903,0.999978244304657,1.1307300246007936,1.304866447705721,0.004866921342909336,0.9999818801879883,1.2348522731679015,1.585930299187585,-0.05303054302930832,0.9756861329078674,1.158545867626763,1.5939289319981216,0.019023556262254715,0.916818380355835,1.2478082602944915,1.8842091053094918,0.08875569701194763,0.9865736961364746,1.1842758132407705,1.7873565133221987,0.2544582188129425,0.9513903260231018,1.3227651406898275,1.2990142449078654,-0.20901048183441162,0.7992455363273621,1.0489096951253665,1.3149672779286505,-0.27753156423568726,0.9920814037322998,0.0030178725719451904,1.187254692174133,1.3027349533762542,175.72083201175104,177.91945787838014,1.0,0.008513008452011136,-0.0016194794298691475,-0.007728565932074301,-0.023615822449956147,98.26051129010477,0.9656388862509802,69,2.3
1.1966778129663567,0.7828025142384817,-0.40543168783187866,0.9999653697013855,1.283855748235209,0.9286804903703348,-0.1806403249502182,0.9999830722808838,1.1010025223322926,0.936060326825217,-0.18134066462516785,0.9999897480010986,1.24504571033397,1.297349205320284,-0.0013201081892475486,0.9999785423278809,1.1303705926782528,1.3014826357315963,0.0011265564244240522,0.9999815821647644,1.2386501672303087,1.5838014910518623,-0.04641973599791527,0.9769583940505981,1.157387590039169,1.5891823711069575,-0.019649311900138855,0.9208571910858154,1.2447202388605347,1.8825066603826224,0.10620410740375519,0.9872997403144836,1.1778854883343475,1.7828025142384816,0.21657459437847137,0.9519660472869873,1.3348214007521515,1.3087157808181697,-0.21638551354408264,0.8168489933013916,1.0460379542427505,1.3109227409941133,-0.2765336334705353,0.9923788905143738,0.0030705928802490234,1.1877081515061114,1.2994159205259401,177.5568216478736,179.32154043177837,1.0,0.026223294273189226,-0.00047536994140044106,0.13588965454758853,0.008737096810165436,98.0737526654815,0.9680165892057565,70,2.3333333333333335
1.1941284185152174,0.7767426478321282,-0.42850542068481445,0.9999679327011108,1.2832348431965195,0.9249700716929944,-0.21357986330986023,0.9999845027923584,1.0981603488969098,0.9334163979062929,-0.1902972310781479,0.9999899864196777,1.2451817871106545,1.294200452078617,-0.0026035041082650423,0.9999786615371704,1.1294327255139969,1.2977443691694064,0.0024131261743605137,0.9999809265136719,1.2378923246378277,1.579515051116413,-0.04756922274827957,0.9775937795639038,1.1498979256775557,1.5834826446520558,-0.0042656525038182735,0.9212496280670166,1.240777237079814,1.8782108002365563,0.1135195940732956,0.9873959422111511,1.1683544111293676,1.7767426478321282,0.24845090508460999,0.9490255117416382,1.3434961417526854,1.3149037649728106,-0.27574682235717773,0.8337025046348572,1.042823807074854,1.3101226612564028,-0.2758297324180603,0.9925272464752197,0.0035255849361419678,1.1873072563123257,1.2959724106240118,177.98311026487715,178.64140526853765,1.0,0.026639792705462934,0.005521165659852366,0.003932219028027071,0.047132018556421004,97.6378467347358,0.9764712635967174,71,2.3666666666666667
1.1908980102040672,0.7653824848276248,-0.36674198508262634,0.9999703168869019,1.2862877199045817,0.9201915870305858,-0.18708550930023193,0.9999858140945435,1.0942190074411644,0.9289575008647394,-0.14441129565238953,0.9999901056289673,1.2464375152235347,1.292816111637076,-0.004943441599607468,0.9999792575836182,1.1277681253501235,1.296132106601834,0.004730272572487593,0.9999805092811584,1.2330592789167578,1.5784921900602007,-0.11090507358312607,0.9791814088821411,1.137558439188711,1.5839601569008195,0.0039918385446071625,0.9248065948486328,1.2347756836130959,1.8723965801510403,0.06772078573703766,0.9879496097564697,1.1604631621011932,1.7653824848276247,0.292350709438324,0.9452807307243347,1.3571628134484954,1.3127540038784664,-0.24273288249969482,0.8494470715522766,1.0383754580560884,1.3053871630891418,-0.22730937600135803,0.9928686022758484,0.0036766529083251953,1.1871028202868292,1.2944741091194552,176.98418824461157,174.75256231706456,1.0,0.04228130420113657,0.036350650093568596,0.12119841474943045,0.2371471809005703,97.70488387588277,1.0087355306747772,72,2.4
1.1870316369164284,0.7596398880882547,-0.37749016284942627,0.9999727010726929,1.2851876285184443,0.9147095390209175,-0.17754055559635162,0.999987006187439,1.0920281826097702,0.9259897358756747,-0.1480955183506012,0.9999902248382568,1.2450797110917768,1.289882086153347,-0.006732584442943335,0.9999803304672241,1.126903471693276,1.2928717345647733,0.006517288740724325,0.9999808073043823,1.2323034152487367,1.5765390432261064,-0.0903448611497879,0.9806766510009766,1.129082500032755,1.5803138160580819,0.003968940582126379,0.9291465878486633,1.230685857810044,1.8657791347130022,0.08402319252490997,0.9887171387672424,1.1571692886465386,1.7596398880882547,0.290768027305603,0.9453861117362976,1.3595836560126713,1.3074395248460435,-0.2283390760421753,0.8640052080154419,1.0378388044522489,1.3005280786795803,-0.22876398265361786,0.9931206703186035,0.004746824502944946,1.1859915913925265,1.2913769103590602,177.76843676890738,171.53275429690666,1.0,0.021380376525095016,0.008886202904375827,-0.1588744037974602,-0.20924928456863454,97.5512163111243,1.0198365065039736,73,2.433333333333333
1.179461643083193,0.7496064885263006,-0.3621152937412262,0.99997478723526,1.2778054461255977,0.8988636801930634,-0.16527844965457916,0.9999880790710449,1.085922748158569,0.9199205206767018,-0.13270755112171173,0.9999901056289673,1.24085069987469,1.2842936345876808,-0.009067774750292301,0.9999813437461853,1.1220114313288343,1.286509292107276,0.008856014348566532,0.9999811053276062,1.2253028088737787,1.56983783470294,-0.09440296143293381,0.982242226600647,1.110166391093676,1.5777866116290207,-0.007704176940023899,0.9345270991325378,1.2229932604033849,1.8535164624479834,0.09405864775180817,0.9894487857818604,1.1485111316379284,1.7496064885263005,0.2895732522010803,0.9468045830726624,1.3576228894595233,1.295760999528997,-0.20098188519477844,0.8772629499435425,1.033686721792526,1.2923643149071522,-0.22344084084033966,0.9934276938438416,0.008916109800338745,1.1814310656017621,1.2854014633474784,177.3497796496297,165.09085165713282,1.0,0.021665080847324863,0.015716555368559457,0.0032518585467986006,0.053692991915044,96.54484428088358,1.0380063460969293,74,2.466666666666667
1.1727462463103895,0.7394491836169507,-0.3623071610927582,0.9999767541885376,1.2696919824919293,0.8906817409711382,-0.1636764109134674,0.9999890327453613,1.0790180932065718,0.9135346912018679,-0.13186635076999664,0.9999899864196777,1.2340326041426837,1.2767986320867144,-0.011889694258570671,0.9999823570251465,1.115208211954405,1.2793209599248698,0.011687229387462139,0.9999815821647644,1.2180537593668759,1.5605810694946904,-0.11915884912014008,0.9836715459823608,1.0971161240555167,1.5661824047986594,-0.023479249328374863,0.9396288990974426,1.2137784710131911,1.8333333915975496,0.08814023435115814,0.9900866150856018,1.1389358245993526,1.7394491836169508,0.26964738965034485,0.9490814208984375,1.3545823396079932,1.287013374644061,-0.20517396926879883,0.8890741467475891,1.02842121476556,1.2847198154245563,-0.22673344612121582,0.9935740828514099,0.009741127490997314,1.1746204080485443,1.2780597960057922,177.67528415195596,162.8217891515664,1.0,0.007937251840713812,0.009172472247520151,-0.10666432335410395,-0.050566968546534495,96.49257314606677,1.0595610397537965,75,2.5
1.1399092945244473,0.7152365460251034,-0.36528462171554565,0.9999788403511047,1.2331458612126291,0.8611810227027415,-0.16270902752876282,0.9999899864196777,1.048935063014232,0.8867655159325927,-0.13162106275558472,0.9999903440475464,1.2001122603286842,1.2420549104989644,-0.011021729558706284,0.9999831914901733,1.085364205784683,1.2445695527367975,0.010818765498697758,0.9999820590019226,1.1839761635080253,1.5234152098743412,-0.0523410364985466,0.98446124792099,1.0687893584059849,1.5254777113357103,0.0034520290791988373,0.9429062008857727,1.179232219829051,1.784994282308762,0.152583509683609,0.99025958776474,1.103026787505798,1.7152365460251036,0.27691593766212463,0.950890302658081,1.3202627582273037,1.246052264537427,-0.19239290058612823,0.8999127149581909,1.0026925894045173,1.250058046936726,-0.207575723528862,0.9938190579414368,0.011217743158340454,1.1427382330566838,1.2433122316178808,177.75665589996999,166.39559152544933,1.0,0.005976764952121908,0.006080827470922618,-0.01271215299998617,-0.020727175765120752,96.21232556536471,1.0419789066608598,76,2.533333333333333
1.1343947083004164,0.7097747962871217,-0.3657929301261902,0.9999807476997375,1.226073111441937,0.8538506931046063,-0.15903596580028534,0.9999908208847046,1.043623303722657,0.8814041895867747,-0.13217304646968842,0.999990701675415,1.1942288868898674,1.2360331891684408,-0.010453702881932259,0.9999840259552002,1.0803662808068095,1.2384462165135144,0.010250288061797619,0.9999825954437256,1.1777638738928458,1.5213141281188896,-0.04023372381925583,0.9852268695831299,1.0633288821966298,1.5193748878255393,0.0036463425494730473,0.9462471604347229,1.1729487745984137,1.7758685633837945,0.16152220964431763,0.9905137419700623,1.0966578333716772,1.7097747962871217,0.279685914516449,0.9524677395820618,1.313679488672459,1.2357584927647727,-0.18813985586166382,0.9095916152000427,0.9987663683417737,1.2443210136527223,-0.20617756247520447,0.9940739274024963,0.012142658233642578,1.1372975838483383,1.2372397028409776,177.7804996764948,166.60058670493996,1.0,0.002726728501675642,0.0017925691129843672,-0.024702059041734947,-0.03266336194470543,95.9770550828834,1.0432810741785277,77,2.566666666666667
1.1052339542647225,0.6892832603128141,-0.3892538249492645,0.9999825358390808,1.1951479637409173,0.831065032145633,-0.17351172864437103,0.9999915957450867,1.0168478276626134,0.8588446548742679,-0.14288803935050964,0.9999911189079285,1.1632698485743407,1.2043555863398785,-0.010655843652784824,0.999984860420227,1.0523214884852663,1.2065276206274995,0.010451061651110649,0.9999833106994629,1.1474743018112936,1.4840253612216106,-0.04406147077679634,0.9858811497688293,1.0359982857770893,1.4796175100595945,0.010779312811791897,0.9492763876914978,1.1419054494313465,1.7328886738203317,0.15550310909748077,0.9906654357910156,1.0666593922890015,1.689283260312814,0.27164608240127563,0.9552226662635803,1.2807627764823588,1.2012204877048522,-0.22082765400409698,0.9183955788612366,0.9741391261627473,1.2158430410693968,-0.20809891819953918,0.9942638278007507,0.012564629316329956,1.1077956685298034,1.205441603483689,178.04931256305164,168.25952269141234,1.0,-0.0025331828416278604,-0.0004599290156789324,-0.04020716997858012,-0.017094084940210703,96.0026145083928,1.0207766996229002,78,2.6
1.0756820836582053,0.6681483415991969,-0.36966443061828613,0.9999841451644897,1.1629973475566602,0.8067321406776882,-0.15331870317459106,0.999992311000824,0.9889566079202342,0.8350324803574439,-0.12122456729412079,0.9999915361404419,1.132168922871473,1.172124697738378,-0.01063860859721899,0.9999858140945435,1.024191896903285,1.1743460877695342,0.010438951663672924,0.9999842047691345,1.1167629839817614,1.44792736857572,-0.04389173164963722,0.9866536259651184,1.0088116121310369,1.4427324097893803,0.010269379243254662,0.9529219269752502,1.1114379588198824,1.6901443101829081,0.16173964738845825,0.9909337162971497,1.0350071597435075,1.668148341599197,0.23809707164764404,0.9587143063545227,1.2445693600432888,1.1589773473501446,-0.21638703346252441,0.9263248443603516,0.9497445459185935,1.1854209702784864,-0.18505053222179413,0.994300127029419,0.013150572776794434,1.078180409887379,1.173235392753956,178.06228075211553,170.09156529591954,1.0,-0.0007661720918174676,-0.0006778466227875718,0.013607671390078856,-0.001842958420164286,96.0012317533027,0.9983315172589864,79,2.6333333333333333
1.0402187858876975,0.6446090316359794,-0.32448622584342957,0.9999855756759644,1.1241016386423806,0.7757773422963573,-0.10220091044902802,0.9999929666519165,0.9543042470935171,0.8063938186919954,-0.08429433405399323,0.999991774559021,1.095412013485105,1.1336040138950154,-0.00807203073054552,0.9999866485595703,0.9904535817244035,1.1358457417313412,0.007895075716078281,0.9999849200248718,1.080411704253458,1.407626800018188,-0.033997777849435806,0.9868566989898682,0.97650819594133,1.4013770330274906,0.010031064972281456,0.9553768038749695,1.0749946605588712,1.6451215435454298,0.17813561856746674,0.9905548691749573,0.9974517699433166,1.6446090316359794,0.21410198509693146,0.9613855481147766,1.2024685680143066,1.1125514489193051,-0.13467031717300415,0.9334576725959778,0.9209796830775726,1.146715063538884,-0.11716530472040176,0.9935842156410217,0.014709115028381348,1.0429327976047542,1.1347248778131782,178.17333231225544,172.07232215163896,1.0,0.0007599860033917281,-0.0003112648205221727,0.010995425814657194,0.0025224878342089076,95.80757404874355,0.9606746787780007,80,2.6666666666666665
1.0387196860506989,0.6446042010665851,-0.3140387237071991,0.9999867081642151,1.1238636474997175,0.7720492855547075,-0.09313997626304626,0.9999935626983643,0.9529021467533858,0.8034522167223702,-0.08422063291072845,0.9999917149543762,1.0951997468438908,1.132475396111533,-0.0032186347525566816,0.9999874830245972,0.9897469791025884,1.1356211163058063,0.0030498553533107042,0.9999857544898987,1.0801852872486999,1.4071635438332335,-0.027922373265028,0.9868313074111938,0.9766700171892602,1.401097249631548,-0.01794956997036934,0.9582890868186951,1.074928154797369,1.6446042010665851,0.17731639742851257,0.989873468875885,0.9931042002602765,1.6594148506424853,0.13423117995262146,0.9644173979759216,1.2020635547370075,1.109670382261011,-0.13525232672691345,0.939828097820282,0.9232996407956952,1.1459125919238389,-0.13694775104522705,0.9907736778259277,0.015089064836502075,1.0424733629732397,1.1340482562086698,178.13969363992643,173.5397186664585,1.0,-0.0023598309079177963,-0.003898262277490405,-0.0234879406999016,-0.027006418189081807,96.25569927233592,0.9448414006096397,81,2.7
1.0360501675343003,0.6448624003767311,-0.3137372136116028,0.999987781047821,1.123283839803643,0.7698467420232361,-0.10125702619552612,0.9999940991401672,0.9527512014044279,0.8007596046432486,-0.07835713773965836,0.9999914765357971,1.095368260587265,1.1296485610911553,-0.0030281110666692257,0.9999883770942688,0.9878153657540099,1.1343678756042697,0.0028659789822995663,0.9999865889549255,1.0818084211695356,1.4056932191186091,-0.0240471251308918,0.987015962600708,0.9773754086760462,1.401333139342439,-0.0230779480189085,0.9613898992538452,1.0756367807976315,1.6448624003767311,0.1739858090877533,0.9892882704734802,0.9898399854320697,1.6711730255041153,0.09599559009075165,0.9674554467201233,1.2014793770410537,1.105603038170397,-0.13535696268081665,0.9456552863121033,0.9261448125480259,1.138987051107811,-0.1097864881157875,0.9837013483047485,0.0148487389087677,1.0415918131706374,1.1320082183477125,178.66594337122092,175.11577466259607,1.0,-0.010103786891523936,-0.019930033863864605,-0.06402477923346361,-0.13254869710178033,96.94893236995449,0.9260411117983247,82,2.7333333333333334
1.03349463954233,0.6446174350174252,-0.3279739022254944,0.9999886155128479,1.1214217410123841,0.7695352493086854,-0.11486811935901642,0.9999945759773254,0.9519027568342526,0.7947289075689946,-0.08589942008256912,0.9999906420707703,1.0942603366795245,1.1262454927643413,-0.0033499449491500854,0.9999890923500061,0.9861836270013812,1.1321170561279035,0.003181028412654996,0.9999871850013733,1.0810115696278688,1.4031843827968722,-0.021273408085107803,0.986727774143219,0.9766465825776773,1.4016437823594121,-0.030163228511810303,0.9641022086143494,1.0744874174896395,1.6446174350174252,0.16584917902946472,0.9884220957756042,0.9864096280151006,1.6805642413460238,0.0636449009180069,0.9702173471450806,1.199757312350819,1.099353355684251,-0.1547522246837616,0.9507622122764587,0.9278092883689254,1.1175611279744067,-0.12289788573980331,0.9695168137550354,0.01211288571357727,1.0402219818404528,1.1291812744461225,178.80896098998275,175.96876389816933,1.0,-0.0029824956591026157,-0.013308384320010736,0.05350078859564954,0.04967302145482574,97.46403016951912,0.908358893687034,83,2.7666666666666666
1.0310383377871573,0.6451275522594164,-0.2922212481498718,0.9999874830245972,1.121404016151746,0.7703367080914363,-0.08217967301607132,0.9999949336051941,0.9516254622053124,0.7940866377654531,-0.0634414404630661,0.9999865293502808,1.094490890435809,1.1270350571692092,-0.0011613587848842144,0.9999898672103882,0.9845984391012342,1.1335366206546063,0.0010018444154411554,0.9999878406524658,1.0826493285023906,1.4045555605661635,-0.009225310757756233,0.9851070046424866,0.9770020543561077,1.4110994281931548,-0.04040335491299629,0.9658501148223877,1.0730828857850827,1.6451275522594164,0.18882353603839874,0.9861453771591187,0.9862305601769281,1.6919893758296838,0.04150530695915222,0.9725531935691833,1.197223086672688,1.0981951700952146,-0.13781483471393585,0.9550583362579346,0.9306350403716115,1.1052434618856122,-0.12622401118278503,0.9081692099571228,0.011410742998123169,1.0395446647685216,1.1302858389119077,179.83391037889842,176.5505622239218,1.0,-0.011286545131716223,0.0025002737634521295,-0.06656724341339525,0.12683285578670075,97.70067048912387,0.9013074490155052,84,2.8
1.029592989096133,0.6463801103548876,-0.28189852833747864,0.999987781047821,1.1212767679488191,0.7719884731809771,-0.0686565712094307,0.9999952912330627,0.950986421582107,0.7958142637459578,-0.05718715861439705,0.9999855756759644,1.0958813915094032,1.1286128069734858,0.0015115056885406375,0.9999904632568359,0.9853586067985821,1.1365193108630387,-0.0016763850580900908,0.9999884963035583,1.0850302602913657,1.409989011221772,0.007374071981757879,0.9838164448738098,0.9778738642801723,1.417387662243804,-0.04686451703310013,0.9681190848350525,1.0729297464195473,1.6463801103548876,0.2229001522064209,0.9829714298248291,0.9875518280436031,1.706730870466399,0.0239122174680233,0.9747233390808105,1.195991266868669,1.0960662459778159,-0.17877204716205597,0.9591674208641052,0.9320652374774298,1.1100559277939563,-0.1425388604402542,0.8966274261474609,0.01143142580986023,1.0406199991539926,1.1325660589182622,179.27815905627799,176.5577927225357,1.0,-0.0027103151624570383,0.005457751493054525,0.06499522077802826,0.022346646941898137,98.1649981081545,0.8938052794980316,85,2.8333333333333335
1.0291377851358547,0.6481105165877981,-0.3580443561077118,0.9999883770942688,1.122975428970734,0.7742659023364716,-0.10980983078479767,0.9999956488609314,0.9518060700149569,0.7979607734148965,-0.11844731867313385,0.9999852776527405,1.0978216639248202,1.1318723599454321,0.008066673763096333,0.9999910593032837,0.9863641072612365,1.139267003059612,-0.008214257657527924,0.9999891519546509,1.0893838241512603,1.4130424983725733,0.035586483776569366,0.9834165573120117,0.9802679812588189,1.419989879323887,-0.05001460388302803,0.9706923365592957,1.0738485614146234,1.648110516587798,0.2665311098098755,0.9823474287986755,0.98884322465062,1.7106487741878929,0.0375056117773056,0.9769353866577148,1.1934246983346208,1.0991848671985003,-0.23286883533000946,0.9630338549613953,0.9340354925935278,1.1182546465707492,-0.18152210116386414,0.8915027379989624,0.011342495679855347,1.0420928855930283,1.135569681502522,177.93782859151253,177.06607680050266,1.0,-0.006977784581146367,0.002992529566785348,-0.03220984664711619,-0.01872914689479163,97.81923601131814,0.8965157903625866,86,2.8666666666666667
1.0265487215773763,0.6471764260992651,-0.357037216424942,0.9999886751174927,1.1209024076238092,0.7736386701818542,-0.11072031408548355,0.9999959468841553,0.9467238395933013,0.7979897047164117,-0.127920001745224,0.9999849796295166,1.0958213828098022,1.1315806389726695,0.010785496793687344,0.9999915957450867,0.9830957250547088,1.1387087939902216,-0.010945119895040989,0.9999898076057434,1.090647418802038,1.4119145788784957,0.02262282371520996,0.9835243225097656,0.9798829215317387,1.4179263733459397,-0.09598521888256073,0.9731922149658203,1.0734727655629777,1.6471764260992652,0.23707959055900574,0.9824000000953674,0.9890028529421483,1.7195562908628255,-0.027535300701856613,0.9790349006652832,1.1871369378006091,1.0999891288635393,-0.2188931405544281,0.9663906693458557,0.931448243838533,1.118385182597445,-0.23745600879192352,0.8907573223114014,0.011662334203720093,1.0394585539322556,1.1351447164814457,176.88203923287202,177.608919050613,1.0,-0.016358287654194753,0.001032589318075417,-0.07235830971379231,-0.01510148576659692,97.6264237012597,0.8903010490547653,87,2.9
1.025649927756413,0.6473371450793385,-0.35915184020996094,0.9999886751174927,1.1207339903617954,0.7734424433282764,-0.11399497091770172,0.9999961853027344,0.9458453184325775,0.7984435045440575,-0.12893912196159363,0.9999843239784241,1.0954557682150377,1.1319854917798413,0.010849729180335999,0.9999920129776001,0.9825464547986186,1.1390253669783756,-0.011006878688931465,0.9999903440475464,1.0908115643017717,1.4118346285975059,0.027295958250761032,0.9833790063858032,0.9802082323207364,1.4176844483277542,-0.10379666090011597,0.9754304885864258,1.0736787490077166,1.6473371450793386,0.23820999264717102,0.9824343919754028,0.9884806116188003,1.721795280832551,-0.035140663385391235,0.9809085726737976,1.1852539181269224,1.1008364123113976,-0.2268834412097931,0.969222366809845,0.9307855772746211,1.1210827911381698,-0.25068944692611694,0.8840328454971313,0.011970967054367065,1.039001111506828,1.1355054293791085,176.78981882812369,177.96107626025517,1.0,-0.005421737882212093,0.0008359561587469167,0.08592784056834125,-0.00154623467708309,97.60059218579468,0.889333505599067,88,2.933333333333333
1.023280236593968,0.6468121265298566,-0.43735790252685547,0.9999893307685852,1.1188958118449444,0.7734992975922115,-0.16650255024433136,0.9999964237213135,0.9407963110756407,0.7979485025412694,-0.19637681543827057,0.9999850988388062,1.0938001739295475,1.1326548525254787,0.01651538349688053,0.9999922513961792,0.980934770196752,1.1393946069394467,-0.016644863411784172,0.9999908208847046,1.090441435681071,1.4129521195913433,0.07351072877645493,0.9832286238670349,0.9800788750274195,1.4229680968404874,-0.08603701740503311,0.977581799030304,1.0733898682149197,1.6468121265298565,0.31755530834198,0.9821319580078125,0.9874177062768653,1.7285091064097238,-0.00826713815331459,0.98264080286026,1.1822270760700635,1.107686161399775,-0.23273858428001404,0.9719629287719727,0.9223591567372809,1.1356855204429448,-0.2660251259803772,0.8919245600700378,0.011709094047546387,1.0373674720631498,1.1360247297324628,176.51626949537766,178.45113704699756,1.0,-0.010802735838315574,0.00568125172570811,-0.04083813389467064,0.0367663119823799,97.41434699487118,0.8871332620567665,89,2.966666666666667
1.015018895684955,0.6427471144310265,-0.4192633628845215,0.9999896287918091,1.1144847880036068,0.7690587543281595,-0.16062773764133453,0.9999966025352478,0.9346952091096602,0.7940679810096426,-0.1848013550043106,0.9999854564666748,1.0886535563463893,1.1298450631434038,0.016499515622854233,0.999992311000824,0.9761772516129232,1.1359139070689261,-0.01663602888584137,0.9999910593032837,1.085761981105867,1.4098776552899381,0.0687742680311203,0.9829769134521484,0.9777008258229128,1.4202578504392955,-0.07617903500795364,0.979404866695404,1.0708882911937572,1.6427471144310264,0.2972944378852844,0.9818313121795654,0.9852590377246336,1.7253372278361763,-0.0003024164179805666,0.9841529726982117,1.1762031390893133,1.1102216110763634,-0.2196333110332489,0.9743504524230957,0.9143054380772496,1.1364033479894526,-0.27316993474960327,0.8973402380943298,0.01200595498085022,1.0324154039796563,1.132879485106165,176.93701147997012,178.88781153479536,1.0,-0.01851843041333276,-0.0032428844593229028,-0.05790253951279649,-0.06664680268778049,97.18371328619017,0.8897988701628835,90,3.0
1.0062681122084869,0.6350456711539685,-0.4190773367881775,0.999989926815033,1.1068394134761477,0.7645366071760276,-0.15756134688854218,0.9999967813491821,0.9267228438107545,0.7894799860965493,-0.18340647220611572,0.9999861121177673,1.0812718257501772,1.1250451945596043,0.01665477827191353,0.9999924898147583,0.968823805288887,1.1310140599046354,-0.016806045547127724,0.9999914169311523,1.081135956176561,1.404347294745921,0.06346546113491058,0.983262300491333,0.9732809825434796,1.419290227979625,-0.06485994905233383,0.981054425239563,1.06691391055319,1.6350456711539685,0.31378817558288574,0.981611430644989,0.9810234465264523,1.7158027626277572,0.025197405368089676,0.985521674156189,1.1668350406764945,1.1070567553418593,-0.21669287979602814,0.9765585660934448,0.9017917042785749,1.1438671484864666,-0.2734706997871399,0.9046178460121155,0.012025713920593262,1.025047815519532,1.1280296272321197,176.50017825793404,179.39005344757962,1.0,-0.02410811720477824,-8.616610494669244e-05,-0.046210035721692314,0.025619560003759385,97.09514682719677,0.9012487594890614,91,3.033333333333333
0.995783168205335,0.6229660320829755,-0.424496591091156,0.9999899864196777,1.0946677602580188,0.7585004788297713,-0.1610390692949295,0.9999969005584717,0.9151509349377582,0.7809746402793261,-0.18648776412010193,0.999987006187439,1.0701722958698516,1.118855153457194,0.016819149255752563,0.9999924898147583,0.9580973474272834,1.123876959312817,-0.016978353261947632,0.9999916553497314,1.0731351797352982,1.3982139848977613,0.05471045523881912,0.9836938977241516,0.9644167957712013,1.411944631874874,-0.05129709839820862,0.9825626611709595,1.05925810689027,1.6229660320829755,0.3224036693572998,0.9812514781951904,0.9729385235350739,1.7008432374845313,0.0667402595281601,0.9867019057273865,1.15354237374988,1.1001970857815635,-0.23940543830394745,0.9785483479499817,0.8885329091524452,1.1415500583463511,-0.2820013165473938,0.9133831262588501,0.010914057493209839,1.0141348216485675,1.1213660563850054,175.85916207810746,179.56713671851927,1.0,-0.025641344650862912,0.010815576394975459,-0.012466033358230773,0.07959579877848214,96.45432331143509,0.9226586294548583,92,3.066666666666667
0.9931271264779119,0.6161122339332252,-0.4311040937900543,0.9999904036521912,1.0901626327976275,0.758292631329859,-0.16196982562541962,0.9999970197677612,0.9078145699913658,0.7785418256672535,-0.19479502737522125,0.9999879598617554,1.0655817733207285,1.121022572782886,0.01783844269812107,0.9999924898147583,0.9521283593911821,1.1245154079197304,-0.01800299622118473,0.9999920129776001,1.0718570510022258,1.3988780802054213,0.050038207322359085,0.9841716289520264,0.9631497490042267,1.414044489762146,-0.05011626332998276,0.9839223027229309,1.058952587397395,1.6161122339332252,0.3342379927635193,0.9804580807685852,0.9725784901930922,1.7010949871933672,0.07528056204319,0.9877614974975586,1.1485435081114603,1.1080052510905374,-0.2503505051136017,0.9802677631378174,0.8820458178074237,1.1514511985988913,-0.30202895402908325,0.9216995239257812,0.00983881950378418,1.0088550663559552,1.1227689903513083,175.30663972191027,179.70131346117532,1.0,-0.03651838904324436,0.01544241291433736,-0.08395937993741016,0.03571394933181425,95.64017512272189,0.9459200663417024,93,3.1
1.0027853009780698,0.6217475138687932,-0.447070837020874,0.9999908208847046,1.0994993607037993,0.7671088372305456,-0.1742430478334427,0.999997079372406,0.9108704928128512,0.7851373996592903,-0.19791893661022186,0.999988853931427,1.0755421978931399,1.1368353261850312,0.016850538551807404,0.9999924302101135,0.9576513739469484,1.1385640694932717,-0.01700737327337265,0.999992311000824,1.0844727351526529,1.4180040256671653,0.04312588647007942,0.9843039512634277,0.9728710542914014,1.4313340526811842,-0.048556163907051086,0.9849785566329956,1.0717697173419676,1.6217475138687933,0.33904990553855896,0.9779573678970337,0.9840441547526231,1.722977231324943,0.0817413330078125,0.9886356592178345,1.1578674389354844,1.1264615011136487,-0.26382240653038025,0.981597363948822,0.8814286129171343,1.1676329955774256,-0.3044162094593048,0.9292688965797424,0.008658260107040405,1.0165967859200442,1.1376996978391516,174.61310694440053,179.21812877712102,1.0,-0.031237317201423066,0.013409637824754446,0.043556321716128124,-0.01688961500575782,94.54753235679823,0.9651310680391859,94,3.1333333333333333
0.9996080306069532,0.6175050494333827,-0.431546688079834,0.9999911189079285,1.093502393089341,0.7661113983831898,-0.16510173678398132,0.9999971389770508,0.9043362907759718,0.7836391541542187,-0.1969328075647354,0.9999896287918091,1.0706355493991744,1.1368899654843836,0.01790754497051239,0.9999924302101135,0.9520810755070008,1.1380256541953677,-0.01808411441743374,0.9999926090240479,1.0835622971674588,1.4156215388947666,0.043040238320827484,0.9843858480453491,0.9683096618937086,1.4294958300653724,-0.048968881368637085,0.9858568906784058,1.0711449546815213,1.6175050494333827,0.33083170652389526,0.9764935970306396,0.9828672502228493,1.7217893585608346,0.07700885832309723,0.9894117712974548,1.1519055227960724,1.1325089561133095,-0.2387515753507614,0.982771098613739,0.8750171041189693,1.1665584232084552,-0.29783356189727783,0.9360067248344421,0.008429169654846191,1.0113583124530876,1.1374578098398758,173.8250094852854,179.664396957328,1.0,-0.03109944831421522,0.010471063617508623,0.0007695646119053464,-0.02352442797568965,94.07795082557075,0.9768304740581936,95,3.1666666666666665
0.995201557625914,0.6122046492863608,-0.4763602316379547,0.9999916553497314,1.0910699187088575,0.7672026891201109,-0.19526197016239166,0.9999972581863403,0.8955625404547586,0.7836612708815941,-0.22316968441009521,0.9999904036521912,1.0652481357356893,1.1383638237069593,0.01738986000418663,0.9999927878379822,0.9445448895417821,1.1398213101543055,-0.017568273469805717,0.999993085861206,1.0840519783554032,1.4229010361374366,0.035317353904247284,0.9837586879730225,0.9601257331418268,1.4338618595757715,-0.04929131269454956,0.986269474029541,1.0714974976284715,1.6122046492863606,0.3803907632827759,0.9700647592544556,0.9826805310638028,1.7216146367670688,0.11779240518808365,0.9898485541343689,1.1469496492516675,1.1597784541301273,-0.23974665999412537,0.9824890494346619,0.8553799996629803,1.1721682660235537,-0.3211689293384552,0.9415841102600098,0.007917463779449463,1.0048965126387357,1.1390925669306324,172.4248066571984,178.55136938909223,1.0,-0.045977294757352176,0.014875361475282897,-0.11135290212092736,0.0329668109676156,94.67148137860775,0.9975233199978333,96,3.2
0.9916067415709472,0.6094633708684213,-0.45951882004737854,0.9999921321868896,1.0900860062776578,0.767188426488282,-0.18075509369373322,0.9999973177909851,0.8935400489923986,0.7818741372120189,-0.21555586159229279,0.9999911189079285,1.0613012852999095,1.1405921391174645,0.018696051090955734,0.9999930262565613,0.9415825722104909,1.1419189314648057,-0.018873687833547592,0.9999935030937195,1.0847917123575597,1.4260789287312445,0.03830265253782272,0.9832484722137451,0.9565748800461239,1.4363659334644032,-0.05019436404109001,0.9867758750915527,1.070649866407721,1.6094633708684214,0.38650569319725037,0.9655303955078125,0.9819395545000972,1.7211475435306927,0.11594472080469131,0.9902798533439636,1.1433311475986228,1.1675460674076623,-0.22475668787956238,0.9829574227333069,0.8451510642287213,1.1711234670221782,-0.318306028842926,0.946975827217102,0.007070422172546387,1.0014419287552003,1.141255535291135,170.8864994850494,177.8250634234575,1.0,-0.020516394498457297,0.024172446907904602,0.19835639812555403,0.07263295896635982,95.04302394394979,1.013803957609388,97,3.2333333333333334
0.988261425391294,0.6055769581978016,-0.4736410677433014,0.9999924898147583,1.086360854306826,0.7646295971806097,-0.19031327962875366,0.9999973177909851,0.8897346086072351,0.7777710183270236,-0.2216021716594696,0.999991774559021,1.0554208601311965,1.1376612190703712,0.018070900812745094,0.9999932050704956,0.935611892081324,1.1386596297082385,-0.01824631169438362,0.9999938607215881,1.0814233428925404,1.4207541325883404,0.03873636573553085,0.9826035499572754,0.9519200062192431,1.433061693904648,-0.050018370151519775,0.9870902299880981,1.0673721723421374,1.6055769581978014,0.3787246346473694,0.9622822999954224,0.9786534968434873,1.716091921400613,0.12128210067749023,0.990616500377655,1.137559539381136,1.161187233769503,-0.22961612045764923,0.982326090335846,0.8409257047241568,1.1667944243991768,-0.32546988129615784,0.9517824649810791,0.006347686052322388,0.9955163761062602,1.1381604243893049,170.40447418458024,177.77476524603478,1.0,-0.019555278294510814,0.004703701249901308,0.006596648369081725,-0.1430701845577396,95.21882968433712,1.0176424446725325,98,3.2666666666666666
0.9869263657185235,0.6029270620400843,-0.48420390486717224,0.999992847442627,1.0827434626288552,0.7628064196514354,-0.19224780797958374,0.9999972581863403,0.8870578985960799,0.7738562770630989,-0.2353685349225998,0.999992311000824,1.0502880574942963,1.1354895746282878,0.019919754937291145,0.9999933242797852,0.9314914257405557,1.1362395730278316,-0.02008303627371788,0.999994158744812,1.0787689143145296,1.4182095474845506,0.053886450827121735,0.9817131757736206,0.9502019898841318,1.4315422094470251,-0.04693891108036041,0.9873343110084534,1.0648635352550955,1.6029270620400844,0.40213602781295776,0.9583265781402588,0.975983923540544,1.7118592819811778,0.13379713892936707,0.9908228516578674,1.1316572206920767,1.1577223735405686,-0.23091307282447815,0.9801936745643616,0.8350502124667166,1.1626479621760493,-0.3307439684867859,0.9560045599937439,0.005349785089492798,0.9908897416174259,1.1358645738280597,169.94244359285466,178.37050278635346,1.0,-0.01930408659212786,0.002818185803055197,0.0017119272248954818,-0.015584713598038293,95.33881176582983,1.0202654843635517,99,3.3
0.9858633877718322,0.6014814843965502,-0.4694362282752991,0.9999932050704956,1.0795931691795266,0.7618194639349812,-0.18782347440719604,0.9999971985816956,0.8843319122236544,0.769029257921015,-0.21982881426811218,0.9999929070472717,1.0469100241666942,1.1344593496919795,0.017515189945697784,0.999993622303009,0.9264394038988671,1.134919538841772,-0.017693964764475822,0.9999945163726807,1.0773181720972143,1.419816713868234,0.0014711079420521855,0.9817618727684021,0.9487977466227072,1.4368992991277436,-0.03447621315717697,0.9873464703559875,1.0621348816611673,1.6014814843965501,0.3793577551841736,0.9529296159744263,0.9746372075102574,1.7105065905309011,0.16359518468379974,0.9908328056335449,1.125546044187259,1.1550902613916183,-0.20543789863586426,0.9772847294807434,0.8294807352056629,1.1588171540117316,-0.31659215688705444,0.9598193764686584,0.0034943819046020508,0.9866747140327806,1.1346894442668758,169.13982370199864,178.83939835903968,1.0,-0.023505030496281602,0.00035718023606600037,-0.03152067504174779,-0.018351942042456628,95.23128204180519,1.0209437533203176,100,3.3333333333333335
0.9777588593078363,0.5956286328091852,-0.440833181142807,0.9999934434890747,1.070572269131752,0.7552567943185169,-0.16901946067810059,0.999997079372406,0.8773128338246777,0.760091586015581,-0.1910543292760849,0.9999933838844299,1.0354474876115902,1.126250608202693,0.01507903914898634,0.9999938011169434,0.9162590513075823,1.1267167799231146,-0.01528285164386034,0.9999948143959045,1.0697419999597075,1.4087794860023333,-0.05092356726527214,0.9826561212539673,0.9408085844948453,1.4273799574242854,-0.033704452216625214,0.9876042604446411,1.054451982664468,1.5956286328091853,0.2697237730026245,0.9537781476974487,0.9676746297213165,1.6967772735791866,0.1762251853942871,0.9909950494766235,1.1118766952600787,1.144276240321412,-0.1892555207014084,0.9744049310684204,0.8194767716936819,1.1424553867680736,-0.28820934891700745,0.9634957909584045,0.0023601949214935303,0.9758532694595864,1.126483694062904,168.40092567179377,178.97284236612512,1.0,-0.02869307123606456,-0.0005853490158537968,-0.04095560233912479,-0.007187063707240388,95.63259660414795,1.019093088341385,101,3.3666666666666667
0.9563201861323546,0.5823998715338305,-0.40999478101730347,0.999993085861206,1.046927485537983,0.7394660373547456,-0.13244768977165222,0.999996542930603,0.859144132436942,0.7371040236140348,-0.15923205018043518,0.9999936819076538,1.010156677033944,1.1036464480827237,0.014003912918269634,0.9999938607215881,0.8944701153419431,1.1041728291179773,-0.014213742688298225,0.9999949932098389,1.0481317362174085,1.3804003415553596,-0.01796429418027401,0.9829854965209961,0.9209398180987964,1.4010543655044403,-0.03481753170490265,0.987711489200592,1.032863934032335,1.5823998715338305,0.2803485095500946,0.9561181664466858,0.94889676565837,1.6625107812983124,0.17403998970985413,0.9911985993385315,1.0837122941741262,1.1169976680805604,-0.17351648211479187,0.9684809446334839,0.8001479945588547,1.1056952537398301,-0.2584654688835144,0.9667195081710815,0.0011765658855438232,0.9523133961879435,1.1039096386003506,167.8645060896674,178.9916516963907,1.0,-0.03130787399189687,-0.0005440780906109597,-0.02467322695610149,0.00022891132321493856,96.02623609576062,1.002971708205646,102,3.4
0.9219542816985435,0.5596960267808461,-0.36461272835731506,0.999992847442627,1.0071350968365067,0.7107187428419107,-0.0951400101184845,0.9999960064888,0.8279446035291219,0.7091793173122914,-0.12028275430202484,0.9999938607215881,0.9721565977893801,1.0641923309710075,0.013217325322329998,0.9999937415122986,0.8604132637194427,1.0643074950711957,-0.013439205475151539,0.9999950528144836,1.0064902701913652,1.3315755614394127,-0.029129812493920326,0.9829824566841125,0.8878112416547858,1.3520513461102401,-0.03170659393072128,0.9873179197311401,0.9947797659676236,1.559696026780846,0.23309782147407532,0.9580268263816833,0.9158455070134129,1.6042971903075216,0.16479331254959106,0.9910934567451477,1.0413283336574006,1.0514386569419547,-0.175796240568161,0.9632185697555542,0.7713100608765742,1.0488363867782844,-0.22590121626853943,0.9695613980293274,0.0007951557636260986,0.9162849307544114,1.0642499130211016,169.74422061135581,179.09735791976087,1.0,-0.01583872139947726,-0.0024179952542232605,0.10875532368464583,-0.014345516482966692,95.71043897799176,0.9718195863493418,103,3.433333333333333
0.8980386027448092,0.544965394713909,-0.2664268910884857,0.9999915957450867,0.9796515295480229,0.6904848675666102,-0.019334498792886734,0.9999942183494568,0.8062989491912315,0.6867531751966401,-0.043163642287254333,0.9999939203262329,0.9482348774056437,1.0357886688068907,0.010565485805273056,0.999992847442627,0.8393557963151415,1.036092385712599,-0.010771694593131542,0.9999948143959045,0.9713166875628996,1.2986405266975143,-0.02603757381439209,0.9832128286361694,0.8653968503848468,1.3169359563259362,-0.021900931373238564,0.9870454668998718,0.969622124893879,1.544965394713909,0.1924123913049698,0.9604896903038025,0.8962356982621456,1.5643596475939348,0.16545459628105164,0.9909198880195618,1.0127043848355195,1.0110763902554214,-0.0683882087469101,0.9517861008644104,0.7527835468872109,1.0095637653699758,-0.11708803474903107,0.9722661972045898,0.001978069543838501,0.8937953368603926,1.0359405272597448,174.58740528574867,178.19287248070052,1.0,0.007005063347172648,-0.008432556807915926,0.16991453018866431,-0.046011779481604675,95.35843398990839,0.943858908371845,104,3.466666666666667
0.8798556101032171,0.533238398922253,-0.23935511708259583,0.9999897480010986,0.9586112221065911,0.6745732288816144,0.01088246051222086,0.9999917149543762,0.7900935730909137,0.6695058132410096,-0.02752271294593811,0.9999937415122986,0.929306726362805,1.0138716413693356,0.010660281404852867,0.9999914169311523,0.8226653473886198,1.0139762876936749,-0.010866299271583557,0.999994158744812,0.9475962601606762,1.276196844142243,-0.025940919294953346,0.9833759069442749,0.8496878923376584,1.290024038362241,-0.02383538708090782,0.9863758087158203,0.95013156521435,1.5345603573837208,0.17019367218017578,0.9629301428794861,0.8799114031171937,1.533238398922253,0.16484275460243225,0.9904074668884277,0.9920941905042273,0.9873412646067681,-0.04740652069449425,0.943554162979126,0.7379710014019853,0.9838910202162929,-0.1107046976685524,0.9747670888900757,0.002741992473602295,0.8759860368757124,1.0139239645315052,176.57396586746077,178.5072595479747,1.0,0.0031666256137740613,-0.006960061273063542,-0.028572511137862893,0.010055516461856122,94.99249119246885,0.9218716290648267,105,3.5
0.8776380758753483,0.5311157385684225,-0.1711275428533554,0.9999757409095764,0.9548270004646071,0.6705333940652778,0.05882590264081955,0.9999825358390808,0.7869244116327415,0.6647530208933671,0.02185039594769478,0.9999933838844299,0.9274568714308288,1.0079779607413346,0.01053024735301733,0.9999904036521912,0.8212140497308064,1.0095437508097944,-0.010740436613559723,0.9999939203262329,0.9421761109582072,1.2738308574337378,-0.04201355203986168,0.9820241928100586,0.8498036144001936,1.2869626666061764,-0.026278207078576088,0.9827911853790283,0.9486394164196937,1.5466662067648085,0.11645714193582535,0.9642338156700134,0.8791500398505326,1.5311157385684226,0.1443687528371811,0.988576352596283,0.9864106141101369,0.9738719904554253,-0.05010939761996269,0.8757555484771729,0.7377742679747432,0.9788571654860718,-0.08534789085388184,0.9765947461128235,0.00313645601272583,0.8743354605808176,1.0087608557755645,178.18804005173396,179.02998747719826,1.0,0.005916587849716434,-0.01802338605023823,0.021094982630076847,-0.08474454544548801,95.48146466919292,0.8985162359294532,106,3.533333333333333
0.8775490313249037,0.5298112331219359,-0.21453729271888733,0.9999664425849915,0.9534272139066708,0.6641096663694083,0.01958264783024788,0.9999780654907227,0.7850415071249606,0.6635526290313973,-0.01049022190272808,0.9999925494194031,0.9267119094045355,1.0064771770734269,0.00944092869758606,0.99998939037323,0.8205797323862309,1.0082805827128323,-0.00967213325202465,0.9999933838844299,0.9375500043302578,1.2787719026988065,-0.03992239013314247,0.9810699820518494,0.8487448368052274,1.288906077065644,-0.019315078854560852,0.9792500734329224,0.9474539263590716,1.5536669769058222,0.11035795509815216,0.9660189747810364,0.8777215834581631,1.529811233121936,0.15018662810325623,0.9868665337562561,0.987409563019127,0.9695886463548417,-0.08209584653377533,0.839728593826294,0.7377068260274654,0.9743529720075574,-0.11742421239614487,0.9781004786491394,0.0003026723861694336,0.8736458208953832,1.0073788798931296,179.78403058845254,178.87257779745133,1.0,0.004122125144860751,0.00017732333852580535,-0.013948896522329715,0.14193613977747754,95.43529044774533,0.8913814545948984,107,3.566666666666667
0.8778872289578549,0.5262396018719024,-0.18327514827251434,0.9999513626098633,0.9514623519707368,0.6623054604450488,0.031488336622714996,0.9999690651893616,0.7835549457539523,0.6609152951830385,0.006865309085696936,0.9999914765357971,0.9262311205834032,1.0039177533887536,0.00700435321778059,0.9999877214431763,0.8190715177812949,1.0061163222397167,-0.007256603799760342,0.9999924898147583,0.9314233106846451,1.2776268807599234,-0.05028286576271057,0.9773100018501282,0.8467832251057084,1.286119660037126,-0.021094519644975662,0.9675821661949158,0.9459416350556277,1.5640678995541852,0.026313725858926773,0.9671077132225037,0.8755902771603005,1.5262396018719024,0.11014767736196518,0.9814305901527405,0.9860744356181286,0.9585016025531414,-0.08635465800762177,0.7752100825309753,0.736947584269125,0.9718705208195113,-0.13442417979240417,0.978797972202301,0.0007571578025817871,0.8726513191823491,1.0050170378142351,178.18518965794698,178.81106503560002,1.0,0.008683785470891844,0.00022479724837088681,0.0368250721795959,0.0003858130389161888,95.39951325971619,0.8842516838133485,108,3.6
