nose_x,nose_y,nose_z,nose_visibility,left_shoulder_x,left_shoulder_y,left_shoulder_z,left_shoulder_visibility,right_shoulder_x,right_shoulder_y,right_shoulder_z,right_shoulder_visibility,left_hip_x,left_hip_y,left_hip_z,left_hip_visibility,right_hip_x,right_hip_y,right_hip_z,right_hip_visibility,left_knee_x,left_knee_y,left_knee_z,left_knee_visibility,right_knee_x,right_knee_y,right_knee_z,right_knee_visibility,left_ankle_x,left_ankle_y,left_ankle_z,left_ankle_visibility,right_ankle_x,right_ankle_y,right_ankle_z,right_ankle_visibility,left_wrist_x,left_wrist_y,left_wrist_z,left_wrist_visibility,right_wrist_x,right_wrist_y,right_wrist_z,right_wrist_visibility,trunk_lateral_inclination,center_mass_x,center_mass_y,left_knee_angle,right_knee_angle,person_height,center_mass_velocity_x,center_mass_velocity_y,center_mass_acceleration_x,center_mass_acceleration_y,body_orientation,torso_leg_ratio,frame,timestamp
0.9492271035100665,0.46698432182531807,-0.169236958026886,0.9997755289077759,0.8987328147656721,0.5746250973412795,0.059037625789642334,0.9999784231185913,0.8820535315957184,0.585381337303972,-0.3183579742908478,0.9998162388801575,0.9084748920579117,0.9324739651601649,0.12052887678146362,0.9999737739562988,0.8943476253604059,0.9364741323756067,-0.12069054692983627,0.9999657273292542,0.9104093491921162,1.2024491881187436,0.2132953703403473,0.8673316240310669,0.9061240217426805,1.224517969234492,-0.07856559008359909,0.9359117746353149,0.8981710277710206,1.466984321825318,0.33900323510169983,0.8585341572761536,0.888497929388251,1.5007984130990442,-0.011118805035948753,0.9565019607543945,0.9649507392553031,0.9744085706142633,0.05310104042291641,0.8428431153297424,0.9449865767956472,0.967408582754145,-0.468104749917984,0.4669937491416931,0.006310939788818359,0.9014112587091587,0.9344740487678859,176.94065013117415,174.00842168056747,1.0,0.29564231654995793,-0.23261084872776508,1.9273666794069315,-1.4069140260858264,104.25015360519394,0.8552269372862186,0,0.0
0.9650452620737602,0.4825771748573648,-0.15769486129283905,0.999786376953125,0.9000117765066956,0.5841478922635582,0.07389529049396515,0.9999730587005615,0.9085829040245695,0.595091211110411,-0.3263387680053711,0.9998342990875244,0.9207303706810437,0.9392752696458474,0.13062229752540588,0.9999686479568481,0.9229269990878373,0.9435151219643213,-0.13077141344547272,0.9999668598175049,0.9255344622940015,1.2167056978664896,0.22468790411949158,0.7923490405082703,0.9290438612892795,1.2425178377920496,-0.0860469788312912,0.9238426089286804,0.911943443843108,1.4825771748573648,0.3227105736732483,0.8026028275489807,0.9173971027727476,1.5140920364989066,-0.03430619835853577,0.9475125670433044,0.9568386897499972,0.9885027204763494,0.06435033679008484,0.7668806910514832,0.9701285808586313,0.9884023102613662,-0.43492165207862854,0.5201738476753235,0.006314188241958618,0.9218286848844405,0.9413951958050844,176.0816018489184,176.37234454590282,1.0,0.0409616516023091,-0.0695038782165986,-2.0410068173765956,1.3128740390655849,155.95066812055282,0.8273958191902613,1,0.03333333333333333
0.9736726545859405,0.48473452624398056,-0.1492341160774231,0.9997995495796204,0.8964347113185761,0.5884876778681201,0.07202700525522232,0.9999703168869019,0.9157724440787112,0.5981560769274346,-0.32796230912208557,0.9998506903648376,0.9206572959855434,0.9459190981581799,0.13080528378486633,0.999966025352478,0.9277477979975929,0.9476301152085852,-0.13094201683998108,0.9999686479568481,0.9322575471133312,1.2130306057188325,0.23971585929393768,0.7240407466888428,0.9360611226467219,1.2370352112167782,-0.0989149957895279,0.9170745611190796,0.9167664872449214,1.4847345262439806,0.3214489221572876,0.7532386779785156,0.9234948675979053,1.5181020588023473,-0.07208378612995148,0.9430151581764221,0.9606712719915305,0.995742759864479,0.05803971737623215,0.6979633569717407,0.9792179864903802,0.9974546077073343,-0.4364205002784729,0.5680744647979736,0.005549222230911255,0.9242025469915681,0.9467746066833825,174.25013621436023,175.79465904594213,1.0,-0.020552865486133824,0.003289465239286368,-0.5071617540599975,0.6010648964293565,107.44366316887357,0.8377755273095218,2,0.06666666666666667
0.981185180620799,0.49280354641635016,-0.13917121291160583,0.9998146891593933,0.8983089088599419,0.5980491650072445,0.09481802582740784,0.9999681115150452,0.9238709274467282,0.6056796777524663,-0.33671998977661133,0.9998654723167419,0.9262169637697881,0.9550903863755306,0.14131386578083038,0.999965488910675,0.9366709569568827,0.9571147033296802,-0.1414380669593811,0.9999707937240601,0.9404425139885049,1.2233556105657253,0.2623801529407501,0.6630864143371582,0.9438313612040814,1.2460481438888305,-0.10758857429027557,0.9153810739517212,0.925173628904358,1.49280354641635,0.3601197600364685,0.7088561654090881,0.9350773457376585,1.5302636275399324,-0.07681223750114441,0.9410532116889954,0.963636803773611,1.0043590354622771,0.0871228277683258,0.6353915929794312,0.9865523399687167,1.007877199192914,-0.4406241774559021,0.611186683177948,0.004340052604675293,0.9314439603633354,0.9561025448526054,173.72123826692726,176.8161872528275,1.0,-0.008754743087284751,0.005280917956411001,0.0894311611428943,0.014636276437909695,105.42857771077429,0.8389137636787446,3,0.1
0.984548537781329,0.4882286787275126,-0.17689010500907898,0.999828040599823,0.902297339166059,0.5983873705110122,0.07744631916284561,0.9999678134918213,0.9217423080262436,0.6056067544258287,-0.3656619191169739,0.9998787641525269,0.9266850027909747,0.9560454375804406,0.14580599963665009,0.999966025352478,0.9370707923522736,0.9578575668685086,-0.14589962363243103,0.999972939491272,0.940230281474756,1.2233769498768414,0.2789344787597656,0.6037548184394836,0.9451930970365786,1.2486984490376103,-0.11418981850147247,0.9128795862197876,0.9254354174549277,1.4882286787275125,0.400794118642807,0.6624126434326172,0.9349572702911034,1.5307834310056558,-0.07138381153345108,0.9380040764808655,0.9698803719056873,1.0034507690991297,0.0823449045419693,0.5797778964042664,0.9864478571901275,1.009090356054796,-0.4754956364631653,0.6499725580215454,0.00410616397857666,0.9318778975716241,0.9569515022244747,173.90211837763206,176.3221768690436,1.0,0.0032303692265484773,0.006397907931718348,0.09153831258459832,0.008530649961234007,103.79821854488809,0.8536155701518434,4,0.13333333333333333
0.9853401397057775,0.48610899113776596,-0.17720705270767212,0.9998399615287781,0.9030339334581835,0.5986635361882245,0.06871025264263153,0.9999682903289795,0.9228661909166923,0.6069446238268045,-0.37113574147224426,0.9998907446861267,0.9252797805701787,0.956015806428076,0.14578059315681458,0.9999669790267944,0.9361945565234748,0.9580070205130484,-0.14586199820041656,0.9999750256538391,0.9386325724632515,1.2197846838588584,0.29165583848953247,0.5510289072990417,0.9456255142100183,1.2458197503612574,-0.15261130034923553,0.9153822660446167,0.9252383712007166,1.4861089911377658,0.41385093331336975,0.6245247721672058,0.9359286978881431,1.5312242370821638,-0.14482039213180542,0.9385733604431152,0.9685885296675593,1.0037376411378078,0.06572999060153961,0.5315365791320801,0.9869458797362883,1.010622918523973,-0.4942623972892761,0.6848861575126648,0.004708319902420044,0.9307371685468268,0.9570114134705623,174.2228446266758,176.17730579129875,1.0,-0.010904505230725895,-0.002118753018885637,-0.10423120248819459,-0.0628141532886997,103.90110841243158,0.859333938274755,5,0.16666666666666666
0.9816547460891143,0.48277626572041876,-0.18996772170066833,0.9998428821563721,0.9038261747142332,0.5961301087005714,0.057121556252241135,0.9999681711196899,0.9157725211273774,0.6044781234116852,-0.3748153746128082,0.9999014735221863,0.9221978934713208,0.9516507095475821,0.14217880368232727,0.9999668598175049,0.9315289702110752,0.9524090552785911,-0.14224538207054138,0.9999765753746033,0.9346877349113968,1.213174440554292,0.2760465741157532,0.5028378367424011,0.940682361869032,1.2387672518042423,-0.16261622309684753,0.9163247346878052,0.9212072626010642,1.4827762657204189,0.3918853998184204,0.5889663100242615,0.9331714610406405,1.5261389423217209,-0.15874044597148895,0.937587320804596,0.9694250640049956,0.9964812194332984,0.05569731071591377,0.48945435881614685,0.9814536758966689,1.0077884424206116,-0.4865248203277588,0.7162650227546692,0.004766196012496948,0.926863431841198,0.9520298824130866,174.40326162703437,176.67200100110455,1.0,-1.980257589335818e-05,-0.007750485724139247,0.08392036221173052,-0.04367020909226466,97.60443153996417,0.8552068979954979,6,0.2
0.9808361880108286,0.48220701151618867,-0.17619138956069946,0.999851405620575,0.89849945844878,0.5950996921579976,0.0729915052652359,0.9999681115150452,0.9131380393714953,0.6033238516933759,-0.3650852143764496,0.9999111294746399,0.9210443902155144,0.9511982872508126,0.14459310472011566,0.9999668002128601,0.9295469710044375,0.9519548803353892,-0.14468011260032654,0.9999779462814331,0.9330725634871053,1.2123127214599068,0.27162671089172363,0.4613279700279236,0.9392917148785056,1.2365925760827494,-0.14120762050151825,0.9156458973884583,0.9195907020013664,1.4822070115161887,0.38617411255836487,0.5576496720314026,0.9300012811337247,1.5232172534483155,-0.11238924413919449,0.9347942471504211,0.9669461768057278,0.994220727097312,0.07646737992763519,0.4525715410709381,0.9796772803828626,1.0053564310438239,-0.4680469036102295,0.7445096969604492,0.004704415798187256,0.9252956806099759,0.951576583793101,174.5028647802733,176.18271838200766,1.0,0.001451814938409165,0.0102264255171227,0.011110027423089634,0.13560966816401462,98.70762465845193,0.8575794310756821,7,0.23333333333333334
0.98110406889212,0.4843657024686819,-0.130636066198349,0.9998603463172913,0.8921901739866142,0.5956667437583241,0.11074455827474594,0.9999667406082153,0.9133624364325968,0.6032709439702384,-0.33717918395996094,0.9999198317527771,0.9207801161668291,0.9526620926774405,0.14549463987350464,0.9999669194221497,0.9304609457640652,0.9529523977337657,-0.14561161398887634,0.9999793171882629,0.9330440980778857,1.2153672241735958,0.26973047852516174,0.4231697916984558,0.937498394647425,1.2400822294803118,-0.11550489813089371,0.9132477641105652,0.9199029489148025,1.4843657024686818,0.3930248022079468,0.5250912308692932,0.9270766932086696,1.524432385102474,-0.06570381671190262,0.9296340942382812,0.9620560558640293,0.9940282707733404,0.1184893250465393,0.41565147042274475,0.9793691158455241,1.005142703014124,-0.43425193428993225,0.7699549198150635,0.004349708557128906,0.9256205309654472,0.9528072452056031,174.53037835872829,176.49697730682777,1.0,0.0024347561230792423,0.0095742696483489,0.007751159911535618,-0.0051442281976365216,96.29640497815818,0.8551811306794317,8,0.26666666666666666
0.98109545996203,0.48450067088764637,-0.1852954924106598,0.9998691082000732,0.8963206999333804,0.5959773326508038,0.09275326877832413,0.9999670386314392,0.9107771558325523,0.6035410565516062,-0.387212336063385,0.9999276995658875,0.923229914812386,0.9538732684374208,0.14589667320251465,0.999967634677887,0.9292168181680753,0.9535343320367357,-0.14597728848457336,0.9999806880950928,0.9334808903883225,1.2150595771166324,0.2700979709625244,0.39008352160453796,0.9375389526646282,1.2396659844846154,-0.11757563054561615,0.9149458408355713,0.9206106902062914,1.4845006708876465,0.4043330252170563,0.5021253228187561,0.9261968333269042,1.523251600069643,-0.06263438612222672,0.9284327030181885,0.9641373802749649,0.9915572412599551,0.07778678834438324,0.38551631569862366,0.9790113816323786,1.0057437782599041,-0.4804415702819824,0.7928940653800964,0.004324287176132202,0.9262233664902307,0.9537038002370782,175.01769505142835,176.04367609791447,1.0,0.0008901957170581137,0.0030112353789019126,-0.011732636044229604,-0.049850396880859404,91.05959666396389,0.8586275100243882,9,0.3
0.9771825886890765,0.48321413559626414,-0.16191811859607697,0.9998756051063538,0.8888551005084306,0.5939363101752505,0.09224683046340942,0.9999660849571228,0.9113979306207487,0.6023940877853009,-0.3631759583950043,0.9999347925186157,0.9190261346645099,0.9520809220722942,0.1468997746706009,0.9999672770500183,0.9293664201508766,0.9522094937425417,-0.14698880910873413,0.9999817609786987,0.9305010781541376,1.2133508405958542,0.2662273347377777,0.3589821755886078,0.9363908058242446,1.2381914078207492,-0.11263249814510345,0.9150622487068176,0.9192966036517998,1.483214135596264,0.3922308683395386,0.4783143401145935,0.9267166985710066,1.5221902990852934,-0.05507341027259827,0.9262189865112305,0.9570717932234402,0.9885992324739766,0.10289251804351807,0.3531123399734497,0.9775522712810188,1.0041191344055447,-0.4598996639251709,0.813554048538208,0.0048423707485198975,0.9241962774076932,0.952145207907418,175.10769010846903,176.6420015452499,1.0,-0.005502961235773244,-0.0015076942681834277,-0.05028168826519224,-0.03551417744791535,95.5277578913362,0.8571547243175927,10,0.3333333333333333
0.973364081153119,0.4821518887720394,-0.16916365921497345,0.9998833537101746,0.8852918207676237,0.5923928457831447,0.09021814912557602,0.9999661445617676,0.9081875019357462,0.6013729440041362,-0.3632306158542633,0.9999411702156067,0.916147445725569,0.9492908437767649,0.14737436175346375,0.9999669194221497,0.9255466248810084,0.9491687199194128,-0.14744308590888977,0.9999826550483704,0.9286733899118534,1.2099105222257898,0.2575674057006836,0.3312666714191437,0.9334002161187617,1.2351502136415253,-0.12164924293756485,0.9150727391242981,0.9181681442148907,1.4821518887720395,0.38130101561546326,0.45248186588287354,0.9247493438955425,1.5185875468009593,-0.0698099136352539,0.9223416447639465,0.9568378283887957,0.9852775383980701,0.09894530475139618,0.32866767048835754,0.9748426410233544,1.0006267537470988,-0.4649566113948822,0.8321471810340881,0.005158662796020508,0.9208470353032887,0.9492297818480888,175.0385263579467,176.67874695844827,1.0,-0.002027798144577628,0.0020897867791671142,0.026995828146762768,0.028055383415100443,94.1968172842479,0.8528129733383663,11,0.36666666666666664
0.976072045286607,0.4828906586494337,-0.2075200378894806,0.9998902678489685,0.8897304644938584,0.5927072282584168,0.06389132142066956,0.9999663829803467,0.9095058158699867,0.6028570023265976,-0.3914852738380432,0.9999468922615051,0.9200478796183856,0.9508377061457572,0.14622443914413452,0.9999669790267944,0.9272584187081154,0.9514053693304653,-0.14628544449806213,0.999983549118042,0.9325866952394283,1.2108233892622127,0.2623095214366913,0.30503609776496887,0.9369057812216312,1.2378198863675358,-0.11056782305240631,0.9129552245140076,0.9208455612981612,1.4828906586494337,0.3977780342102051,0.42677849531173706,0.9268141876905166,1.5193715711698228,-0.03696310520172119,0.9166437387466431,0.9608243771354961,0.9874331079803731,0.08241381496191025,0.3038893938064575,0.9763503135925748,1.0027177953829507,-0.47412872314453125,0.8488588333129883,0.005817800760269165,0.9236531491632506,0.9511215377381113,174.76774780641625,176.0180622178475,1.0,0.005842485866188023,-0.001455182982363054,0.05883537059357989,-0.02652022037135797,99.34025091275409,0.8566294412871348,12,0.4
0.9731901906999989,0.47813538561928115,-0.22836773097515106,0.9998968839645386,0.8874476372531522,0.5880398915568523,0.0403570756316185,0.9999671578407288,0.9056120095873393,0.60060125046665,-0.40505585074424744,0.9999520778656006,0.9172106339620905,0.9470167459220331,0.14504091441631317,0.999967098236084,0.9234530175389939,0.9477931313674023,-0.1451033502817154,0.9999843239784241,0.9314233277138407,1.2051735606502028,0.2681172788143158,0.2804999053478241,0.9354001914068403,1.2335199726218156,-0.09707681089639664,0.9070152640342712,0.918739878021151,1.4781353856192812,0.4117768406867981,0.4007592499256134,0.9248519830631686,1.5136302232934704,-0.00828494317829609,0.9072235226631165,0.9581169538494768,0.984149444922236,0.07370876520872116,0.2804250121116638,0.9733766434321066,0.9993168927418998,-0.4799932539463043,0.863877534866333,0.007224023342132568,0.9203318257505422,0.9474049386447176,174.1883975645559,175.44908284548822,1.0,-0.0020519656761602938,-0.0044200526119216235,-0.061275480953489496,-0.02310684728408151,101.8292438576083,0.8609900121695743,13,0.43333333333333335
0.9751192252261011,0.4794210550149792,-0.23200242221355438,0.9999040365219116,0.8891281217815213,0.5883120952688389,0.03538279980421066,0.9999686479568481,0.9072580628409068,0.6015491697337639,-0.40585070848464966,0.9999567866325378,0.9198962068534303,0.948638636742267,0.14465728402137756,0.9999674558639526,0.9252717803372581,0.9499002700042667,-0.14472295343875885,0.9999850988388062,0.936301386082836,1.2047722080482792,0.27239590883255005,0.25907212495803833,0.9412350192085663,1.232128472010167,-0.12411323934793472,0.9066753387451172,0.9211544126108901,1.4794210550149793,0.41800564527511597,0.3789197504520416,0.9264010911512635,1.5166504015996682,-0.05767948180437088,0.9031685590744019,0.960676240413893,0.9857419965691718,0.06453268229961395,0.2665036618709564,0.9753196823097974,1.0005588909675491,-0.507637619972229,0.8773975372314453,0.007596403360366821,0.9225839935953443,0.9492694533732668,173.17856743956992,173.77822716463493,1.0,0.0022329781731211186,-0.0012370375459065906,0.03341183781143808,0.02486772440432733,108.0887371311132,0.8615210921265554,14,0.4666666666666667
0.9716162636231952,0.4788298104568314,-0.16255296766757965,0.9999115467071533,0.8809341749742045,0.5864004464468785,0.08695604652166367,0.9999695420265198,0.9065658302035521,0.5998317539795202,-0.37448638677597046,0.9999610185623169,0.9121971581986875,0.9454048032183278,0.14612573385238647,0.9999670386314392,0.9228478033678614,0.9471564382502828,-0.14621925354003906,0.9999856948852539,0.9340893341115156,1.2004763121781248,0.25782454013824463,0.23988951742649078,0.9436212732061869,1.2282034054725988,-0.125827819108963,0.904604971408844,0.918427863289002,1.4788298104568314,0.3692752420902252,0.3574899435043335,0.9231130080570034,1.5126260628380817,-0.07522968202829361,0.897747278213501,0.9475692090003491,0.9827750538176013,0.09514089673757553,0.24872398376464844,0.971822131222576,0.997361725940933,-0.46159833669662476,0.889606773853302,0.007730841636657715,0.9175224807832745,0.9462806207343053,171.87412901482062,171.64852494904838,1.0,-0.016456488456591895,-0.0011914665123685245,-0.13252629520984224,0.0002971815756757709,104.3163218691491,0.8564252959029698,15,0.5
0.9684893375391068,0.4772500222362873,-0.16443344950675964,0.9999173283576965,0.8785933775824708,0.5840855729678934,0.08906860649585724,0.999970018863678,0.9046786953164578,0.5975218076748062,-0.3690566420555115,0.9999648332595825,0.9066971572356879,0.9414651715287866,0.14689777791500092,0.9999663233757019,0.9185687823151262,0.9432505713759041,-0.1469903141260147,0.9999861121177673,0.9318949828490549,1.1962537850028165,0.25673145055770874,0.22215904295444489,0.9416022244021661,1.2233462196378,-0.12552760541439056,0.9018831253051758,0.9146651988568615,1.4772500222362872,0.3706337809562683,0.3376058340072632,0.9187535819758456,1.506529527855945,-0.07565692067146301,0.8919863700866699,0.9452309802399972,0.978692093807484,0.09564514458179474,0.23304837942123413,0.9671083931994343,0.9905877469678083,-0.46373119950294495,0.9005882740020752,0.00776594877243042,0.9126329697754071,0.9423578714523454,170.84318645592398,170.68598866257275,1.0,-0.008354235371352738,7.360912265138648e-05,0.062331184501750715,0.009776741172163636,103.04913968456675,0.8524263399996159,16,0.5333333333333333
0.9663197988258267,0.47775949515026545,-0.1526826024055481,0.9999184608459473,0.8751348688960335,0.5819424181446189,0.09504823386669159,0.9999693036079407,0.9041066487669908,0.5951233173609672,-0.3594677150249481,0.9999682307243347,0.8955303939496576,0.9403482549561816,0.14721491932868958,0.9999656677246094,0.9135849051178189,0.942531421140747,-0.14730432629585266,0.9999865293502808,0.9290947511377461,1.1915158863389748,0.2630622386932373,0.2056710124015808,0.9411859671853424,1.2185878453778558,-0.126671701669693,0.8995500802993774,0.9112903109856454,1.4777594951502655,0.3833003640174866,0.3201299011707306,0.9150798881900137,1.5005741877005319,-0.07220687717199326,0.8857669830322266,0.9374604738881699,0.9746214376690547,0.10219274461269379,0.2156636267900467,0.9628908989965733,0.9860414158682024,-0.46362143754959106,0.9104657173156738,0.0076499879360198975,0.9045576495337382,0.9414398380484643,168.8292414938638,169.0010259052162,1.0,-0.0330302428185423,0.022850627997004724,-0.1896728545627455,0.17483390913590915,100.15175168313606,0.853921972487646,17,0.5666666666666667
0.9645564228801099,0.47954070230229934,-0.11797986924648285,0.99992436170578,0.8721136452401734,0.5807363557795452,0.1169477328658104,0.9999697804450989,0.9041387563510797,0.5940097624485875,-0.3332260251045227,0.999971330165863,0.8827317351728033,0.9430519391411386,0.147563174366951,0.9999664425849915,0.9071502572406945,0.9450054946952594,-0.1476755142211914,0.9999872446060181,0.9272508086779189,1.1891804669450754,0.2656143605709076,0.19769898056983948,0.939721712106664,1.217701332695471,-0.11986390501260757,0.9041950702667236,0.9123981703274567,1.4795407023022993,0.38520631194114685,0.3184845745563507,0.9156332919399283,1.5013380861448105,-0.07003472745418549,0.8901712894439697,0.9123923287228726,0.9722312664608987,0.12212619930505753,0.20196384191513062,0.9603027098998698,0.984458052308597,-0.4361279606819153,0.9193847179412842,0.00771978497505188,0.8949409962067489,0.944028716918199,166.81907595086165,168.33441067088364,1.0,-0.057337824302166183,0.033776475024319165,-0.18083045697696914,0.08140412109227146,96.25273393520075,0.8590397116182774,18,0.6
0.9732774261698729,0.488387365876399,-0.14522914588451385,0.9999274015426636,0.8804806948535536,0.58904500251169,0.10338108241558075,0.9999704360961914,0.9139911077134065,0.6006312154642623,-0.34669631719589233,0.9999740719795227,0.8886183122217932,0.9577694643062377,0.14784620702266693,0.9999669790267944,0.9097352071789137,0.9610950710181965,-0.14795681834220886,0.9999877214431763,0.9355116293184603,1.2012097435493472,0.29720357060432434,0.18421491980552673,0.9493920677084476,1.2310719169812199,-0.11070547997951508,0.904349148273468,0.9203484082083837,1.488387365876399,0.44161686301231384,0.3055391013622284,0.924236013631568,1.5134961046206057,-0.05033296346664429,0.8897876739501953,0.9269295784105716,0.9800385599299568,0.10675738006830215,0.1887683868408203,0.9677024816013864,0.9960145096909911,-0.44008564949035645,0.9273494482040405,0.006684750318527222,0.8991767597003535,0.9594322676622171,166.07433938259427,166.55357992874488,1.0,-0.022677877967751454,0.05979248909547915,0.268862948035206,0.19708084508913887,100.21404532187051,0.8797673380808266,19,0.6333333333333333
0.9881690455649718,0.504450903758541,-0.1654280722141266,0.9999289512634277,0.8974961512189722,0.5976317724446079,0.07418085634708405,0.999971330165863,0.925064076720776,0.6108492280504593,-0.36763328313827515,0.9999765157699585,0.8983513430522453,0.9720788430888009,0.14744500815868378,0.9999677538871765,0.9098281260770843,0.9779598013882768,-0.14755378663539886,0.9999880790710449,0.9468912084859094,1.2160546913350727,0.29168426990509033,0.17252065241336823,0.9590819743358895,1.2486148566081012,-0.09431226551532745,0.900954008102417,0.9304662612826207,1.504450903758541,0.4348543584346771,0.2935341000556946,0.9334100304351368,1.5301589854675877,-0.018475275486707687,0.8859342932701111,0.9393809154772175,0.9917553574823019,0.10149465501308441,0.17919018864631653,0.9781617971144064,1.0112435583834494,-0.4802308976650238,0.934459924697876,0.007542967796325684,0.9040897345646648,0.9750193222385388,165.48810035710943,164.47619584418672,1.0,-0.03694339284169219,0.03741426129992558,-0.1041008176068525,-0.17109067540343026,117.26246514779208,0.880329937943631,20,0.6666666666666666
1.0052473067391763,0.5221107244794627,-0.16102571785449982,0.999930202960968,0.9110565422064574,0.6123306628693256,0.07285922765731812,0.9999719858169556,0.9406147616059781,0.6224947798377869,-0.3662252128124237,0.9999787211418152,0.9041050037044606,0.9889816506178846,0.14712730050086975,0.9999686479568481,0.9148095771814119,0.9970189701610226,-0.14722998440265656,0.9999884366989136,0.9646385666674322,1.2323013721796017,0.3016124367713928,0.16354164481163025,0.9714411012994556,1.2661298012078839,-0.0821489542722702,0.8996249437332153,0.9436051041868289,1.5221107244794627,0.4491347372531891,0.28726762533187866,0.9456774009068706,1.550377330077119,-0.007634261157363653,0.8859318494796753,0.9524701994905719,1.0099344732199937,0.10900964587926865,0.17244964838027954,0.9909184892743141,1.027343056753013,-0.4747888445854187,0.9408308267593384,0.005724728107452393,0.9094572904429362,0.9930003103894536,161.87838597077337,162.93707208424485,1.0,-0.05065042724462317,0.03900078021976603,-0.10150244895651453,0.008381086553639823,125.84299573246793,0.882711629129822,21,0.7
1.0215375994139393,0.53698498176946,-0.11140532791614532,0.9999335408210754,0.9211284657814585,0.6242918727992951,0.09708616137504578,0.9999716281890869,0.9591851253577289,0.6351364617316754,-0.33299383521080017,0.9999807476997375,0.9049829573051894,1.003931212224893,0.14645351469516754,0.9999695420265198,0.9226521550150836,1.0117136280350274,-0.1465943157672882,0.9999889135360718,0.9734771893659224,1.248343185576568,0.2915315330028534,0.16503188014030457,0.980429715828326,1.2789550893025672,-0.07374710589647293,0.9054087996482849,0.9531316011801114,1.5369849817694599,0.40874284505844116,0.3092726767063141,0.9541590018425488,1.5651876533743725,-0.022658314555883408,0.8941202759742737,0.9450371623573985,0.9877783331262794,0.16081953048706055,0.16206131875514984,1.000189820230521,1.0431760374871988,-0.44920969009399414,0.9465982913970947,0.006051152944564819,0.9138175561601365,1.0078224201299602,160.3129975629706,162.5564549005206,1.0,-0.030504491465587764,0.04008243428399741,0.150418425228959,0.005217751594715822,111.33590142545543,0.8866928793320854,22,0.7333333333333333
1.0292307780233876,0.5515809380975688,0.025026744231581688,0.9999357461929321,0.9295586257333116,0.6454405142905391,0.14242812991142273,0.9999728202819824,0.98072445684823,0.6495297413180959,-0.24987336993217468,0.9999825358390808,0.9009021715934403,1.0150158844873567,0.13886669278144836,0.9999710321426392,0.9284410341582526,1.0243074010895332,-0.13904191553592682,0.9999894499778748,0.9824244598567986,1.2690854048514302,0.2518364489078522,0.17972226440906525,0.9896329470827291,1.2945260334460091,-0.06764654815196991,0.9103132486343384,0.9619032183380775,1.551580938097569,0.31882885098457336,0.32928723096847534,0.9624900509655834,1.580504928391215,-0.028186356648802757,0.8994499444961548,0.9204649845209685,1.0301522195526118,0.1547812819480896,0.1562865972518921,1.0091634098102844,1.0649813075152856,-0.356032133102417,0.9514475464820862,0.0022602975368499756,0.9146716028758465,1.0196616427884448,158.05550415245398,161.81855430014858,1.0,-0.05611630708412698,0.01635854540616429,-0.18182618995532662,-0.17307838459495528,104.21043817174142,0.8786562221485887,23,0.7666666666666667
1.0402043277345627,0.5576073312520448,-0.026349270716309547,0.9999330639839172,0.9395002076715199,0.6504659200976303,0.15336564183235168,0.9999679327011108,0.9824430663064605,0.655589948448982,-0.2484065294265747,0.999984085559845,0.9109518947728219,1.0196603839908496,0.13721157610416412,0.9999721646308899,0.9206118877696361,1.027749459481928,-0.1373593509197235,0.999989926815033,0.9881966980906205,1.276317653966374,0.23255066573619843,0.17038282752037048,0.9956540009725502,1.301853306304673,-0.07272423058748245,0.9113610982894897,0.9660279328091121,1.5576073312520449,0.326095312833786,0.31649279594421387,0.9659543977311716,1.5898973648791588,-0.03169921413064003,0.8983795046806335,0.9381967496085586,0.6369731551955109,0.4065302014350891,0.1482529640197754,1.013317278536179,1.0732751563854126,-0.3793777823448181,0.9554466009140015,0.0028159618377685547,0.915781891271229,1.0237049217363887,158.74382226783516,158.8023096261311,1.0,-0.03214478223464065,-0.014308622194613457,0.18641904448153923,-0.23602462031894875,125.52044788805446,0.8734153353263111,24,0.8
1.0585299030499422,0.5818649428168821,-0.03768670931458473,0.9999368190765381,0.960904418607515,0.6713104860345122,0.15766321122646332,0.9999666810035706,1.0010218810527816,0.6815370480809658,-0.2685745060443878,0.9999855160713196,0.9132310396754609,1.0394738115217694,0.1392868459224701,0.9999738931655884,0.9257024085342791,1.0497967452857573,-0.13949698209762573,0.9999905824661255,1.0018004413857649,1.2995744251341836,0.2283259630203247,0.17070269584655762,1.0092895078962136,1.32345207120578,-0.0755503699183464,0.9148128032684326,0.9792987173600592,1.581864942816882,0.3113196790218353,0.3335331678390503,0.9786307673497678,1.6173399602770404,-0.05432254821062088,0.9051960706710815,0.9588824267245095,0.8397196501107422,0.24025240540504456,0.13724036514759064,1.0272059612586795,1.1068135079173242,-0.40103602409362793,0.9591843485832214,0.00554385781288147,0.9194667241048701,1.0446352784037634,156.63779544844823,157.05926187747238,1.0,-0.0682595957150664,0.052468218704295126,-0.27324784624603576,0.5130090382955592,122.23743717035195,0.8657417584507967,25,0.8333333333333334
1.0879233310067125,0.605580005816273,-0.09999541938304901,0.9999391436576843,0.9860315131278283,0.6988895003546856,0.13409171998500824,0.9999663829803467,1.0194945601774148,0.7083916453495404,-0.30915242433547974,0.9999868869781494,0.9208240713565516,1.0629853486507468,0.1402513086795807,0.999975323677063,0.9296147804546661,1.0789308214534197,-0.1404169499874115,0.9999911785125732,1.0159832545803709,1.325359201740797,0.26127320528030396,0.1788111925125122,1.024811466417943,1.3519517692447511,-0.06691525131464005,0.9205503463745117,0.991315046394851,1.605580005816273,0.38297536969184875,0.3562828302383423,0.9934287052553114,1.6422516577801358,-0.009120440110564232,0.912285327911377,0.9438097905700813,1.0891814586232889,0.15034018456935883,0.12555021047592163,1.04274447279659,1.144834854287068,-0.42301544547080994,0.9631223678588867,0.00507432222366333,0.9252194259056088,1.0709580850520832,155.03417319229553,154.60742861657155,1.0,-0.06447055969666565,0.08292847512347196,0.0380632468784116,0.23414809321644728,140.97844062360375,0.8850639371953141,26,0.8666666666666667
1.1115321402971943,0.6256213882376112,-0.09983260929584503,0.9999421238899231,1.0029680924849893,0.7238827201187935,0.13451926410198212,0.9999670386314392,1.0278653420518693,0.731816119359691,-0.2961919605731964,0.9999881386756897,0.9250072587841423,1.0805394826340662,0.14013823866844177,0.9999769330024719,0.9289644714538214,1.0955241354502352,-0.1402873396873474,0.999991774559021,1.0247598154610722,1.3493771464929896,0.22284801304340363,0.18113136291503906,1.0343402281789014,1.3723845504246635,-0.08336298912763596,0.9237950444221497,0.9997867828927925,1.6256213882376112,0.3242412507534027,0.35581719875335693,1.002793892926051,1.6585429653865926,-0.02006572112441063,0.9160929918289185,0.9572363729805111,1.1529542505452464,0.14813651144504547,0.11519677937030792,1.0515728097572472,1.1675307111176196,-0.38360655307769775,0.9666091203689575,0.004199355840682983,0.9269858651189818,1.0880318090421508,154.47695238180853,152.87175975795734,1.0,-0.04888660579350607,0.05757836104368238,0.12272230146321866,-0.1981522129435103,152.87658259648268,0.8906350635494695,27,0.9
1.1390685639615354,0.6668924031420208,-0.11152491718530655,0.9999459385871887,1.0356325315012076,0.7649966670673345,0.12008088827133179,0.9999690055847168,1.0543857479573158,0.7683372205038923,-0.30490225553512573,0.9999892711639404,0.9326059422846679,1.1297011352985917,0.14021500945091248,0.9999781847000122,0.9448881426691473,1.1428548170374113,-0.14035479724407196,0.9999922513961792,1.0507218890829106,1.3844707853701057,0.22667749226093292,0.20248466730117798,1.0623403318568667,1.4110313662853164,-0.0799233689904213,0.9304247498512268,1.0236179240996608,1.6668924031420207,0.3378879427909851,0.3916381895542145,1.0262342733554406,1.700588104138067,-0.00240217219106853,0.9235605597496033,0.9909481405376408,1.1960583062882562,0.11319547891616821,0.11293796449899673,1.07886632024489,1.224704900074949,-0.3947564959526062,0.9698352813720703,0.0017244219779968262,0.9387470424769077,1.1362779761680015,149.64480442376313,149.24045290176196,1.0,-0.09045352640247466,0.15795751931267427,-0.30924037417141886,0.7585641498261443,121.18766059045456,0.9208576323315487,28,0.9333333333333333
1.1596812364731344,0.697718194222264,-0.11612598598003387,0.9999489188194275,1.0575446974687117,0.7950817493177755,0.11041201651096344,0.9999710321426392,1.0752043144819798,0.8017066787428249,-0.31314271688461304,0.9999902248382568,0.9454009833443117,1.1588612731721089,0.14028510451316833,0.9999794960021973,0.9557196880587183,1.17315117154418,-0.14040586352348328,0.9999926686286926,1.062243812929331,1.4126005693046015,0.22937865555286407,0.22753506898880005,1.0856464665474734,1.4430507198644962,-0.10552679002285004,0.9367714524269104,1.0337209466453374,1.697718194222264,0.3577827513217926,0.4220177233219147,1.0458590147736897,1.7322902747718076,-0.009162754751741886,0.930079460144043,1.0136033217276748,1.2421341865060695,0.1055142879486084,0.1190890520811081,1.0990071280700104,1.2582385668580032,-0.4011566638946533,0.9725778102874756,0.0033570826053619385,0.950560335701515,1.1660062223581444,149.5618940519994,146.46194582641266,1.0,-0.04408206067278139,0.06519781376612495,0.36930508308553955,-0.735442292351572,127.03386885000117,0.9220714146283041,29,0.9666666666666667
1.1792197114397842,0.7295595802492931,-0.06138715147972107,0.9999465346336365,1.0726374127102147,0.8271075847332989,0.14359626173973083,0.9999721050262451,1.0939519342285193,0.8389953209151569,-0.2746444344520569,0.9999909996986389,0.9481193897956982,1.192697093370466,0.1400739997625351,0.9999804496765137,0.9614505073280857,1.2032424872892051,-0.14018313586711884,0.9999929666519165,1.071697013388666,1.4403726709189226,0.24139830470085144,0.24581100046634674,1.107509955999242,1.4651635591912877,-0.10682308673858643,0.9427700042724609,1.0445995146175562,1.7295595802492931,0.3722616732120514,0.44947221875190735,1.0645412445562874,1.7621754044539633,-0.014859494753181934,0.9364087581634521,1.0353505796108147,1.2861294749203815,0.1518707126379013,0.11786424368619919,1.1189285094916024,1.3013223079289722,-0.3534961938858032,0.9749851226806641,0.005922287702560425,0.954784948561892,1.1979697903298354,148.12999728191514,142.62204727233532,1.0,-0.09401096648828068,0.09293917643722005,-0.38237398969345227,0.20702107089046923,109.53667060790268,0.9326471469155267,30,1.0
1.2072600684547037,0.7729473272797067,-0.023817475885152817,0.9999406337738037,1.103542129786608,0.8724139097930932,0.17005693912506104,0.9999734163284302,1.1179232106214265,0.8794101608966413,-0.25901859998703003,0.9999916553497314,0.9663977396595402,1.2316246215412447,0.1401091068983078,0.999980628490448,0.9708516462485426,1.2379434607693771,-0.1402178704738617,0.9999929666519165,1.097487524025327,1.4771080375255583,0.2343425303697586,0.25223374366760254,1.1339032772109527,1.4970765730596052,-0.10480920225381851,0.9480107426643372,1.0703934967480864,1.7729473272797067,0.3347194790840149,0.4664403796195984,1.089320152011959,1.802781843574889,-0.027314186096191406,0.9420443177223206,1.1173441978693774,1.3299925362306735,0.1707065999507904,0.129344180226326,1.1483067548611645,1.3564380349572678,-0.3429090082645416,0.9771285057067871,0.003407299518585205,0.9686246929540414,1.234784041155311,146.66472877833965,139.52374504090895,1.0,-0.05976119786138786,0.06936356347070975,0.2701849460359696,-0.19078349800053598,123.92492225521241,0.9214566670427478,31,1.0333333333333334
1.2426061460291713,0.824607821225671,0.01301757711917162,0.9998928308486938,1.12670114893931,0.9174969819557531,0.1820993423461914,0.9999715089797974,1.1507903057375386,0.9326021681778573,-0.22717924416065216,0.9999914169311523,0.9699603859442029,1.2862957193770508,0.135755717754364,0.9999808073043823,0.9970405870005482,1.2900245532919603,-0.135920912027359,0.9999927282333374,1.1181000930223648,1.5210568721839437,0.27229228615760803,0.2737257778644562,1.1727189593542737,1.53938472917184,-0.024595972150564194,0.9528375267982483,1.091589443653418,1.824607821225671,0.4058082103729248,0.498478502035141,1.1286533394890368,1.8475946727667527,0.10535918176174164,0.9472503662109375,1.1354147415653706,1.4026047396353596,0.19213232398033142,0.12581486999988556,1.1860265197228774,1.415362470595374,-0.2592245936393738,0.9779449105262756,0.007144361734390259,0.9835004864723755,1.2881601363345054,142.75586076913348,136.6980775190551,1.0,-0.10709410315388097,0.12889880031947676,-0.3513856181574012,0.4433013407741004,74.81443178303675,0.9442892198810194,32,1.0666666666666667
1.2594248539005963,0.8490551659911835,-0.033978141844272614,0.9998598098754883,1.140201179619299,0.9571706394063508,0.1634446680545807,0.9999704360961914,1.1634669288950565,0.9664842530218044,-0.2560608685016632,0.9999915957450867,0.9782914232527553,1.311698852955022,0.13623449206352234,0.9999815225601196,0.994415584515046,1.3204244822061495,-0.13638409972190857,0.9999929666519165,1.1338771406894115,1.5449580516267247,0.2702294588088989,0.29201725125312805,1.1899029305656392,1.5626578297333091,-0.054793477058410645,0.9574649930000305,1.0999240272889077,1.8490551659911836,0.41897493600845337,0.5318573713302612,1.1465127096014598,1.8716045865460906,0.05782430246472359,0.9523946046829224,1.1654009653844228,1.4342529707474427,0.1561649739742279,0.1267591118812561,1.20455626933143,1.4658472540051608,-0.29117894172668457,0.9797767996788025,0.00434914231300354,0.9863535038839006,1.3160616675805856,139.92558672772904,133.1010985283159,1.0,-0.07604718956056418,0.08790044574270957,0.25159814747092696,-0.3309925818723632,93.874402823347,0.9639503481341261,33,1.1
1.256021788514184,0.8451909263746552,-0.04545829817652702,0.9997403025627136,1.1362489919502414,0.9552738426443078,0.15734419226646423,0.9999639391899109,1.1602185216373464,0.9641507272279412,-0.2658833861351013,0.9999908208847046,0.9712708842131929,1.3066803385901498,0.1365737020969391,0.9999818801879883,0.987992066720005,1.3144379458253215,-0.13671839237213135,0.9999929666519165,1.1300893703340902,1.544806419439082,0.2941451370716095,0.3033403158187866,1.1855549890745547,1.5576950715516424,-0.008530505001544952,0.9614990949630737,1.0918727798241108,1.8451909263746553,0.45822063088417053,0.563180148601532,1.1474562775324089,1.86342334016293,0.14572486281394958,0.9569063186645508,1.159672663090835,1.4398130485397838,0.1442009061574936,0.11900866031646729,1.2023853305607588,1.4616733594169191,-0.3093646764755249,0.9810514450073242,0.004156380891799927,0.9796314754665989,1.3105591422077356,139.04810995172883,133.81462207728958,1.0,-0.03158182214570102,-0.01523857925476291,0.3434676741144243,-0.7985322126999679,89.7393321725788,0.9639617480532922,34,1.1333333333333333
1.2822626767927585,0.8785066656747711,-0.015841273590922356,0.9997109174728394,1.1603479602597562,0.9907042304627732,0.18153806030750275,0.9999637007713318,1.1850927200175991,1.0023946604631575,-0.24467365443706512,0.9999908804893494,0.9861229995156056,1.3412600875681648,0.13683214783668518,0.9999819993972778,1.0012990016948278,1.3515869429520673,-0.13696342706680298,0.9999929666519165,1.1571527386299474,1.57592081604046,0.2855384647846222,0.293011873960495,1.2109840555605447,1.5898765005482196,-0.039191942662000656,0.9651426672935486,1.1354349077312775,1.878506665674771,0.4393734037876129,0.5718019008636475,1.171764556853206,1.9018595635845919,0.07324302196502686,0.9609447121620178,1.1827203641990816,1.4734524982274961,0.16833491623401642,0.12175998836755753,1.2292155989710731,1.4996540178956081,-0.291239470243454,0.9820955991744995,0.005357712507247925,0.9937110006052167,1.346423515260116,139.80868529725652,131.48845843878178,1.0,-0.05255489663285733,0.05506777031681541,-0.14938123206985626,0.5200712082377046,97.8070126971375,0.969923348096954,35,1.1666666666666667
1.319304818034452,0.9334331297182787,0.017956066876649857,0.9994741678237915,1.1940154026062664,1.0537857094048577,0.2128983736038208,0.9999548196792603,1.2195225768964117,1.0543089410435467,-0.2315744161605835,0.9999895691871643,1.0062748309987908,1.398137715664898,0.1401149183511734,0.9999814033508301,1.0221864804788352,1.406758656294571,-0.14026716351509094,0.9999924302101135,1.1972743232271814,1.6204467787824417,0.264893114566803,0.2731330692768097,1.246683773534799,1.619659321189603,-0.06891512125730515,0.9679065346717834,1.1725156552873937,1.9334331297182787,0.4066358506679535,0.558289647102356,1.2069978115692819,1.9565269332114021,0.0553303062915802,0.9638015031814575,1.2270863460033516,1.5406941767290152,0.20475530624389648,0.11662931740283966,1.2660224630878416,1.5488922755202081,-0.31389349699020386,0.9811953902244568,0.00023299455642700195,1.014230655738813,1.4024481859797344,134.80913928352908,126.76231038130825,1.0,-0.06983023031334559,0.13749338577631212,-0.129462535932035,0.6646884924541915,89.84965961660689,0.981205361720123,36,1.2
1.352890837770461,1.0113802622608952,0.05209513381123543,0.9992626309394836,1.2324067073625231,1.1232817817000849,0.23327605426311493,0.9999430179595947,1.2596201293949458,1.1305226384676321,-0.20636610686779022,0.9999881982803345,1.0345762310993982,1.496885335483524,0.14171962440013885,0.9999800324440002,1.0530438115553185,1.5020783140153873,-0.14188382029533386,0.9999915957450867,1.2620867872248935,1.687354885305222,0.23637902736663818,0.25466418266296387,1.2984211814061024,1.6843753166035789,-0.09424738585948944,0.9703291654586792,1.2424794513164539,2.011380262260895,0.37779566645622253,0.5414685606956482,1.2569243490630417,2.0383719528398117,0.049175478518009186,0.9658952951431274,1.283800293034153,1.6039675426988191,0.25958603620529175,0.11013079434633255,1.3234444823836102,1.6279747836950402,-0.25339704751968384,0.9792267680168152,0.0030948519706726074,1.0438100213273585,1.4994818247494557,126.47288683957062,119.92366713248661,1.0,-0.09378433073269694,0.2797357228482325,-0.15340556100747513,0.9955287134035121,77.8035755027194,1.0238046489800787,37,1.2333333333333334
1.3773609376943905,1.0590770275607473,0.09780256450176239,0.99910968542099,1.2384226489093344,1.168718905130452,0.2695496678352356,0.9999356269836426,1.2766239754856146,1.1773273377457265,-0.17748382687568665,0.9999845027923584,1.043506431188813,1.565313133728296,0.143726646900177,0.9999793171882629,1.071547453424733,1.5592271268635305,-0.14393028616905212,0.9999903440475464,1.2981651012296709,1.7290134842124902,0.21696841716766357,0.24101993441581726,1.3323464390521442,1.7204505708811355,-0.09080526977777481,0.9725041389465332,1.2696686003191782,2.0590770275607473,0.3313456177711487,0.5327562689781189,1.2902421733092784,2.089766600407644,0.04749799519777298,0.9679544568061829,1.322420519721605,1.6698525639683497,0.26551324129104614,0.10955367982387543,1.3585351051220342,1.6670806753918392,-0.18128404021263123,0.9724262356758118,0.003590196371078491,1.057526942306773,1.5622701302959132,117.7993505527061,115.21997618235902,1.0,-0.09505768476839457,0.19884026948182273,0.008222235931016342,-0.6838475845604103,51.58150891530196,1.067815881112945,38,1.2666666666666666
1.3848237693148722,1.0845397566955663,0.05704020336270332,0.9989104866981506,1.251452880593862,1.2143834526789075,0.25236809253692627,0.9999272227287292,1.280674507512961,1.2071120225633696,-0.2042352855205536,0.9999812245368958,1.0572898600743053,1.6040282789750973,0.14945809543132782,0.9999786615371704,1.075196694894061,1.6046959303115735,-0.1496167629957199,0.9999894499778748,1.3201154886126907,1.7522829531864559,0.22052788734436035,0.22545842826366425,1.3507984721680093,1.7451400401576052,-0.1207125335931778,0.9745506644248962,1.290628858591505,2.0845397566955666,0.35086318850517273,0.5150773525238037,1.3072052445403421,2.1189251045306112,-0.00037107995012775064,0.9700040817260742,1.3466880987382144,1.6875074437038653,0.22788885235786438,0.1092323288321495,1.3765812890133393,1.686699104553214,-0.24381406605243683,0.9668596386909485,0.002991318702697754,1.066243277484183,1.6043621046433354,114.35496089596532,110.35081703560769,1.0,-0.04340850801458577,0.15173614419787185,0.39130877796212177,-0.36830715986367357,65.64783830750197,1.1103132553090314,39,1.3
1.3748136261923318,1.0980033366908952,0.06405448168516159,0.9985803365707397,1.2422645086535182,1.2240844576676,0.25581347942352295,0.9999034404754639,1.2788452122708391,1.2167740249207053,-0.1932346671819687,0.999972939491272,1.055140000138331,1.622743228785384,0.14841218292713165,0.9999759197235107,1.076677928514146,1.6183081892354405,-0.14856378734111786,0.9999872446060181,1.3229320506888704,1.76112846114335,0.19889795780181885,0.21399101614952087,1.357333384782782,1.7525692629102017,-0.12159942090511322,0.9756172895431519,1.2949893212058246,2.0980033366908954,0.3149195611476898,0.49975666403770447,1.310480361903188,2.129399391998567,-0.00943719781935215,0.9707977771759033,1.329398518328684,1.700509021915645,0.2170604169368744,0.10240687429904938,1.3828968199508342,1.699676851351986,-0.22232429683208466,0.9499573111534119,0.0029924511909484863,1.0659089643262385,1.6205257090104124,112.58662978102925,108.478230318967,1.0,-0.04148430037506387,0.05999990415325779,0.015722723415529497,-0.6793805026714089,53.219762512980445,1.1095034769210623,40,1.3333333333333333
1.3591257186764345,1.1021110810549255,0.08146853744983673,0.9979873895645142,1.2306171610196666,1.2282123422876152,0.26785892248153687,0.999863862991333,1.2646345608305456,1.2257890137386565,-0.16668632626533508,0.9999655485153198,1.0491887453317368,1.6227234382669915,0.14496180415153503,0.9999750852584839,1.0726572255912357,1.612576560683633,-0.1450919210910797,0.9999866485595703,1.2460244702694447,1.834720452210859,0.22623363137245178,0.20670472085475922,1.3563836423355367,1.7535339175633968,-0.10906589031219482,0.9772815108299255,1.2740480415739233,2.1021110810549253,0.35574454069137573,0.5041503310203552,1.3120430115676154,2.1314137244316758,-0.0136901019141078,0.972966194152832,1.233823440249145,1.7049456481817238,0.22476163506507874,0.09426777064800262,1.3838320975965805,1.703142325625865,-0.19400307536125183,0.9429512023925781,0.00099104642868042,1.0609229854614861,1.6176499994753122,143.10678002594304,109.72600683942906,1.0,-0.04597485898449231,-0.0336896587886362,-0.034263903515557706,-0.7214719644837638,41.9213482966873,1.081968995346159,41,1.3666666666666667
1.3688486646548597,1.1468611731056104,0.14658835530281067,0.9959793090820312,1.2251067153810957,1.261695079943879,0.29867392778396606,0.9998371005058289,1.2738565698838016,1.2629153222121305,-0.12324993312358856,0.999958336353302,1.0610564696209093,1.6783348798467717,0.14241810142993927,0.9999736547470093,1.0908098848256815,1.6575709647237158,-0.1426095962524414,0.9999855756759644,1.2788893622202395,1.8511349086634223,0.21211130917072296,0.20109964907169342,1.3801764662629359,1.790685583249905,-0.1267382949590683,0.9786785244941711,1.3020922734164313,2.14686117310561,0.314453125,0.5004052519798279,1.3377210256465215,2.1764009193940526,-0.06333448737859726,0.9744625687599182,1.2236986290359313,1.7524578251347283,0.25715741515159607,0.08753018081188202,1.410249231283094,1.7372671633966614,-0.15424349904060364,0.9282094240188599,0.0004886388778686523,1.0759331772232954,1.6679529222852438,132.91014947689266,108.42218425532468,1.0,-0.0611064986961802,0.12861594939624116,-0.11450092482612882,1.3188066810074963,33.59825774739758,1.0855314473338817,42,1.4
1.3150145552667312,1.098887794016897,0.089612677693367,0.996271550655365,1.1841691888084847,1.2372288064070234,0.2732686698436737,0.999830961227417,1.2260411318496647,1.2378996478773345,-0.15442124009132385,0.9999569654464722,1.0377588017208808,1.647057368657431,0.14203286170959473,0.9999726414680481,1.0674042916104662,1.63307372112752,-0.14220711588859558,0.9999852180480957,1.251007898936445,1.8000064596315943,0.24966514110565186,0.19505062699317932,1.3447285696266085,1.7505460498261647,-0.12927062809467316,0.9805068373680115,1.2710358121102672,2.098887794016897,0.37298673391342163,0.5106064677238464,1.304061842534259,2.1273650217059625,-0.042245738208293915,0.9766779541969299,1.171225629257592,1.708908195686683,0.2751334011554718,0.08197122067213058,1.370202796060265,1.6934340318125216,-0.20543953776359558,0.9276461601257324,0.00027483701705932617,1.0525815466656734,1.6400655448924755,129.48293912278507,106.79753887300399,1.0,0.006975291406237451,0.07317548614920581,0.500374885352447,-0.3941162291065394,45.08779297384744,1.1386749858095957,43,1.4333333333333333
1.317281011432734,1.099688004876817,0.011984819546341896,0.9965572953224182,1.1957913570477199,1.2485634447849894,0.21759065985679626,0.9998244047164917,1.2090571933778511,1.2416916589944564,-0.19653011858463287,0.9999554753303528,1.0484119617159382,1.6571292429312512,0.13614466786384583,0.9999716281890869,1.0621947074419515,1.657454723280539,-0.13625499606132507,0.9999845623970032,1.286694013812017,1.785452819620975,0.1937398612499237,0.18442833423614502,1.3457734301434705,1.754278792341207,-0.13858318328857422,0.9808635115623474,1.2731755843428079,2.099688004876817,0.2781805098056793,0.49523112177848816,1.2998357015972857,2.1281435795032717,-0.03319167345762253,0.9771401882171631,1.213771707063608,1.7034737126924522,0.1604280322790146,0.07658158987760544,1.3680126941705086,1.6927022791197148,-0.23845025897026062,0.930156946182251,0.0028125643730163574,1.0553033345789449,1.6572919831058952,115.84073288471218,101.84679948045682,1.0,0.012290421252675775,0.11317616299936208,0.038436819698386075,0.28912260485668956,71.5172126425394,1.203698350339908,44,1.4666666666666666
1.3207712635089575,1.0979377813416924,-0.00669619208201766,0.9967904686927795,1.1807958302199704,1.2448784968380384,0.20901040732860565,0.9998213052749634,1.2101226513094347,1.240982376847515,-0.21850745379924774,0.9999553561210632,1.0488688013704872,1.6596682400539446,0.1366790235042572,0.999970555305481,1.0674318310218514,1.6607364910426272,-0.1367969512939453,0.9999840259552002,1.2935071713655666,1.773921670827942,0.20358145236968994,0.18357878923416138,1.347768402252556,1.756466767509249,-0.129229336977005,0.9822019338607788,1.274981830110623,2.097937781341692,0.31463325023651123,0.4978749454021454,1.3007993293360791,2.129575477027938,-0.02195671573281288,0.9787359833717346,1.2038468407719924,1.7047457491206648,0.1829308569431305,0.07172278314828873,1.368912831914855,1.6931874396311348,-0.2957060933113098,0.9339547157287598,0.0015928149223327637,1.0581503161961692,1.660202365548286,111.76170626093375,101.6792022700233,1.0,0.012552808951120485,0.007706945185135606,0.0019097457828622995,-0.8124138244586417,75.64992006376072,1.220583223154142,45,1.5
1.3180251810194255,1.12027763801419,-0.0008791942382231355,0.9969573616981506,1.175838096550078,1.2564253147995765,0.20277456939220428,0.9998199939727783,1.1984397226861228,1.2562890299539358,-0.2114299237728119,0.9999539256095886,1.0587370741190658,1.6827721958287998,0.1308784931898117,0.9999691247940063,1.0702932186870833,1.688049145052013,-0.13103501498699188,0.9999831914901733,1.3094653140334347,1.7882582870394585,0.16363246738910675,0.18208253383636475,1.3589711893836316,1.7751977787780184,-0.1300293505191803,0.9824814200401306,1.294020925985542,2.1202776380141897,0.2614935338497162,0.4969710409641266,1.3055295550262955,2.1510936306356547,-0.010916303843259811,0.9791476726531982,1.2251040369044628,1.7360891848029874,0.19063979387283325,0.06689944863319397,1.3821254689856208,1.710455110350208,-0.27324992418289185,0.9327053427696228,5.513429641723633e-05,1.0645151464030747,1.6854106704404064,110.15412575690159,98.70688141161081,1.0,-0.03960061234006263,0.06342842899942853,-0.4312834227172753,0.45895140695740205,99.18492370507717,1.2191907879802026,46,1.5333333333333334
1.2911339756083848,1.1098463482032712,0.007945558056235313,0.9971398711204529,1.1519187433875204,1.2472871836226533,0.20749998092651367,0.9998293519020081,1.1718418196283062,1.2509482789648507,-0.20825378596782684,0.9999542236328125,1.048611112638278,1.6790048306607792,0.13012899458408356,0.9999680519104004,1.0538415001694421,1.6878378169362898,-0.1303047090768814,0.9999820590019226,1.317175517429164,1.7641399581683352,0.14374785125255585,0.17420202493667603,1.3488868310010564,1.7646914975195023,-0.14364132285118103,0.9819576144218445,1.2932207940891167,2.109846348203271,0.2359645664691925,0.47519344091415405,1.2963916322302766,2.140550318106405,-0.016797572374343872,0.9774782061576843,1.2456459068984862,1.7254912999505418,0.19719815254211426,0.06705906242132187,1.3702586143387476,1.7011603804448658,-0.26677367091178894,0.9346232414245605,0.0014884471893310547,1.05122630640386,1.6834213237985345,103.62484671742759,96.64910787097433,1.0,-0.06015356386295757,0.04735414525065608,-0.15530224007282217,-0.11797421541903036,135.91091423812497,1.232409532265476,47,1.5666666666666667
1.315346762303152,1.1534794795383707,-0.018131306394934654,0.9973688721656799,1.1547265139108343,1.2714056474193036,0.1955569088459015,0.9998394250869751,1.178427671105903,1.278900310490397,-0.22596292197704315,0.9999551773071289,1.0636100842142167,1.719697920218616,0.13061557710170746,0.9999679327011108,1.0750227224700917,1.7326605341011148,-0.13081584870815277,0.9999815225601196,1.3500884285295771,1.7969666252839558,0.17381593585014343,0.1730995774269104,1.380354788708043,1.8053470744744715,-0.13625526428222656,0.9827775955200195,1.323832119066944,2.1534794795383707,0.27797213196754456,0.4677627384662628,1.3309494750719195,2.1913298017952254,0.012589084915816784,0.978259265422821,1.323048388955859,1.7392141807423913,0.1992490440607071,0.07493912428617477,1.3935000528289925,1.7386614273913523,-0.27711403369903564,0.9392122626304626,0.0029764771461486816,1.0693164033421543,1.7261792271598653,100.88248653032409,96.09631611271479,1.0,-0.05034660320243003,0.021134591531482123,0.0828949100965797,-0.20178003772771194,127.14943508990365,1.209178941815765,48,1.6
1.2580588805469621,1.1486086600096637,-0.04582192748785019,0.9976138472557068,1.1165308277424237,1.2666294476483329,0.17297765612602234,0.9998518824577332,1.1362947560381786,1.27752414233434,-0.23790183663368225,0.999957799911499,1.0590264700968872,1.7222507897799244,0.12916143238544464,0.9999678134918213,1.061378852957222,1.7407409822388236,-0.1293335109949112,0.9999814629554749,1.3523231270330964,1.791844957831062,0.17144334316253662,0.1760500967502594,1.3766379534606379,1.8030139610291547,-0.1395876109600067,0.9841579794883728,1.322052208404618,2.1486086600096637,0.286764919757843,0.46932554244995117,1.3317156625888382,2.193802111590951,-0.006065791472792625,0.9799548983573914,1.336814952901753,1.7219465021954798,0.180428147315979,0.0907687097787857,1.3778576520195664,1.7287268689909292,-0.29024672508239746,0.9447543025016785,0.004332184791564941,1.0602026615270546,1.731495886009374,98.49856886094095,94.61622250134617,1.0,-0.0611788028292306,0.05871100322365946,-0.08565831610729609,0.2956409395629626,165.55627808747838,1.196961197232927,49,1.6333333333333333
1.2234532019487832,1.1367527240388609,-0.0544544979929924,0.9978370070457458,1.0895778344354046,1.266667804423225,0.16273179650306702,0.9998636841773987,1.1096854209936504,1.270269772761944,-0.23881328105926514,0.9999606013298035,1.0512755828474702,1.7235257525607535,0.12603195011615753,0.9999675154685974,1.0521219693910198,1.7358926695115051,-0.12621276080608368,0.9999813437461853,1.3427200733569784,1.7765472452044493,0.17659758031368256,0.1833329200744629,1.3667657384336922,1.792498840568931,-0.13070864975452423,0.9853215217590332,1.3141106133384766,2.136752724038861,0.2911989390850067,0.4744827151298523,1.326497354082535,2.1814118550308352,0.017107393592596054,0.981267511844635,1.3205581157976332,1.7110667220441103,0.18514961004257202,0.11301188915967941,1.365422042970084,1.7113654204034083,-0.2954249083995819,0.9499868154525757,0.0014404058456420898,1.0516987761192451,1.7297092110361294,95.76965076983586,94.28734472731858,1.0,-0.020060419294762048,0.06310480467341066,0.3230021535629293,0.037426505836935894,171.29242583889044,1.2188870406554055,50,1.6666666666666667
1.2139569249621784,1.13206863817912,-0.07978847622871399,0.9980418682098389,1.0714900399972074,1.2636915893624012,0.14072957634925842,0.9998742341995239,1.089533143616159,1.2685332625553405,-0.2543689012527466,0.9999634623527527,1.0532514086998876,1.721450688842448,0.12353187799453735,0.9999677538871765,1.056342338820662,1.7340769984573632,-0.12372026592493057,0.999981701374054,1.3400890986955543,1.7671004101243295,0.17820008099079132,0.2006658911705017,1.365152367939177,1.7878287257921923,-0.12539330124855042,0.9863191843032837,1.3116462596902312,2.13206863817912,0.29156023263931274,0.49094662070274353,1.3311525831908122,2.1777575096546906,0.02181260474026203,0.9825151562690735,1.313730449278989,1.7050117755744174,0.1576065719127655,0.12733082473278046,1.360513293277078,1.7023745708922924,-0.30784276127815247,0.9548256993293762,0.00193864107131958,1.0547968737602749,1.7277638436499057,94.58649904881982,94.89073161541823,1.0,0.035474084235255776,0.0021658530842153536,0.44290119356052843,-0.48558277931183874,163.9628234445996,1.2245530022009596,51,1.7
1.1914486437900094,1.131500756120702,-0.07521505653858185,0.9982281923294067,1.0652709923180521,1.2701733674090736,0.13705870509147644,0.999884307384491,1.0740989344250689,1.2742751265728913,-0.24736957252025604,0.9999663233757019,1.0559740988598938,1.724913823108748,0.12068982422351837,0.9999682307243347,1.0601526253300808,1.7405961167667996,-0.12086818367242813,0.9999821782112122,1.3246569880235548,1.7722160485407876,0.18915560841560364,0.2101736217737198,1.3671775791765328,1.789728236282316,-0.12230134010314941,0.9871922731399536,1.3051501918810002,2.131500756120702,0.3035809397697449,0.5009152293205261,1.338221845590389,2.179072785095516,0.01679569110274315,0.9836442470550537,1.2934662078515813,1.7047592003380743,0.1446104347705841,0.1408325582742691,1.357032220654579,1.7012799271381371,-0.31638309359550476,0.9591813683509827,0.0016401410102844238,1.0580633620949873,1.7327549699377738,96.8769999761793,94.83847218795832,1.0,0.014003031008605074,0.020187446446317047,-0.16463386695165333,0.13785168980978646,163.90902950787654,1.2366195704103538,52,1.7333333333333334
1.1747453999334778,1.1334953127480676,-0.06410959362983704,0.998400866985321,1.0368365264974198,1.2718063965639017,0.13541701436042786,0.9998946189880371,1.060360830354592,1.2791136914175654,-0.24225981533527374,0.9999693036079407,1.047986550969076,1.733964941533128,0.11973555386066437,0.9999694228172302,1.0603647882361604,1.7456454714889893,-0.11994007974863052,0.999983012676239,1.313802208378432,1.777229814467954,0.203738734126091,0.2208816111087799,1.3694182108254482,1.7932877614386138,-0.11003854125738144,0.9881464838981628,1.3078250604398387,2.133495312748068,0.32796138525009155,0.5090540647506714,1.3430406477424168,2.1825817067311317,0.022909265011548996,0.984808623790741,1.2716267236760923,1.6986049288918037,0.15043412148952484,0.15858805179595947,1.3535435212391127,1.6965118816351457,-0.3030896484851837,0.9631490111351013,0.0029162168502807617,1.0541756696026183,1.7398052065110587,98.2833755062303,94.88718602979303,1.0,-0.044575398077724517,0.027426327564872996,-0.43866377867403483,0.05388767591062736,134.72092898120485,1.24008435496582,53,1.7666666666666666
1.1639907554267634,1.1328512897482728,-0.10797736793756485,0.9985575079917908,1.0382469859947645,1.2712129512490127,0.10104000568389893,0.9999039173126221,1.0465986922150663,1.2798641228250283,-0.2763971984386444,0.9999721050262451,1.0508540441122631,1.73099493329723,0.11872972548007965,0.9999712109565735,1.0598929964258421,1.7489401407008984,-0.11891660839319229,0.999984085559845,1.317075980816285,1.7695400397434162,0.18393436074256897,0.23818325996398926,1.3703513756727137,1.7947105213058243,-0.12240973860025406,0.9888391494750977,1.3117914035510854,2.132851289748273,0.3134763538837433,0.5053525567054749,1.3434924414884444,2.187594722356464,0.018009953200817108,0.9851012825965881,1.2771932923346732,1.6888178380932486,0.07749205827713013,0.1672326624393463,1.343707028439944,1.6922193999156596,-0.34164106845855713,0.9667357802391052,0.0034506916999816895,1.0553735202690526,1.7399675369990641,97.40501409260331,94.4757573347185,1.0,0.004911925483505937,-0.00593686961435699,0.38317571230036224,-0.25831725710788067,154.83636466664885,1.2316724337677898,54,1.8
1.151601751328473,1.1316977862851436,-0.1425950527191162,0.9986993670463562,1.0419973520525252,1.2700592028123296,0.06732071936130524,0.9999127984046936,1.0307236734853293,1.2829791671847481,-0.3039970397949219,0.9999746680259705,1.0596681335749032,1.7280583782131977,0.11782506853342056,0.9999728798866272,1.059486067582926,1.751859137976524,-0.11800920963287354,0.9999849796295166,1.3301880275703772,1.763394564411595,0.16866245865821838,0.2630389928817749,1.369781929300594,1.7900838855242527,-0.13284072279930115,0.9893597960472107,1.311687344748229,2.1316977862851436,0.2854326069355011,0.5040436387062073,1.3426460312264834,2.185973166997604,0.013720015063881874,0.984937846660614,1.2864548502850737,1.6884495407986513,0.03977266699075699,0.18242549896240234,1.3365984232846124,1.6899068155186838,-0.36850208044052124,0.9699550271034241,0.005156040191650391,1.0595771005789145,1.7399587580948608,94.56634889474576,93.10161694045111,1.0,0.03613150283577595,0.006754194692259087,0.23763727256336217,0.09657078004606968,177.35219745793788,1.237653722732304,55,1.8333333333333333
1.1448264508547943,1.129957121106717,-0.16608023643493652,0.9988266229629517,1.0357535552436832,1.268961809591087,0.0469888411462307,0.9999207258224487,1.0262172589299188,1.28457098644141,-0.3231508433818817,0.9999769330024719,1.0642027434790247,1.7250310558171877,0.11770321428775787,0.9999744296073914,1.0597417953016053,1.752522860708298,-0.11787382513284683,0.9999857544898987,1.3367226698734171,1.7596308854001166,0.16566096246242523,0.2793309688568115,1.3686910198800513,1.7847304632678676,-0.14066281914710999,0.9893091320991516,1.3117310019219308,2.1299571211067168,0.28557783365249634,0.49990150332450867,1.3389448977340859,2.1834226786644186,0.009546804241836071,0.9839629530906677,1.2861405309496237,1.6859413976020716,0.023294571787118912,0.19431829452514648,1.3313638902972567,1.6867709457550433,-0.3782942593097687,0.9728131890296936,0.006233572959899902,1.0619722693903149,1.7387769582627428,93.37492339334273,91.68463257895841,1.0,0.02433704151641011,0.0002174632887032535,-0.09145631598776442,-0.05075865909487596,167.21381762459288,1.243842078416443,56,1.8666666666666667
1.1358192111493677,1.131612729757788,-0.1599060297012329,0.9989408850669861,1.0357449716560485,1.271809456946322,0.04873023182153702,0.9999279975891113,1.0187415136192872,1.2881209341927389,-0.31755727529525757,0.9999789595603943,1.071588232218745,1.7252415771037635,0.11718033254146576,0.999975860118866,1.0612515404321425,1.7571313979281655,-0.1173379048705101,0.999986469745636,1.3423626681405023,1.759552471786752,0.16545197367668152,0.29771682620048523,1.36990417578478,1.7865055903682847,-0.1464047133922577,0.9894821643829346,1.3131568215936844,2.131612729757788,0.28085917234420776,0.5073567628860474,1.339210402491579,2.185366156052311,-0.002042868174612522,0.9839427471160889,1.2882408825089064,1.6792962932534674,0.031164180487394333,0.21516886353492737,1.3216812183044417,1.6849214659685865,-0.3741335868835449,0.9753698110580444,0.0065087080001831055,1.066419886325444,1.7411864875159644,92.7333076455134,91.03596788926332,1.0,0.026587477427271734,0.00732287861505142,0.01657523165575444,0.052800170239823335,157.52077468513974,1.2481162537496848,57,1.9
1.1316603438547541,1.1404489433408203,-0.18234187364578247,0.999043881893158,1.04285129593385,1.2807613581750523,0.03245986998081207,0.999934732913971,1.0124647141510557,1.301626675097584,-0.3410964608192444,0.9999808073043823,1.0862261391987484,1.7370427865295184,0.11797533929347992,0.9999772906303406,1.068790433406171,1.7739692718336726,-0.11813715845346451,0.9999871253967285,1.3558178858662304,1.7681056921705678,0.16642217338085175,0.31739485263824463,1.379731662435035,1.797350173504037,-0.1494859755039215,0.9895514249801636,1.3225593912167564,2.1404489433408203,0.28611209988594055,0.5049394965171814,1.3486448360969636,2.1980748051347057,-0.0004754791152663529,0.9831453561782837,1.2995296273253194,1.68792381664199,0.008583157323300838,0.2454000860452652,1.3272631931858812,1.6964880279544186,-0.40010032057762146,0.9776784181594849,0.008266627788543701,1.0775082863024599,1.7555060291815954,91.46851528755346,89.86428062679359,1.0,0.027296332135824775,0.014654076987758525,0.004097988795675991,0.0575268539075257,149.294252533284,1.2661298777689578,58,1.9333333333333333
1.116016770150625,1.1414606695237008,-0.18807008862495422,0.999136209487915,1.0271755637184148,1.2834538346759106,0.038897208869457245,0.9999406933784485,1.0022881659243135,1.308302025259377,-0.34884145855903625,0.9999824166297913,1.0878747976050038,1.7373616572443937,0.11986912786960602,0.9999786019325256,1.0695858002771144,1.775578678862994,-0.12001240253448486,0.9999877214431763,1.3643702930652453,1.7657731135160877,0.16211527585983276,0.33929798007011414,1.3808036078460175,1.7957272719336876,-0.15233342349529266,0.9896512031555176,1.3308373666841957,2.141460669523701,0.28739291429519653,0.5113498568534851,1.3502976888365257,2.1979506594186256,-0.0013629214372485876,0.9826108813285828,1.3011940063086735,1.6778699452423518,0.018511097878217697,0.2732055187225342,1.316074685446795,1.693398258266701,-0.41367238759994507,0.9797501564025879,0.00984048843383789,1.0787302989410592,1.7564701680536938,90.76630965872,89.3670307604226,1.0,0.006014309559350335,0.0017949660832548547,-0.16597867419134874,-0.1002823222975848,146.8095174643445,1.2594609058652877,59,1.9666666666666666
1.1093631175713023,1.1372289175059647,-0.1931920200586319,0.9992176294326782,1.0312666400875252,1.2788165442256214,0.02473820000886917,0.9999460577964783,0.9882719538158917,1.3096955968322224,-0.34974104166030884,0.9999837875366211,1.098539692167943,1.7259173028711172,0.1191006675362587,0.999980092048645,1.0681506737332385,1.7694188977696022,-0.11922476440668106,0.9999883770942688,1.3627583329058472,1.7600882991479376,0.16563740372657776,0.35145440697669983,1.3761428505859261,1.789724791889222,-0.15266956388950348,0.9880629777908325,1.3238938382290253,2.1372289175059644,0.27324992418289185,0.5217185616493225,1.3456960840164862,2.1906394923443973,-0.01064184121787548,0.9807291030883789,1.295216114519501,1.6624173039210834,0.008276965469121933,0.30817142128944397,1.300291500584531,1.6875204930880732,-0.41437655687332153,0.9815536141395569,0.012270629405975342,1.0833451829505907,1.7476681003203596,91.4854878499207,89.42915442645739,1.0,0.06298041028558506,-0.021450483858279842,0.4330823592328749,-0.17661261241994358,136.50608391653185,1.2563614437143185,60,2.0
1.0874392920657405,1.1276344533184994,-0.1710558831691742,0.9992879033088684,1.028964951438489,1.2684726939951054,0.053930990397930145,0.999950647354126,0.9693781482166854,1.296850125893324,-0.3264555037021637,0.9999850988388062,1.0985825942276504,1.7126179717435543,0.11964426189661026,0.9999809265136719,1.0613180363960022,1.7547070203897406,-0.11974020302295685,0.9999886751174927,1.358886564158793,1.7476936918958539,0.1628064513206482,0.3573872745037079,1.3654159479857702,1.7757167965333371,-0.16682416200637817,0.9866077899932861,1.3133755267009253,2.1276344533184997,0.24824973940849304,0.5291794538497925,1.3350449974043035,2.1753546416313103,-0.038691792637109756,0.9783020615577698,1.279639285622074,1.646505356242131,0.03457765281200409,0.3394736349582672,1.2732783597787813,1.6702632892626712,-0.40263137221336365,0.9832514524459839,0.011366009712219238,1.0799503153118262,1.7336624960666474,90.84372329446755,89.60631250003318,1.0,0.039893793250228037,-0.0019345284308175904,-0.17558877636538267,0.15037647127137102,129.5707963721789,1.252238468376544,61,2.033333333333333
1.070599935187031,1.0924261008975493,-0.16071152687072754,0.999350905418396,1.0153624865956823,1.2439200924663074,0.06274141371250153,0.9999548196792603,0.953126246174803,1.2738808486741449,-0.3192765414714813,0.9999863505363464,1.0869909785990735,1.678738356272636,0.1197340115904808,0.9999817609786987,1.0425890507604851,1.7227640969486806,-0.11985166370868683,0.9999890327453613,1.3427027768329236,1.7177140072551635,0.14585910737514496,0.3559723198413849,1.3413623633443112,1.7448870601484967,-0.17347241938114166,0.9838764667510986,1.2926299700695083,2.092426100897549,0.2207070291042328,0.5284286737442017,1.3101265475777706,2.1381386162701608,-0.05335326865315437,0.9749495387077332,1.2480382672845611,1.610844541641967,0.04525859281420708,0.35339105129241943,1.2357362306616515,1.6356810818867928,-0.3928987383842468,0.9847363233566284,0.012214303016662598,1.0647900146797793,1.7007512266106581,91.05498674364082,89.6933476036206,1.0,0.028618551500013967,-0.019112683097804766,-0.08024190438270595,-0.1305923863016176,125.40181754233569,1.2745793643300336,62,2.066666666666667
1.0617427383002371,1.0784349684869736,-0.1799108237028122,0.9994114637374878,1.0079899209386811,1.2307541080031459,0.052665650844573975,0.999958872795105,0.9452967753837485,1.2628842716486066,-0.332807719707489,0.9999874830245972,1.0808272728941253,1.6631217247457801,0.12067504972219467,0.9999828934669495,1.03465732852788,1.7090768644496979,-0.12075591087341309,0.9999896287918091,1.336219352340366,1.7040833270884495,0.151748925447464,0.35052505135536194,1.3319725894451764,1.7323152322621658,-0.17359590530395508,0.9810290932655334,1.2897929626916729,2.0784349684869734,0.24335423111915588,0.5208819508552551,1.299866945886128,2.1233818828626143,-0.04038152098655701,0.9699633717536926,1.2345370205062642,1.601469957417025,0.034336816519498825,0.36624443531036377,1.2244306824048865,1.6225209594143966,-0.4132178723812103,0.985946774482727,0.01319950819015503,1.0577423007110027,1.6860992945977389,92.04228478017032,89.77586990318771,1.0,0.008230953977924772,-0.012660079090899397,-0.15332110141307936,0.04794195002658622,125.30404873189754,1.271861141795302,63,2.1
1.05089855069956,1.067445844636504,-0.19109691679477692,0.9994670748710632,0.9989243692971349,1.2173526723355916,0.03727636858820915,0.9999625086784363,0.9415919334402403,1.2548011168275246,-0.3418547809123993,0.9999885559082031,1.0722247913158196,1.651564145412524,0.12071512639522552,0.9999839067459106,1.0283958863163827,1.6980013413119912,-0.12079595029354095,0.9999902248382568,1.3247716907322724,1.6941025675410861,0.14567409455776215,0.3530047535896301,1.3238941133534083,1.7235123686355633,-0.17273595929145813,0.9789928793907166,1.2809858282644804,2.067445844636504,0.2277955263853073,0.518413782119751,1.2917806356480699,2.1115900343777887,-0.05490296334028244,0.9673265218734741,1.2175427227768243,1.593184773873861,0.010123170912265778,0.3778718113899231,1.214662694352892,1.6111547784924616,-0.44101181626319885,0.9871610403060913,0.015479624271392822,1.050310338816101,1.6747827433622575,92.87190792918281,90.20378369856223,1.0,-0.00680595357649322,-0.006926974370936582,-0.11081620261982368,0.04181731903223767,127.07321669376459,1.272659188229839,64,2.1333333333333333
1.0464834787064876,1.060152521703998,-0.1976817548274994,0.9995152950286865,0.9889096341973903,1.2043988033294724,0.023880083113908768,0.9999656677246094,0.93730449238343,1.247837751021205,-0.3483350872993469,0.9999895095825195,1.0674159490049853,1.6400654105585442,0.12033446133136749,0.9999847412109375,1.0277417493712193,1.6873262698107263,-0.1204078420996666,0.999990701675415,1.3144814900485595,1.6900671017651816,0.14659716188907623,0.35228586196899414,1.3206307317452557,1.7182352075613239,-0.17033518850803375,0.9768880605697632,1.274635081772893,2.060152521703998,0.2415621280670166,0.5161827802658081,1.2884583082375265,2.1033485963236256,-0.04447362571954727,0.9649067521095276,1.2008359228663275,1.5861941236637582,-0.004130055196583271,0.3675898015499115,1.2075133524534238,1.6029866924658862,-0.44073009490966797,0.9881290793418884,0.018027007579803467,1.0475788491881024,1.6636958401846353,95.29586102380718,91.24878873703443,1.0,0.011248484557489016,-0.035594359252385854,0.1433627900239936,-0.2281924696581688,129.77248986996693,1.2598113238906121,65,2.1666666666666665
1.0468381724291727,1.0597097203032377,-0.1954316794872284,0.9995590448379517,0.9854740249987005,1.2025086867655308,0.028244685381650925,0.9999685883522034,0.9354172476271683,1.2453553554099759,-0.35099080204963684,0.9999903440475464,1.066827569391454,1.6382659668049102,0.12056337296962738,0.9999856948852539,1.028627771055947,1.684567525583562,-0.1206340417265892,0.999991238117218,1.3124949562337505,1.6901649932610976,0.15428674221038818,0.35177913308143616,1.3208108164769827,1.718388114258932,-0.16704383492469788,0.9751600623130798,1.2741066179669795,2.0597097203032377,0.24282009899616241,0.5113617181777954,1.2881243392845707,2.1024664986224955,-0.03883716091513634,0.9622891545295715,1.197838410509299,1.586003214799681,0.00356306997127831,0.3608803451061249,1.2058415213463676,1.6008702991739567,-0.4388549327850342,0.9889766573905945,0.017785191535949707,1.0477276702237006,1.661416746194236,95.99813739957216,91.73832167384977,1.0,0.002876358341956795,-0.014317645037615147,-0.06283820843570999,0.1596836996981593,129.90155167308163,1.2530241751644198,66,2.2
1.045303225218326,1.060825205788136,-0.18582147359848022,0.9995945692062378,0.9858496527673434,1.2042888937743705,0.035285450518131256,0.9999710321426392,0.9332189478790834,1.24514342299694,-0.34197843074798584,0.9999909996986389,1.0668233247977994,1.644291527908522,0.12184715270996094,0.9999863505363464,1.0297376779100964,1.686793541252597,-0.12191947549581528,0.9999915361404419,1.3119077961024879,1.6972902495195077,0.18020084500312805,0.3449946641921997,1.3237191271066064,1.7241612935554154,-0.16362550854682922,0.9735027551651001,1.275528706814111,2.0608252057881358,0.28702008724212646,0.5019911527633667,1.2900574232617914,2.102145453379492,-0.020837385207414627,0.9586101770401001,1.2010454004236182,1.588596844761646,0.00988788902759552,0.3590790927410126,1.2090974826620917,1.6028230383788458,-0.4249876141548157,0.9897093176841736,0.016935884952545166,1.0482805013539478,1.6655425345805595,96.4875533912727,92.15487602529947,1.0,-0.0066940520336843615,0.01551519142545516,-0.07699742637424888,0.24007290109598914,128.46581189317686,1.266437394034305,67,2.2333333333333334
1.0485258347636177,1.0643015613814448,-0.18646667897701263,0.9996291399002075,0.9856504707857796,1.2086954119788464,0.03899082913994789,0.9999732971191406,0.9353097051669528,1.248823161763168,-0.3467530310153961,0.9999916553497314,1.069313482300223,1.649875352871168,0.1228352040052414,0.9999870657920837,1.033045877326685,1.6920716117696661,-0.12291178852319717,0.9999919533729553,1.3149290521784147,1.7057791177582529,0.18704229593276978,0.33587437868118286,1.328776761846021,1.7316640056335337,-0.16258561611175537,0.9715202450752258,1.2794635795701315,2.064301561381445,0.30113038420677185,0.4903552532196045,1.294133327063594,2.108179398973369,-0.017274171113967896,0.9548807740211487,1.2049777787265727,1.594099819538248,0.0184941403567791,0.35407498478889465,1.214295265197711,1.606920090105385,-0.43360456824302673,0.9902592897415161,0.016581803560256958,1.051179679813454,1.670973482320417,97.17307530493575,92.36838357714075,1.0,-0.0032967887304509473,0.0009568001475721237,0.02568106468595496,-0.1097367484711172,128.58324018799482,1.2706436646418584,68,2.2666666666666666
1.0481944332504445,1.0652536804128345,-0.19910761713981628,0.9996622204780579,0.9770010500673528,1.2093666036732083,0.028804859146475792,0.9999753832817078,0.934797765888447,1.2491167723528587,-0.358250230550766,0.9999922513961792,1.069214324064509,1.6504036947247194,0.12357586622238159,0.9999876022338867,1.0339634338739332,1.6921352314733606,-0.12366650998592377,0.9999922513961792,1.3133005428703184,1.7086157979397092,0.18665507435798645,0.3313468396663666,1.3299981506750325,1.732392359077,-0.16250547766685486,0.969856321811676,1.279906770354895,2.0652536804128347,0.29594409465789795,0.48352620005607605,1.2957434282761715,2.108082690152348,-0.018879281356930733,0.951680600643158,1.2044838229522803,1.5955483724749733,0.013254379853606224,0.35517510771751404,1.2140989418441053,1.6082106565132497,-0.45694699883461,0.9908028244972229,0.016418159008026123,1.0515888789692212,1.6712694630990401,98.06460549472396,92.53431355379767,1.0,-0.0006391494838675476,-0.0038994574571313005,0.02162996827812274,-0.039504935357840096,128.00257234300662,1.2681629445751792,69,2.3
1.04313813853579,1.0617130120333487,-0.19501981139183044,0.9996915459632874,0.964385439078186,1.206838256503023,0.024390099570155144,0.9999772310256958,0.9321893515141431,1.245278432031817,-0.3514711260795593,0.9999927878379822,1.06335974594153,1.64618825935289,0.12262429296970367,0.9999879598617554,1.0314180594073543,1.687568332044656,-0.12272020429372787,0.9999924302101135,1.3051442119195842,1.7114211453242314,0.18811611831188202,0.3237728178501129,1.3267260552137314,1.7282110375647048,-0.15268674492835999,0.9674444794654846,1.278205769628245,2.0617130120333487,0.3015328049659729,0.4733860492706299,1.292966642735458,2.1014918335470254,-0.00799446552991867,0.9477433562278748,1.195439435139036,1.5919509673140375,0.009688980877399445,0.3570180833339691,1.2093847856237727,1.6039604231160507,-0.4399011731147766,0.9913257956504822,0.015918642282485962,1.047388902674442,1.666878295698773,100.70121653284947,92.66852943565283,1.0,-0.010774962797923164,-0.00021053177212008555,-0.07507946855601189,0.027245259834345524,129.639748397589,1.2653687658129933,70,2.3333333333333335
1.042504536288546,1.0604579013071374,-0.20110872387886047,0.9997162222862244,0.9668802557227232,1.2056691323252435,0.021426308900117874,0.9999788999557495,0.9300303344850515,1.2442541484118657,-0.3575005829334259,0.9999932646751404,1.062780593267337,1.6442883625629565,0.12261144816875458,0.9999883770942688,1.029179074032416,1.6869035409128517,-0.12270766496658325,0.9999926090240479,1.3046506138799963,1.7107169066033527,0.18428952991962433,0.3222295641899109,1.3262525771219411,1.728077494908343,-0.1530427634716034,0.9653545618057251,1.277508346533526,2.0604579013071374,0.29357093572616577,0.4662794768810272,1.2924516431964737,2.0999930866696386,-0.005479380954056978,0.9435973167419434,1.1975021943169546,1.5916670557363342,0.0045395889319479465,0.3566049635410309,1.2095660637057997,1.603862573351622,-0.44210681319236755,0.9918071031570435,0.015984714031219482,1.0459798336498767,1.665595951737904,100.91972777283081,92.69787516196943,1.0,-0.007790689706011579,-0.004992167860622563,0.02298880718932492,-0.03688583483743963,129.41152499802072,1.2644596217208801,71,2.3666666666666667
1.0341862611002752,1.0568875722482587,-0.19550879299640656,0.9997389912605286,0.9635061574851481,1.2025248921788,0.0269034244120121,0.9999803900718689,0.925588428596472,1.2409549704455496,-0.3555294871330261,0.9999937415122986,1.0597077183137562,1.6401803326295585,0.12323455512523651,0.999988853931427,1.0244660461976967,1.6837072108438962,-0.12334167957305908,0.9999929070472717,1.301368281397204,1.706312007998391,0.18200667202472687,0.32901737093925476,1.32238465196444,1.7233588907650317,-0.15713106095790863,0.9654691815376282,1.2728117640583754,2.0568875722482587,0.2759702503681183,0.47051626443862915,1.2893671071555761,2.0952176203983366,-0.017914941534399986,0.9432737827301025,1.1959859076653137,1.5878825210143972,0.003446882124990225,0.35056501626968384,1.20748807944544,1.601210493575433,-0.437572181224823,0.9923478364944458,0.015960752964019775,1.0420868822557265,1.6619437717367274,100.64778455050815,92.50724621658694,1.0,-0.009588331321584001,0.00416227029250068,-0.01386430939849503,0.06974477681985179,128.6074317007098,1.2655651727573114,72,2.4
1.0344880228468207,1.058655597219014,-0.2089122235774994,0.9997618794441223,0.9654772223657971,1.2032200023279962,0.020039750263094902,0.9999818801879883,0.9272481051639654,1.2416929056933872,-0.36977651715278625,0.999994158744812,1.0591528635467446,1.6410939169858925,0.12493045628070831,0.9999892711639404,1.0248895978993173,1.6854377225446335,-0.1250430792570114,0.9999931454658508,1.3002305951419844,1.7075582830244622,0.18960662186145782,0.3282138705253601,1.3231443402941763,1.7246527555124935,-0.15889276564121246,0.9654764533042908,1.2716615854545184,2.0586555972190137,0.29561522603034973,0.470417857170105,1.2907179800517574,2.096688536571407,-0.01823362335562706,0.9424313306808472,1.199169418027495,1.5890368464654847,-0.006120539270341396,0.35812631249427795,1.2089356568967178,1.603787525027576,-0.46668142080307007,0.992859423160553,0.015967458486557007,1.042021230723031,1.663265819765263,100.76141827158685,92.50911017692023,1.0,-0.00660172109428665,0.0014122935431564523,0.025051449650674306,-0.023039485355481875,130.23227407635008,1.263722538710615,73,2.433333333333333
1.036334767906305,1.0589747292501728,-0.20673120021820068,0.9997813105583191,0.9703841693688929,1.2034401745873846,0.02389635145664215,0.9999831318855286,0.928248324717829,1.241029299225477,-0.3697649836540222,0.9999945163726807,1.059444143605319,1.6415111939561664,0.1274658739566803,0.9999895691871643,1.024863306496696,1.6862137736095781,-0.1275789439678192,0.9999933242797852,1.301762339612274,1.7078078392699971,0.19219622015953064,0.32404273748397827,1.3231211595288566,1.7253920995775989,-0.16307076811790466,0.9647464156150818,1.2716391077522449,2.0589747292501728,0.3074355125427246,0.46327272057533264,1.2911102170113264,2.096974959469298,-0.017759861424565315,0.9396187663078308,1.2071036459284425,1.588750944914509,-0.0020520188845694065,0.364702433347702,1.2091523519942713,1.6054795311428813,-0.46947160363197327,0.993238627910614,0.015600353479385376,1.0421537250510076,1.6638624837828722,100.3984431741234,92.55963700979238,1.0,0.0007566831811753126,0.0038137803995031802,0.04978511455645544,0.016247378430775325,130.78369115241503,1.2648665465762439,74,2.466666666666667
1.0357669992385699,1.057256933408057,-0.20275923609733582,0.9997988939285278,0.9687344131561815,1.201502917620605,0.028653565794229507,0.9999842047691345,0.9273113116454073,1.2387293364776912,-0.3641273081302643,0.9999948143959045,1.0575387958737974,1.6387442181277134,0.12751130759716034,0.9999896287918091,1.023102973132887,1.6835085941528878,-0.127625972032547,0.9999933242797852,1.299638008881105,1.704805554324976,0.1901497095823288,0.32207977771759033,1.3205520317968389,1.7223732131446547,-0.1624399721622467,0.9634025692939758,1.2693671843559737,2.057256933408057,0.3000018894672394,0.45901137590408325,1.288906303382364,2.093450597294665,-0.01699087955057621,0.9368038177490234,1.2065035391230408,1.5862213125013171,0.008543751202523708,0.36723777651786804,1.2062279848711828,1.603708254857002,-0.4601169526576996,0.993604302406311,0.01547667384147644,1.040320884503342,1.6611264061403006,100.3537801717693,92.56965307138746,1.0,-0.00018785061746818795,0.0011445275301974814,-0.00716445638535235,-0.020224677425345422,130.9493505559597,1.2629864021913086,75,2.5
1.0353494199617035,1.0545287696331367,-0.21056726574897766,0.9998146891593933,0.9734691928182857,1.197160965048767,0.02140866592526436,0.9999852776527405,0.9264201941284861,1.237369826666596,-0.36991244554519653,0.9999951124191284,1.0597644875675596,1.6339527081939154,0.1272852122783661,0.9999898672103882,1.0229135426665794,1.6814636209220208,-0.12740109860897064,0.9999934434890747,1.2989788914378135,1.7023099711710077,0.18850266933441162,0.3163907825946808,1.3190325911823753,1.720438253384947,-0.16226068139076233,0.9615952372550964,1.2678352449791284,2.0545287696331367,0.29835349321365356,0.45100730657577515,1.2871439821357915,2.091277679577585,-0.014434521086513996,0.9335558414459229,1.2052867425730367,1.5827691098584957,-0.003922286443412304,0.3649410307407379,1.203538472047649,1.6022315080795217,-0.4603710174560547,0.9937999844551086,0.016735464334487915,1.0413390151170696,1.657708164557968,100.89464828068799,92.58327027797957,1.0,0.017295294368794293,-0.01221206829374746,0.13804979362277542,-0.10545697531559149,131.02594122023865,1.2628496235026159,76,2.533333333333333
