nose_x,nose_y,nose_z,nose_visibility,left_shoulder_x,left_shoulder_y,left_shoulder_z,left_shoulder_visibility,right_shoulder_x,right_shoulder_y,right_shoulder_z,right_shoulder_visibility,left_hip_x,left_hip_y,left_hip_z,left_hip_visibility,right_hip_x,right_hip_y,right_hip_z,right_hip_visibility,left_knee_x,left_knee_y,left_knee_z,left_knee_visibility,right_knee_x,right_knee_y,right_knee_z,right_knee_visibility,left_ankle_x,left_ankle_y,left_ankle_z,left_ankle_visibility,right_ankle_x,right_ankle_y,right_ankle_z,right_ankle_visibility,left_wrist_x,left_wrist_y,left_wrist_z,left_wrist_visibility,right_wrist_x,right_wrist_y,right_wrist_z,right_wrist_visibility,trunk_lateral_inclination,center_mass_x,center_mass_y,left_knee_angle,right_knee_angle,person_height,center_mass_velocity_x,center_mass_velocity_y,center_mass_acceleration_x,center_mass_acceleration_y,body_orientation,torso_leg_ratio,frame,timestamp
0.6005313546623646,0.2990739743291063,0.38254639506340027,0.9999970197677612,0.5158068764613389,0.45561857424591184,0.13214805722236633,0.9999986886978149,0.690985352054911,0.43040133241010353,0.11030340194702148,0.999995231628418,0.5685168387772094,0.7490548954000962,0.0166533924639225,0.9999920129776001,0.6522035351827781,0.7353918026797459,-0.01690196804702282,0.9999918937683105,0.6050939929278174,1.0653162105353327,0.11866164207458496,0.99305659532547,0.6888004415409286,1.0662463083245781,0.046903304755687714,0.9751108884811401,0.6133711007438836,1.304049746036093,0.25038689374923706,0.9914122819900513,0.6902995813667652,1.2990739743291064,0.2047382891178131,0.9882950186729431,0.5020938151173906,0.8294931040054719,0.1755792647600174,0.9961472153663635,0.7706866856980065,0.8217855249333698,0.18188656866550446,0.9889296293258667,0.018529385328292847,0.6103601869799937,0.742223349039921,175.3884772401799,174.05689802475084,1.0,-0.2510735183332166,-0.03332659472913716,-1.3076956389780205,-0.1885381599171038,90.91086332104614,0.7902972937726731,0,0.0
0.5218790740139854,0.21865010826294093,0.46025246381759644,0.9999973177909851,0.44337493148766005,0.3791168832809907,0.18940113484859467,0.9999988079071045,0.6151337682639749,0.3694589660621596,0.15699011087417603,0.9999957084655762,0.4924138206917658,0.6772931288496623,0.024853672832250595,0.9999927878379822,0.5862688448090501,0.6667604330829995,-0.025183936581015587,0.9999926686286926,0.5208714370322102,0.9726601799119007,0.13617654144763947,0.993720293045044,0.612647970282163,0.9858855395308059,0.043883487582206726,0.9775835275650024,0.5219370021369337,1.2283427042661597,0.2337653934955597,0.9921260476112366,0.6186280551117229,1.2186501082629408,0.17928531765937805,0.9892643094062805,0.43044890266582775,0.7289391740333497,0.21447062492370605,0.9964857697486877,0.6807093973063316,0.7237409768828987,0.15796759724617004,0.9899787306785583,0.008108943700790405,0.539341332750408,0.6720267809663308,174.73551244429345,176.7463241926294,1.0,0.03778022779114607,0.16374225577450047,1.8765084038899604,1.405760430825867,92.93630119300305,0.8214403522703612,1,0.03333333333333333
0.5364569769962547,0.226978952446062,0.402355819940567,0.9999973177909851,0.4535187090842859,0.3778695100821467,0.15118800103664398,0.9999988675117493,0.6379411912163987,0.3742074217062635,0.10151071846485138,0.9999960660934448,0.5128991757509733,0.7024578363146841,0.028240006417036057,0.9999926686286926,0.6094341726956941,0.6915777001065079,-0.028531989082694054,0.9999929666519165,0.5362516016122444,1.0072461084796804,0.16395092010498047,0.9942053556442261,0.6295585075389148,1.0090297625723277,0.07057216763496399,0.979728639125824,0.5501095344533589,1.2348835983758797,0.29006704688072205,0.9917740821838379,0.6354759544322177,1.226978952446062,0.2024393528699875,0.9891616106033325,0.4424560047762773,0.7544096080974572,0.20757201313972473,0.9967353343963623,0.6984369450620299,0.7477503936407288,0.07997547835111618,0.9908810257911682,0.002981215715408325,0.5611666742233338,0.6970177682105959,179.1023495707573,177.92791669114254,1.0,0.037914722355621586,0.03020463740768468,-0.008124367537057316,-1.0721520450957043,93.93662161282262,0.8800361501271363,2,0.06666666666666667
0.5371982874303941,0.2375796615821552,0.1758328676223755,0.9999962449073792,0.46166862874280445,0.3739238300861766,-0.021878588944673538,0.9999987483024597,0.6429189437585366,0.3662067017873951,-0.04752134531736374,0.9999961853027344,0.5176148354174266,0.7175532143939164,0.029650935903191566,0.9999853372573853,0.6156250079155446,0.7052508152965068,-0.029871216043829918,0.99998939037323,0.5410538780882417,1.015058825757911,0.20587384700775146,0.9928120374679565,0.6321656970453369,1.0122945064964,0.09731889516115189,0.9802765846252441,0.5571869051984452,1.2512211597476026,0.36186379194259644,0.9861496090888977,0.6370846596726965,1.2375796615821553,0.25583431124687195,0.9830411076545715,0.4474200977852884,0.7644940734459019,0.0147768035531044,0.9963462948799133,0.6958700735439904,0.7484996257255182,-0.03174593672156334,0.9911730885505676,0.006265044212341309,0.5666199216664857,0.7114020148452116,179.4032368535296,178.16723048248042,1.0,0.030986208626034864,0.09887166207099822,-0.055800215991996915,0.5441405019654407,92.09273167974577,0.8892290776308354,3,0.1
0.535059687653116,0.22313566128224263,0.22462376952171326,0.9999892115592957,0.4544945402229929,0.3580207345475703,-0.013191888108849525,0.9999983906745911,0.6363078239294228,0.35506564373722943,-0.05140643194317818,0.999995768070221,0.5100620095179508,0.710298363846254,0.02880087122321129,0.9999670386314392,0.6072946566398364,0.6964261664295672,-0.028966400772333145,0.9999785423278809,0.5346354703028547,1.005853419888901,0.21083009243011475,0.9898948073387146,0.6249005831230058,1.0065786502683818,0.11650793254375458,0.9786450862884521,0.5461647189198382,1.2313595315828276,0.3808307945728302,0.9696325659751892,0.6303320155220766,1.2231356612822426,0.2935076951980591,0.9645586013793945,0.44426814648181595,0.7504560109903475,0.06651853770017624,0.9939919710159302,0.6834063195658668,0.7397282431022123,-0.04125365987420082,0.9896159768104553,0.0024289488792419434,0.5586783330788936,0.7033622651379106,178.17392577681136,178.18779471013903,1.0,-0.007052258681057386,0.005232065002575653,-0.2746923580147547,-0.674183703920545,90.84424563938668,0.91631096772444,4,0.13333333333333333
0.5402528207933104,0.22547758827833672,0.168316051363945,0.9999505877494812,0.4564843822033631,0.35423459697619386,-0.03986503556370735,0.9999964237213135,0.6358476118711706,0.3595873841904577,-0.08755893260240555,0.9999942183494568,0.505864151961515,0.7126917631417526,0.029386594891548157,0.9999353289604187,0.6053267873707857,0.6979907596171419,-0.0295523963868618,0.9999604821205139,0.536998973603442,1.0096819372450336,0.19719406962394714,0.979544997215271,0.6264295761235824,1.0060451542233488,0.1094835177063942,0.966457724571228,0.5489086519407924,1.2455847148223633,0.33416277170181274,0.9460328817367554,0.6283562730849137,1.2254775882783366,0.2604672908782959,0.9340887069702148,0.4471048324690228,0.7501348054306016,0.0523267462849617,0.962016761302948,0.6801744948579146,0.740340841210213,-0.05519946292042732,0.9805446267127991,0.004393726587295532,0.5555954696661504,0.7053412613794473,176.9054396422455,176.5842287515209,1.0,-0.028641929956653628,0.007558577953887033,-0.16062096553507038,0.017262993750719248,89.43580503611197,0.9037864206963663,5,0.16666666666666666
0.5453825401381479,0.21924486558858403,0.15108326077461243,0.999882698059082,0.45816230178022593,0.3553556129946171,-0.04266408458352089,0.999993622303009,0.6394701665996193,0.3594476416045704,-0.10473711788654327,0.9999913573265076,0.5071573755317135,0.7197582793763173,0.025053679943084717,0.9998964667320251,0.6083966879212267,0.7031394576567659,-0.025212492793798447,0.9999334216117859,0.5406842769626123,1.0104048262427863,0.20325186848640442,0.9720252156257629,0.6288120800498059,1.007491967993791,0.1275070607662201,0.9529047608375549,0.5546438654583796,1.2415114942759304,0.34564968943595886,0.9305343627929688,0.6322933880605126,1.2192448655885841,0.2883898913860321,0.9049250483512878,0.44884604990147137,0.7538352123006313,0.020820006728172302,0.937406599521637,0.6820053518746332,0.7433939871830736,-0.060691505670547485,0.9734993577003479,0.003343731164932251,0.5577770317264701,0.7114488685165417,176.8765027762115,177.1043381857493,1.0,-0.002679884060658049,0.023542235368856735,0.21060814733863928,0.12874194807767594,88.33549007936051,0.946561326858811,6,0.2
0.538621862405217,0.22963619081079345,0.12566323578357697,0.9998173117637634,0.4567151427439675,0.3620268611739335,-0.08271687477827072,0.9999911189079285,0.6406749772365113,0.3578860129199113,-0.12497832626104355,0.9999875426292419,0.5123324320097261,0.7316251788927477,0.023731786757707596,0.9998661875724792,0.6151458249339008,0.7128658436197046,-0.023898938670754433,0.9999101758003235,0.5449278064864858,1.0189409578746598,0.2097698450088501,0.9619969725608826,0.634804817101996,1.0182516743655285,0.13234549760818481,0.9372807741165161,0.560593601487217,1.2464231193365642,0.3565836548805237,0.9152883887290955,0.6371460574402434,1.2296361908107933,0.2853342890739441,0.8796820640563965,0.45006999823304006,0.7612282658593114,-0.005946686957031488,0.9176409244537354,0.6854869349744761,0.7511705650205605,-0.07343746721744537,0.955571174621582,0.0033565759658813477,0.5637391284718135,0.7222455112562262,177.46709989421763,176.95127521742586,1.0,0.011061866716141906,0.03816968257145572,0.10374517569583694,0.10882864634965496,88.21723977916679,0.9540966263586912,7,0.23333333333333334
0.5254415092974397,0.22394273554608993,0.09922477602958679,0.9996979832649231,0.4470438227743525,0.35775079302783236,-0.10924818366765976,0.9999860525131226,0.6321789831880259,0.35053650907218614,-0.14358697831630707,0.9999786615371704,0.5072902605515526,0.7272472139813193,0.02395729161798954,0.9998072981834412,0.6078038405674816,0.7086004617526377,-0.024122310802340508,0.9998645186424255,0.539630689696759,1.0091663064090843,0.22332000732421875,0.9522804021835327,0.6268103453797167,1.0049334620106225,0.14260278642177582,0.9205273389816284,0.5534689353335659,1.2332781590537876,0.37294358015060425,0.9011688828468323,0.6303521338773118,1.22394273554609,0.29274946451187134,0.8560484051704407,0.4437886678915939,0.7534194503024794,-0.014261765405535698,0.8861293196678162,0.6721389531834847,0.7420513557517785,-0.0738217681646347,0.9219315648078918,0.005924999713897705,0.557547050559517,0.7179238378669786,176.98926348239974,177.25663125859222,1.0,0.008699578404227587,0.03863165165661444,-0.01688355546724765,0.007295877121142761,88.75085968958614,0.9671396441029089,8,0.26666666666666666
0.5296771501685478,0.23070383347634685,0.11176203191280365,0.9995766282081604,0.44960903385443995,0.35769529515193266,-0.1048017144203186,0.9999811053276062,0.63681440210849,0.35327913708199415,-0.14201977849006653,0.9999701380729675,0.5088971715279762,0.7317562265348594,0.02522960677742958,0.9996185898780823,0.6088550118943911,0.714617118990028,-0.025396138429641724,0.9997186660766602,0.5416824780423114,1.0107697709980212,0.20920176804065704,0.9286175966262817,0.6283006980487824,1.0069849180356443,0.1277204304933548,0.8848026394844055,0.5568730915140029,1.2344901389670127,0.3523358404636383,0.8620851635932922,0.6307405098156414,1.230703833476347,0.2806459367275238,0.8051941394805908,0.44329006372604735,0.752522006711407,-0.019017955288290977,0.8612066507339478,0.6740062436928498,0.7402191647308701,-0.07667635381221771,0.9019343852996826,0.00362434983253479,0.5588760917111837,0.7231866727624437,177.18264932651687,176.81962850971078,1.0,0.0075804550298000295,0.03866475366661746,-0.009158454204925521,4.518771299164619e-05,89.27686616255663,0.966197006259422,9,0.3
0.5305758079100736,0.23248403512551363,0.13398604094982147,0.9995284676551819,0.4525618470640058,0.35449872551285094,-0.10403509438037872,0.9999788999557495,0.6373273399068856,0.35158860364945993,-0.13999775052070618,0.9999672174453735,0.5062795402440775,0.7297000323105336,0.02897598221898079,0.9995230436325073,0.609277898341453,0.7120766253107779,-0.02914534881711006,0.9996498823165894,0.5389883216152397,1.0097744617513642,0.2164735496044159,0.9120960235595703,0.6271411525404275,1.0068233992029103,0.12191803753376007,0.8631704449653625,0.5571537760390909,1.235925951126387,0.35466593503952026,0.8288936614990234,0.6287395058698435,1.2324840351255137,0.27359482645988464,0.7624061703681946,0.4384644475076289,0.7539445987751272,-0.018920360133051872,0.8580986857414246,0.6748430649341728,0.7402914237670314,-0.11172479391098022,0.8994187712669373,0.002393782138824463,0.5577787192927652,0.7208883288106557,177.93120995546604,176.9376258672673,1.0,0.001227458414041093,-0.004660578661124947,-0.045075470900595285,-0.3076104420676719,88.43818783292983,0.9507116628251547,10,0.3333333333333333
0.5371551647226419,0.23476613682443365,0.1397077888250351,0.9994153380393982,0.45735031456406244,0.35384889058512004,-0.09713508188724518,0.9999755620956421,0.6409804025043836,0.35023945092258324,-0.13726037740707397,0.9999577403068542,0.5091398951433688,0.7314752993300535,0.027744796127080917,0.9993393421173096,0.6129338631172544,0.71467867466163,-0.02791598066687584,0.9994794130325317,0.5412043497250297,1.0165538280950694,0.2047537863254547,0.9020869731903076,0.6304414567969338,1.0096215522303464,0.12029732763767242,0.8372979164123535,0.5601624178602647,1.238857743803913,0.349931925535202,0.8007608652114868,0.6314399039484802,1.2347661368244336,0.2785297632217407,0.718450129032135,0.44157360315071376,0.7579989480515921,-0.018174542114138603,0.8540077805519104,0.677684596827944,0.7467630282119267,-0.09271162748336792,0.8905742764472961,0.0029515624046325684,0.5610368791303115,0.7230769869958418,178.45696650779195,176.85703805253704,1.0,-0.0003041784240924074,-0.015369512298085307,-0.011396622744882188,-0.07910307812583638,88.61682223720325,0.9494736323552053,11,0.36666666666666664
0.5403131327416054,0.23461021777181518,0.1496637761592865,0.9990113973617554,0.4569415544658011,0.3561382579319407,-0.0965682715177536,0.9999685883522034,0.6420111862363792,0.3499163733151989,-0.13335660099983215,0.9999445080757141,0.5117281776864326,0.7324891623171333,0.026920929551124573,0.9992309808731079,0.6162155373190792,0.7161259061371521,-0.027090419083833694,0.9993813037872314,0.5439038677540651,1.0194154065500036,0.2038576602935791,0.89620041847229,0.6328780580016679,1.0119796714525755,0.12742260098457336,0.8149732351303101,0.5618014947457037,1.2425857265210123,0.35061928629875183,0.7852256894111633,0.6336082194861471,1.2346102177718152,0.2896856665611267,0.6849022507667542,0.44297460940083094,0.7612062620402057,-0.022330665960907936,0.8326147198677063,0.6806107461675622,0.7501565971021208,-0.0911310464143753,0.8717612624168396,0.005068391561508179,0.5639718575027559,0.7243075342271428,178.18677192529245,176.9644123102191,1.0,0.005940574742988951,-0.011749291259418466,0.047492328455765384,0.027975826226335727,89.38203250369885,0.9512447866320413,12,0.4
0.5276544866504616,0.22270242843622165,0.15328966081142426,0.9989578723907471,0.44948531346122256,0.3486786235189092,-0.08257235586643219,0.9999651312828064,0.6324181567353895,0.3435748703073586,-0.1281665861606598,0.9999361038208008,0.5027902106690646,0.7221835136225281,0.02588058076798916,0.9991056323051453,0.6069411144650817,0.7050644996742695,-0.02605416253209114,0.999264121055603,0.5363336114318129,1.008906712354875,0.2041739672422409,0.889338493347168,0.6241784840489456,0.9994759102826778,0.12899836897850037,0.8006410002708435,0.554591464798845,1.235457285678301,0.3480478823184967,0.7678952217102051,0.6249592273490231,1.2227024284362216,0.29200559854507446,0.6560715436935425,0.43706723966853933,0.7508756315591227,-0.004458392038941383,0.8214348554611206,0.6705850724405369,0.738523082504372,-0.06560778617858887,0.8507628440856934,0.0042178332805633545,0.5548656625670731,0.7136240066483989,177.93491209103487,176.84963216080064,1.0,-0.008225811930714387,-0.0026106982349260537,-0.11072270011872941,0.07053641563620003,88.78804576862962,0.9516823805074061,13,0.43333333333333335
0.5246660860729365,0.2183857974123033,0.13811233639717102,0.998963475227356,0.4460881891999927,0.34712902826463304,-0.08391343802213669,0.9999624490737915,0.6304999021354047,0.34056339651216483,-0.1255442202091217,0.9999330043792725,0.5001398373929936,0.7200392810717932,0.025188570842146873,0.9990109205245972,0.6048834756727894,0.7029428649876445,-0.02536299265921116,0.9991912245750427,0.5346042878719619,1.0074346161280134,0.20705246925354004,0.8775525689125061,0.6227300071551571,0.9981233447809613,0.1289954036474228,0.7783401012420654,0.5532876497614241,1.2299970485965872,0.3543274700641632,0.743098258972168,0.6231418944557136,1.2183857974123034,0.296525776386261,0.6209447979927063,0.43514465437397193,0.7480165425334061,-0.006926500704139471,0.8096787333488464,0.6701620739841954,0.7366243267717898,-0.06930285692214966,0.84332275390625,0.005440384149551392,0.5525116565328916,0.7114910730297188,177.96028064295282,176.64726645533273,1.0,-0.006880442919936868,-0.0018740626032742944,0.010319463967160625,0.0056894070849135515,88.97716839003881,0.9609833877162436,14,0.4666666666666667
0.5260726932740434,0.21853286513368514,0.1494443565607071,0.9989559054374695,0.44754397905416055,0.34895826394439505,-0.08441418409347534,0.9999605417251587,0.632653490371918,0.3418106841957558,-0.12281115353107452,0.999931275844574,0.5003984560386614,0.7202644169539624,0.023602765053510666,0.9989248514175415,0.6055363713019761,0.7033547002653517,-0.023780953139066696,0.9991251826286316,0.5352805348716008,1.0085203194936174,0.2040424793958664,0.8701074123382568,0.6236315181103058,0.9994395114135367,0.12669220566749573,0.7574833035469055,0.5530135929464424,1.2303888946780517,0.35257822275161743,0.7202287912368774,0.6239329706636831,1.218532865133685,0.29112258553504944,0.5850868821144104,0.4358132546800941,0.7482274899523617,-0.006818342953920364,0.7972130179405212,0.6707852219691074,0.7397278386103974,-0.07270844280719757,0.8382393717765808,0.00591588020324707,0.5529674136703188,0.711809558609657,177.6698465330894,176.5815667453374,1.0,-0.0013037081825765988,-0.0037204983092690162,0.0424787238230116,-0.01402869434014177,88.96463575788968,0.96133094067726,15,0.5
0.5240246953247897,0.21356687453013642,0.1371711641550064,0.9989575147628784,0.44741002188428375,0.34858096606415595,-0.10082411766052246,0.9999573230743408,0.6301163158157702,0.3395680892572359,-0.11009780317544937,0.9999255537986755,0.5000785867975077,0.7176637843135514,0.01695641316473484,0.9987812042236328,0.603531104575517,0.7006538016105405,-0.01713046245276928,0.9989962577819824,0.5338862126680195,1.0048508173932917,0.20211441814899445,0.8593164086341858,0.6210519507977219,0.9958376176637933,0.12914231419563293,0.7284538745880127,0.5503685039974676,1.2254771203522583,0.35025984048843384,0.6943855285644531,0.6220967129800434,1.2135668745301365,0.2984415590763092,0.5468457341194153,0.4322208202000272,0.7453139942177124,-0.02496650256216526,0.7884968519210815,0.6672859245313788,0.7367571917325003,-0.07361788302659988,0.8254142999649048,0.007486134767532349,0.5518048456865123,0.7091587929620459,177.55849670989775,176.8780821101228,1.0,0.006087771415502682,-0.0010924847622951058,0.05714334151874027,0.020228278425466685,88.78414287743307,0.9703740661717797,16,0.5333333333333333
0.5203812700319415,0.21453185999320387,0.13207882642745972,0.9989166855812073,0.4492321457956413,0.3498385401814357,-0.10056004673242569,0.999952495098114,0.6307949632409409,0.3380869292006043,-0.11166133731603622,0.9999171495437622,0.5018909730341298,0.7182164116079953,0.017011230811476707,0.9987022280693054,0.6051100048647797,0.7017767814750483,-0.017186395823955536,0.9989218711853027,0.5346269411374238,1.007956759271234,0.2016746699810028,0.8473852872848511,0.6219833220648631,0.9971593748744598,0.12829944491386414,0.7045300006866455,0.5497985470728325,1.228415022777648,0.3494780659675598,0.6788477301597595,0.6232608727107428,1.2145318599932038,0.29505282640457153,0.520222544670105,0.4329716128915134,0.7463343889416988,-0.030555222183465958,0.7695302367210388,0.6680660959365474,0.7381084266198804,-0.08328486233949661,0.7962188124656677,0.009742319583892822,0.5535004889494547,0.7099965965415218,177.49064325206135,177.06734909357723,1.0,0.004871936822183156,-0.00393355996012511,-0.009329092459888553,-0.021577049817423366,89.08574071279308,0.9688358752302698,17,0.5666666666666667
0.5226901889136678,0.21661654500800998,0.10545428842306137,0.9988897442817688,0.4513109008959636,0.35069494550789704,-0.11963454633951187,0.9999497532844543,0.6323833872887467,0.3388660467009694,-0.1285809576511383,0.9999104738235474,0.5031835837758816,0.7201286642668948,0.01626994088292122,0.9986532330513,0.607632176890595,0.7031793608806625,-0.01645224168896675,0.9988718628883362,0.5361734753825926,1.00917978871904,0.20195560157299042,0.841412365436554,0.6234669530164353,0.9994166135111533,0.12860800325870514,0.6871777772903442,0.5513927248955636,1.2305201032332136,0.35048922896385193,0.6698222756385803,0.624788373317341,1.21661654500801,0.2971689999103546,0.5010049343109131,0.4336516682904275,0.7477609557377526,-0.0509982593357563,0.763154149055481,0.6710368587770517,0.7387814662893877,-0.0952000543475151,0.7814887762069702,0.009783893823623657,0.5554078803332383,0.7116540125737786,177.4223479615781,177.28885624277186,1.0,0.004735934869218874,0.00018447328849241393,-0.0010986273279702222,0.03080132804644389,88.77544728588668,0.9671702233930344,18,0.6
0.5241983479218978,0.2180967087761787,0.12738202512264252,0.9986981749534607,0.4528454897885163,0.34935494662752237,-0.11302651464939117,0.9999407529830933,0.6332891093360344,0.3398418025702502,-0.10160066187381744,0.9998998641967773,0.5044483878335966,0.7212254881478274,0.010197393596172333,0.9985464811325073,0.6104535349762303,0.7043558847442191,-0.010397651232779026,0.9987792372703552,0.537329454761522,1.0103897484556723,0.2005174458026886,0.8371327519416809,0.624923725562376,1.0011762602598335,0.13615523278713226,0.6658397912979126,0.5525537846804235,1.2318636231916886,0.3468427062034607,0.6605421900749207,0.62585998317256,1.2180967087761787,0.30901554226875305,0.4762640595436096,0.4348202565701786,0.74519607992664,-0.06363850086927414,0.7500298023223877,0.6729256272453997,0.7400322957615265,-0.09141365438699722,0.7745885252952576,0.007853835821151733,0.5574509614049135,0.7127906864460232,177.44510373741457,177.45629701824248,1.0,0.007545795375060511,-0.0014341503079617268,0.020996315931514117,-0.012135695154497375,88.8580446086265,0.9661637866967335,19,0.6333333333333333
0.5244986125099396,0.2178282806787379,0.14624133706092834,0.9986824989318848,0.4517637037680801,0.3494046504204688,-0.10675676167011261,0.9999364614486694,0.6327948426978125,0.33897838073134284,-0.09303727746009827,0.9998976588249207,0.5045740434291326,0.7218177103981044,0.007334848400205374,0.9984487295150757,0.6104842240809574,0.7046932178080015,-0.007533717900514603,0.9987077713012695,0.5364174576699026,1.0098610330470477,0.19765670597553253,0.835867702960968,0.6246431953845485,1.0009002398011357,0.14067605137825012,0.6527579426765442,0.5522999776478127,1.2306393730504646,0.3426665663719177,0.6506219506263733,0.625510941611284,1.217828280678738,0.3115047514438629,0.45660436153411865,0.43409607593991906,0.7442217142126805,-0.06134038418531418,0.7481954097747803,0.673482499106968,0.7379081098675407,-0.07705177366733551,0.7842152714729309,0.008611232042312622,0.557529133755045,0.713255464103053,177.80622222216653,177.49248243820225,1.0,0.0024348143459686027,0.0060032837396140635,-0.04046271466805851,0.05891191512170269,88.88646289660865,0.9698892806000631,20,0.6666666666666666
0.5223385495297095,0.2164349497220248,0.15169167518615723,0.9986255764961243,0.4504025730961613,0.348531900687437,-0.10568205267190933,0.9999286532402039,0.6309905369638193,0.3377762231185667,-0.0811847373843193,0.999893844127655,0.5058539031800785,0.7207016596596929,0.0024112272076308727,0.9983178377151489,0.6097833793177702,0.7031317711227718,-0.0026147114112973213,0.9986173510551453,0.5350816962997985,1.009597931140334,0.19647732377052307,0.8402283787727356,0.6231071718679657,0.998059445307823,0.14447081089019775,0.649517834186554,0.5510695923204746,1.227067753386892,0.3436962962150574,0.6542065739631653,0.6238652901790153,1.2164349497220248,0.3162679374217987,0.4489749073982239,0.43352828618275213,0.7404893249876735,-0.054298579692840576,0.7480815649032593,0.6723819827914269,0.7276627866430164,-0.06562843173742294,0.7966408133506775,0.008906185626983643,0.5578186412489243,0.7119167153912324,178.4277048254935,177.6122462197062,1.0,0.012818098247033052,0.0036793408617233226,0.07731760187548635,-0.017179654793635882,88.87896444899393,0.9726907588909232,21,0.7
0.5225455502762897,0.21649438103297705,0.14673663675785065,0.9986299872398376,0.45049345203311536,0.3482598304402576,-0.09718967229127884,0.9999222159385681,0.6305571452191114,0.3362392758866258,-0.08739630877971649,0.9998952150344849,0.5053948112710016,0.7210040450921797,0.0038480968214571476,0.9981799125671387,0.6099045976427636,0.7029752458086723,-0.004049092065542936,0.9985458254814148,0.5342998231935981,1.010140286749564,0.1891355663537979,0.8396767377853394,0.6231578829221305,0.9973885549116479,0.13605523109436035,0.6426844596862793,0.5507780589687554,1.2276829583637976,0.33402442932128906,0.6490267515182495,0.623768942078384,1.2164943810329771,0.3069331645965576,0.43651387095451355,0.4338679015726373,0.7395684294880327,-0.051748327910900116,0.7452830672264099,0.6741215691866748,0.7253478677107651,-0.0687965378165245,0.8114153742790222,0.009958237409591675,0.5576497044568826,0.7119896454504261,178.62281620830643,177.58230845519893,1.0,0.0007153130635020966,0.0031315000742100675,-0.0930132373257845,-0.004199116395387143,88.5911681357459,0.972165144676407,22,0.7333333333333333
0.5194098127827148,0.21397690011876377,0.17338423430919647,0.9985939264297485,0.44779297209962104,0.34597244063862553,-0.06383213400840759,0.99991774559021,0.626364925928165,0.3336323678042146,-0.08269714564085007,0.9998970627784729,0.5018874804903999,0.716349110595976,0.008719474077224731,0.9980247616767883,0.6058971508581044,0.6983529312868751,-0.008924785070121288,0.9984622597694397,0.5309205282461411,1.0050915680410166,0.19383689761161804,0.8354823589324951,0.6191821657106779,0.9919848266022104,0.12914159893989563,0.6384307146072388,0.5472972000977359,1.22212801235562,0.3360225260257721,0.6372078061103821,0.6196593008497705,1.2139769001187637,0.2999957203865051,0.42265236377716064,0.4314472157458027,0.7332721468574066,0.0002272746933158487,0.7454831600189209,0.6711252056394371,0.7196037798324055,-0.051493577659130096,0.8258054256439209,0.010289818048477173,0.5538923156742521,0.7073510209414255,178.57333441669837,177.53263696250022,1.0,-0.0009708937047045672,-7.967780974973576e-05,-0.012291053799385087,-0.02332277749654822,88.49308904346313,0.9668049214937211,23,0.7666666666666667
0.5170964044733046,0.21334172507328014,0.1697203814983368,0.9986526370048523,0.44531310569445687,0.34650484441421286,-0.062101639807224274,0.9999175667762756,0.6246176146530923,0.3324801945074482,-0.08723348379135132,0.9999011158943176,0.5002489324796131,0.7148596736891576,0.015515046194195747,0.997948408126831,0.6046394522247697,0.6967554738972603,-0.01571846939623356,0.998430609703064,0.5299355240354631,1.00270698354456,0.19742050766944885,0.8295667767524719,0.6179336861709345,0.9901614643033321,0.1121678352355957,0.6359415650367737,0.5462768021092995,1.22048686752089,0.3339780867099762,0.6257835030555725,0.618137647613661,1.21334172507328,0.2678261399269104,0.4116886854171753,0.4308695465216236,0.7312844553896856,-0.007670487277209759,0.7472183108329773,0.6704138428681117,0.7176889520581994,-0.07688161730766296,0.8378878831863403,0.01171758770942688,0.5524441923521914,0.7058075737932089,178.40291577941193,177.4580627883938,1.0,-0.0027170988697148356,-0.0011431133950577793,-0.013297332403924793,-0.008090385259583615,88.64366750585712,0.9643712732537767,24,0.8
0.5162799634544295,0.21309401952634188,0.16268706321716309,0.9987212419509888,0.44474850421748957,0.3463136838577412,-0.062488604336977005,0.9999167919158936,0.6233804339334268,0.33202330182492124,-0.10436059534549713,0.999906599521637,0.4983658256043611,0.7136323822981734,0.02129034325480461,0.9978908896446228,0.6033597768125064,0.6955620661878197,-0.021497420966625214,0.9984301328659058,0.5290727647547329,1.0008268260838633,0.20684650540351868,0.8247911930084229,0.6167434632133966,0.9886043282529464,0.11385323107242584,0.6389219164848328,0.5453341050376783,1.2185117600520794,0.34600895643234253,0.6177869439125061,0.6167086382388048,1.213094019526342,0.27412670850753784,0.4080403447151184,0.43041425268702455,0.731815363254752,0.007642841432243586,0.7521176934242249,0.670650316163054,0.7146950069318792,-0.08116348087787628,0.8519852161407471,0.01196029782295227,0.5508628012084338,0.7045972242429965,178.16923157092262,177.37614339129848,1.0,-0.004940032790025125,8.434408041702451e-05,-0.017588359088235514,0.00967581590440318,88.53938291713823,0.9621607059893216,25,0.8333333333333334
0.5143609793360281,0.21294729734983536,0.15556475520133972,0.9987785220146179,0.44333449207981435,0.34655394857719507,-0.06697438657283783,0.9999158978462219,0.6227350191381951,0.33149432863974815,-0.12121071666479111,0.9999116063117981,0.49793034723195684,0.7137038901165681,0.023319866508245468,0.9978653192520142,0.6034646240766456,0.6956362072947172,-0.023532604798674583,0.9984448552131653,0.5291880782315763,1.0008727197163114,0.20527954399585724,0.8232030272483826,0.616407654266429,0.9888512251264061,0.10693435370922089,0.6419969201087952,0.5455347562768615,1.2189852932043856,0.33459141850471497,0.6153879761695862,0.6145840310582288,1.2129472973498354,0.2624189853668213,0.40547192096710205,0.43076994972569516,0.7323471052599568,0.0009214784950017929,0.7571535110473633,0.6717403959557652,0.7138470786258255,-0.10873717069625854,0.8647647500038147,0.012600332498550415,0.5506974856543012,0.7046700487056426,178.07400964498234,177.0062588669064,1.0,-0.002542605434165173,-0.0010647862575974664,0.018458776775517265,-0.008842359037675575,88.74303788270718,0.9627517120412133,26,0.8666666666666667
0.5114919357272023,0.20887679504144682,0.1556832492351532,0.9988263249397278,0.44196326990808,0.3430959605759127,-0.06306523829698563,0.9999156594276428,0.6203009229628497,0.3289891184481178,-0.11726097762584686,0.9999161958694458,0.49612641431030813,0.711214783478977,0.02482597902417183,0.9977957606315613,0.6013445554506479,0.6930348937932109,-0.025031903758645058,0.9984273910522461,0.5272564163784071,0.9973381655713125,0.20592384040355682,0.8219218850135803,0.614088035418805,0.9855482972118859,0.10703960806131363,0.6455180644989014,0.5437067845930386,1.2154516886600089,0.3385947346687317,0.6132106781005859,0.6114355014011318,1.2088767950414467,0.2641834020614624,0.40443292260169983,0.4293811627203461,0.7299240156420134,-0.002957720775157213,0.7665073275566101,0.6709963274735774,0.7113645129967564,-0.10884014517068863,0.8767679333686829,0.011843472719192505,0.548735484880478,0.702124838636094,178.10383373850323,176.8249748376596,1.0,-0.0006739813770234983,-0.0011310555353030648,0.014422883652360073,-0.0005419906371947013,88.56721503324017,0.9682826721906069,27,0.9
0.5126338302581288,0.2098032913737359,0.12712284922599792,0.9988797903060913,0.44173472749706855,0.34614033854697784,-0.0648873895406723,0.9999133348464966,0.6208624850632489,0.3296693707514745,-0.14658427238464355,0.9999204874038696,0.49689260283744974,0.7129596887427235,0.030008431524038315,0.997776210308075,0.601929985852346,0.6952223963088692,-0.030227551236748695,0.9984481334686279,0.52808959058354,0.9972332840622864,0.2065475732088089,0.816681981086731,0.6151184376415746,0.9870240306008778,0.0998242124915123,0.6473166942596436,0.5446801075038927,1.2164111363387895,0.33621567487716675,0.6101394891738892,0.6124392144527282,1.209803291373736,0.2509922385215759,0.4053815007209778,0.43025541570959064,0.7312954379794377,-0.01826639287173748,0.7678054571151733,0.6729542560492986,0.7108812692461601,-0.14563456177711487,0.887660801410675,0.013804495334625244,0.5494112943448979,0.7040910425257964,178.06597068509467,176.723158364649,1.0,-0.0020460893295660898,0.005731907450615023,-0.010392642358209084,0.0520403858112543,88.96647137160609,0.9721542640041644,28,0.9333333333333333
0.5123721170048675,0.2113252490583227,0.16093610227108002,0.9989433288574219,0.44119189777852913,0.348899234809581,-0.04499080032110214,0.9999122023582458,0.6198015153542383,0.3293237415912688,-0.12737055122852325,0.999924898147583,0.4961932050392877,0.714805660577066,0.029083237051963806,0.9977468848228455,0.6008024097395868,0.6962606288934627,-0.02930258773267269,0.9984593391418457,0.528940759144171,0.9985090016720652,0.20057114958763123,0.816879391670227,0.6160611739281731,0.9883407651797366,0.09639056026935577,0.6545884609222412,0.5456360235308717,1.218183645522514,0.32456010580062866,0.6088685393333435,0.6138225666589486,1.2113252490583226,0.24747982621192932,0.4072428047657013,0.43095529381853936,0.7321349620102101,0.016222449019551277,0.7696621417999268,0.6742920962667357,0.7112699230411986,-0.1436745822429657,0.8973990082740784,0.01638379693031311,0.5484978073894372,0.7055331447352643,177.76167560088757,176.4342994248112,1.0,-0.012975466042144666,0.0036415284940930588,-0.0847690268264629,-0.016278757233507284,88.49552647572175,0.9712790339721187,29,0.9666666666666667
0.5139464770812834,0.21378719275746177,0.15758167207241058,0.9989990592002869,0.4405431446505029,0.35384578404428746,-0.050719279795885086,0.9999099969863892,0.6209101311323187,0.3304022331878641,-0.1346999853849411,0.999928891658783,0.49725825022400416,0.7180538889401419,0.032119881361722946,0.9976996779441833,0.6012103351335458,0.6984104533833249,-0.0323452427983284,0.9984660744667053,0.5300386690492347,1.0007580086562924,0.20322521030902863,0.8102940917015076,0.6179958176837566,0.9913048838823101,0.09708398580551147,0.6550824046134949,0.547555694420827,1.2217326578509364,0.325032114982605,0.5985645651817322,0.6159284823850939,1.2137871927574617,0.24617664515972137,0.40301796793937683,0.43230819832632345,0.7351051727635057,0.014989547431468964,0.7657662630081177,0.6764255236226149,0.7130779548131406,-0.13905033469200134,0.9058859944343567,0.019561678171157837,0.549234292678775,0.7082321711617333,177.918366608121,176.18764001035947,1.0,-0.007314208614395788,0.004337906450222395,0.04473592337648963,0.005377828770658134,88.15031846263722,0.9708904843514468,30,1.0
0.5209760343645666,0.2219496482047521,0.1268753707408905,0.9990777969360352,0.4458222464294776,0.3619221280917243,-0.05279533937573433,0.9999123215675354,0.6272938293012532,0.33521279115880387,-0.1503582000732422,0.9999334216117859,0.5033021148449204,0.7299181973194457,0.03381489962339401,0.9976992011070251,0.6060698677030446,0.7111205896375667,-0.03404482081532478,0.998486340045929,0.5373526107491741,1.0118256827775165,0.20660772919654846,0.8074405789375305,0.6266325210395075,1.001004762024163,0.09888727217912674,0.6599143743515015,0.5547620286890977,1.2335478885903415,0.329139769077301,0.5955862402915955,0.6256430208108069,1.221949648204752,0.24977314472198486,0.4077809453010559,0.43835233076854907,0.7454551033914226,0.009406576864421368,0.7757141590118408,0.6858816714798048,0.7228407071370981,-0.1449166238307953,0.9143680930137634,0.02198392152786255,0.5546859912739824,0.7205193934785062,177.6024309133602,175.68597830482258,1.0,-0.015765109105341606,0.01889911077832561,-0.062305751032174894,0.10820439045503381,88.51211004017709,0.9827631822256029,31,1.0333333333333334
0.5237346246632837,0.22588094471633172,0.14018259942531586,0.999140202999115,0.44825018894184687,0.3657752188115742,-0.04124272242188454,0.9999138116836548,0.6304605758816827,0.33874444632718503,-0.14300347864627838,0.9999374747276306,0.5057298938786409,0.7320276762748859,0.03897429630160332,0.9977083206176758,0.608097657470511,0.7146760184865919,-0.03919576480984688,0.9985097646713257,0.5394816803160912,1.011488541458843,0.2186901867389679,0.8097575306892395,0.6300244659423051,0.9988094693655425,0.09912706166505814,0.6730123162269592,0.5576815359033549,1.2373990224141838,0.3448917865753174,0.6000344157218933,0.6296305038338238,1.2258809447163317,0.24899637699127197,0.4197919964790344,0.4406995397060138,0.7493069038529178,0.03678574413061142,0.7844497561454773,0.6898579343300761,0.7268305357103958,-0.1361960619688034,0.9220526218414307,0.022133082151412964,0.5569137756745759,0.7233518473807389,177.71940609076427,175.4877780271217,1.0,-0.005005431870384238,-0.006964174491003486,0.08167212349442977,-0.1955710406124942,89.29887883173103,0.9783376353156602,32,1.0666666666666667
0.5277625857206235,0.22906006492300948,0.16435682773590088,0.9991405010223389,0.4496662581054059,0.37184783404925525,-0.01921735145151615,0.9999127984046936,0.6327527387188547,0.34129047110392496,-0.1405433565378189,0.9999411702156067,0.5092015764370934,0.7365776990828504,0.04473724216222763,0.9977996945381165,0.6116624329891841,0.7177635767926325,-0.04496762156486511,0.9985877871513367,0.5428407057569549,1.0190091278557154,0.22528918087482452,0.8148167133331299,0.6359913530113233,1.0034626644104574,0.09902786463499069,0.690438449382782,0.5619793422454025,1.2443815797761166,0.3442147374153137,0.6106560826301575,0.6346019085608177,1.2290600649230095,0.24308839440345764,0.43678465485572815,0.44453358693530554,0.7548298532892543,0.07080726325511932,0.7806708216667175,0.695229624783438,0.7334815937941472,-0.13321453332901,0.9291336536407471,0.024832844734191895,0.5604320047131387,0.7271706379377414,178.06167099323275,174.77979968363817,1.0,-0.005194928576017767,-0.012364031503837412,-0.0011341988190606033,-0.039996228482011315,88.8658139190554,0.9769547059190069,33,1.1
0.5290637757694752,0.23043918311055583,0.16219861805438995,0.9991402626037598,0.4503244301360079,0.3729881885559831,-0.02439272031188011,0.9999109506607056,0.633861555768626,0.34253099431197376,-0.14091069996356964,0.9999440312385559,0.509955396714512,0.737463212719389,0.04534054547548294,0.9978534579277039,0.6124766429599717,0.7178749656088433,-0.04557730257511139,0.9986414313316345,0.5435810801497276,1.0214352704674936,0.22170791029930115,0.8154048919677734,0.6379879432002366,1.0047318188175545,0.09521658718585968,0.7019838690757751,0.5632943392294065,1.2468393125701722,0.33826005458831787,0.6155087947845459,0.6360904519122035,1.230439183110556,0.23525898158550262,0.4471668303012848,0.44636852359614704,0.7565395760657031,0.060178715735673904,0.7795947790145874,0.6969851384256689,0.737133792764266,-0.13104265928268433,0.9353308081626892,0.024694204330444336,0.5612160198372418,0.7276690891641162,178.245164879565,174.4361665920022,1.0,-0.0039012570104019774,-0.00899238348586089,0.009891656684431049,0.025759618837745694,88.47485309632116,0.972386519221791,34,1.1333333333333333
0.5318711647707128,0.23586586291064432,0.14587819576263428,0.9991326928138733,0.45311015685891304,0.3768930301668447,-0.03204643726348877,0.9999053478240967,0.6355669186356064,0.34523861054859983,-0.1578916311264038,0.9999467134475708,0.5132552611381959,0.7429189949290114,0.046142395585775375,0.9978998899459839,0.6147770094693582,0.723178393720504,-0.04638059809803963,0.9986963272094727,0.5472648657607496,1.0276165575893184,0.2197207659482956,0.8137022852897644,0.6430686299910492,1.0116477330478797,0.09601682424545288,0.708781898021698,0.5674650251972025,1.2561388570126657,0.33497896790504456,0.6175049543380737,0.6415028513086782,1.2358658629106443,0.23377008736133575,0.45815780758857727,0.45327937618867786,0.7626904777394934,0.04602109268307686,0.7645443677902222,0.7018986742054311,0.7441847703269721,-0.15479759871959686,0.9411223530769348,0.02547714114189148,0.564016135303777,0.7330486943247576,178.23931521447648,173.99852570724505,1.0,-0.009560520948187037,0.00012190992629602731,-0.04029911177715344,0.06570777783433411,88.32772648784464,0.9682676933651095,35,1.1666666666666667
0.5368469626076782,0.24196950430117148,0.17485208809375763,0.9988923668861389,0.45747574347071684,0.3809019739483713,0.002413557842373848,0.9998806715011597,0.6406233023650385,0.3498135202124854,-0.13091160356998444,0.9999490976333618,0.5160264979832588,0.7471693022544049,0.0458049401640892,0.9979419112205505,0.6162092306848771,0.7292225397871798,-0.04605600982904434,0.9987634420394897,0.5523118096799456,1.0311868779411395,0.2040591686964035,0.8045886754989624,0.6501252830023607,1.0140937244869048,0.10880708694458008,0.7077077031135559,0.5737476128478644,1.2642822866130086,0.32144564390182495,0.6108162999153137,0.6485524432292142,1.2419695043011714,0.2595134675502777,0.4627123773097992,0.4664467652199569,0.7671381053767443,0.10098227113485336,0.7086247801780701,0.7092677437625439,0.7569159202238109,-0.09294216334819794,0.9463307857513428,0.024738460779190063,0.566117864334068,0.7381959210207923,177.97371450923467,172.81500741918146,1.0,-0.033109120764442904,-0.024663102473133202,-0.17823395354078672,-0.18847850807719538,88.92608864017872,0.9616797408329995,36,1.2
0.5439197716654419,0.2458399460776326,0.16906201839447021,0.9986653923988342,0.46325163265608865,0.3840850884257219,-0.01397715788334608,0.999864399433136,0.6472511966028772,0.3558460202443046,-0.12520718574523926,0.9999518394470215,0.520559512955693,0.7535565590058941,0.04137043282389641,0.9980013370513916,0.6207579705936521,0.7375433119003025,-0.04162859171628952,0.9988356232643127,0.5603647902642974,1.0429681976897327,0.20356237888336182,0.7903725504875183,0.6572000908860995,1.0162173865456934,0.11820489168167114,0.696869432926178,0.5868660871228482,1.2721354552240363,0.3259432017803192,0.602510929107666,0.6567559289340119,1.2458399460776326,0.2819308340549469,0.46166086196899414,0.4789050259774305,0.7759248610748223,0.10855897516012192,0.6475955247879028,0.7163391824824527,0.7707972572525817,-0.06400088965892792,0.9508390426635742,0.022210627794265747,0.5706587417746726,0.7455499354530983,178.7652337606635,172.43889763272404,1.0,-0.017060809009059784,-0.01059252822822449,0.1336838111409226,0.11679270545603722,89.73680188205331,0.9698516834050955,37,1.2333333333333334
0.5481131198014672,0.25229019433818084,0.16191577911376953,0.9979435801506042,0.4662921986381209,0.3842082456869854,-0.016506744548678398,0.9998332262039185,0.6498333298106428,0.3623509623670304,-0.12995368242263794,0.9999534487724304,0.5220308907682025,0.7565629008863844,0.04227297008037567,0.998100757598877,0.6220311019393905,0.7408289351860263,-0.04251154884696007,0.9989181160926819,0.5638892436416878,1.0448452837169568,0.21339479088783264,0.7882405519485474,0.6589279211667136,1.0145122737926149,0.11869946867227554,0.7046828866004944,0.5937305100645995,1.2781891419998586,0.34515661001205444,0.6157408356666565,0.6595435517650686,1.2522901943381808,0.27828243374824524,0.4854567348957062,0.48350569436425384,0.7720583002176642,0.11912846565246582,0.5904299020767212,0.7131907740107015,0.7753316438750492,-0.07198025286197662,0.9547491073608398,0.017120033502578735,0.5720309963537965,0.7486959180362054,179.0261728487329,172.47026549266985,1.0,-0.007545275938398671,0.00034690594042911446,0.07229404824221193,0.08282923075933614,89.57195774593504,0.9567949149454792,38,1.2666666666666666
0.555147562796805,0.2539700868503118,0.14066997170448303,0.9977569580078125,0.46980290555026916,0.38468777883000477,-0.018648585304617882,0.9998281598091125,0.6522491691306106,0.36637103666839876,-0.15299399197101593,0.9999560713768005,0.5235080854628585,0.759243380796049,0.046284496784210205,0.998252809047699,0.6226194201570983,0.7448287721172486,-0.04651959612965584,0.9990127086639404,0.5664277740794254,1.0453762417464982,0.22405067086219788,0.7926522493362427,0.6611264111312073,1.0151809130630416,0.13501252233982086,0.7188363671302795,0.5955284422091137,1.280119004629343,0.359401673078537,0.6308460831642151,0.6642526382791136,1.2539700868503119,0.29260262846946716,0.5119554400444031,0.4891532986547018,0.7549273516985879,0.1365656554698944,0.5412676930427551,0.7117682060858843,0.7778561990107548,-0.0739174634218216,0.9583887457847595,0.014298051595687866,0.5730637528099785,0.7520360764566488,178.5360894849497,172.64380363001214,1.0,-0.007204716942080096,0.0061474429003908135,0.002869645536186646,0.045431409247801355,89.88467279098852,0.9618877280544269,39,1.3
0.5646957055669609,0.2547553291754731,0.11975507438182831,0.9973841905593872,0.47500039693779433,0.3853527016450235,-0.007162140216678381,0.9998043775558472,0.6560575577656804,0.36899364241005883,-0.1746450662612915,0.999957799911499,0.5264863870879389,0.7632973825125086,0.05383634567260742,0.9983810186386108,0.6260604646750609,0.749053238564107,-0.05410490185022354,0.999095618724823,0.5698535354255798,1.051433788270443,0.22373947501182556,0.7968495488166809,0.6651274375748362,1.0186870250029725,0.13800078630447388,0.7291582226753235,0.5985396874533886,1.2840577283289387,0.35903793573379517,0.6417449116706848,0.6695399651274548,1.2547553291754732,0.299610435962677,0.5295209288597107,0.505937661432969,0.7501349828487355,0.17248940467834473,0.49077191948890686,0.7124491806829546,0.7825647334506554,-0.07977023720741272,0.9614788889884949,0.012697011232376099,0.5762734258815,0.7561753105383078,178.47068000804742,172.8266742309254,1.0,-0.0006099201227343354,-0.0013603299519392943,0.05100898027381906,-0.05797996020221877,89.61646680333266,0.9711125822996746,40,1.3333333333333333
0.582059895089778,0.26298176200922513,0.12747372686862946,0.9972738027572632,0.483835938467956,0.39385608261584054,0.02847783826291561,0.9997823238372803,0.6657372763774324,0.37561051497211684,-0.1648288518190384,0.9999582767486572,0.5343630966830475,0.7768164330559583,0.05659996345639229,0.9984806180000305,0.6350778369399002,0.7605373453055133,-0.05686403065919876,0.999161958694458,0.5811909898992158,1.0661325279284066,0.23393860459327698,0.808759868144989,0.674810041178237,1.0282398472051355,0.1348595768213272,0.7460152506828308,0.6096860548741774,1.2976588118039982,0.36849871277809143,0.6600356101989746,0.6803379221175404,1.2629817620092252,0.30785831809043884,0.5526204705238342,0.5173876382001886,0.7613157565818107,0.18767917156219482,0.448933482170105,0.7187278324239694,0.7932472919170256,-0.07252075523138046,0.9643049240112305,0.013958454132080078,0.5847204668114738,0.7686768891807357,177.82238488336895,172.90682746543038,1.0,0.0005832398198573124,0.011640588134062239,0.009221892160876365,0.0998946110144976,88.3344712232934,0.981593640712291,41,1.3666666666666667
0.5856046259667176,0.2675676289128962,0.2186792641878128,0.9971697926521301,0.4898791185739239,0.4048557772410484,0.07099764794111252,0.9997737407684326,0.6719505587997151,0.3801150884917845,-0.06416014581918716,0.9999596476554871,0.5385458088996334,0.7828080447101764,0.04883454367518425,0.998573362827301,0.6398153009543049,0.7662821836794312,-0.04910700023174286,0.9992210268974304,0.5859919986529647,1.0742625769637393,0.21746332943439484,0.8208461999893188,0.6794913980644353,1.0337211003369609,0.1521172970533371,0.7588756680488586,0.613754963371937,1.3080879968082657,0.3368167579174042,0.6715697646141052,0.685518450943985,1.2675676289128963,0.3292039632797241,0.5613260865211487,0.5209177032750727,0.7622957722879513,0.24598316848278046,0.4138505458831787,0.7197510848975718,0.7954655933857634,0.035269223153591156,0.9666218757629395,0.018792390823364258,0.5891805549269692,0.7745451141948038,177.52510834225572,173.03778112266656,1.0,0.002060998866454134,0.002749042164446228,0.0117591835510313,-0.0716227429872165,88.06903751175284,0.9809570281908712,42,1.4
0.5957717589654754,0.26960148786860955,0.1425820142030716,0.9973510503768921,0.4974160806442657,0.41099740475322344,0.035911813378334045,0.9997777342796326,0.6799499819117724,0.3846103759333339,-0.07883740216493607,0.9999617338180542,0.5459003727196734,0.793313859146928,0.047863103449344635,0.9986714720726013,0.6461096289968666,0.776621359887765,-0.04815483093261719,0.9992802739143372,0.5925205515455869,1.0843565704150107,0.22418752312660217,0.8232191801071167,0.6857755239466825,1.045646971186289,0.15367838740348816,0.7590008974075317,0.6225899822983305,1.3235910648987546,0.36555975675582886,0.6682628989219666,0.691964731639538,1.2696014878686095,0.3543093204498291,0.5563809871673584,0.5277519830313652,0.7674379108813977,0.20857349038124084,0.3838132917881012,0.7240046979487783,0.8008978446452945,-0.007098732050508261,0.9688376188278198,0.019855260848999023,0.59600500085827,0.7849676095173466,178.0634338233237,173.19560279676102,1.0,0.00998277866898715,0.02465385644426198,0.06279632886447616,0.17386205645072503,87.77021670538626,1.0001557763230289,43,1.4333333333333333
0.6053063075396008,0.278530766763337,0.14278936386108398,0.9975029230117798,0.5088545085617823,0.41940461411811175,0.023747585713863373,0.9997813105583191,0.6958095494858596,0.39603686563167934,-0.09169898927211761,0.999963641166687,0.55652007439584,0.8078057779651756,0.034651562571525574,0.9987411499023438,0.6587660098063728,0.7917362861978925,-0.03494662046432495,0.9993256330490112,0.6028250630151265,1.1012118451597703,0.2132924497127533,0.8276005387306213,0.6973924311265194,1.0652607315064513,0.1743546575307846,0.755189836025238,0.6328347504602604,1.335159656718134,0.3535994291305542,0.6630532145500183,0.703807110341394,1.278530766763337,0.37196046113967896,0.5444080233573914,0.5385700999016269,0.7703076382237595,0.20493900775909424,0.3554166555404663,0.734892343501995,0.8139712409461708,0.00956850778311491,0.9704936146736145,0.017286241054534912,0.6076430421011064,0.7997710320815341,178.34132519207307,173.68479569642275,1.0,0.010250077879534962,0.009642652687934156,0.0007039375883114111,-0.11352151216990244,88.06466422346155,1.020662967551443,44,1.4666666666666666
0.6088614558597696,0.2892546941940404,0.15431535243988037,0.9975749850273132,0.5147850755090168,0.42395988878841934,0.019328925758600235,0.9997839331626892,0.704753800678205,0.4025466546428053,-0.08112028241157532,0.9999650716781616,0.5620252876706794,0.8147805376282192,0.028160035610198975,0.9988052248954773,0.6657023619212717,0.7995932759367551,-0.02843673899769783,0.9993677139282227,0.6075566171692497,1.1082047422783188,0.20702695846557617,0.8323076963424683,0.7028617378784017,1.074621581856517,0.17304566502571106,0.7544923424720764,0.6373573168962561,1.3439297621328161,0.3483216166496277,0.6604835987091064,0.7093579528086792,1.2892546941940404,0.36748573184013367,0.5355347990989685,0.5471469267329198,0.7698868260650594,0.20289070904254913,0.32855287194252014,0.7402925339272577,0.8189332975175762,0.021240631118416786,0.9714826941490173,0.015715450048446655,0.6138638247959756,0.8071869067824872,178.3848154551843,174.03892019716673,1.0,0.010801952708967453,0.008218516852683306,0.0036559367973230533,-0.011664583557953396,88.55838697992479,1.009919276139104,45,1.5
0.6106207897225079,0.29389302967031494,0.13988351821899414,0.9977492094039917,0.5200773881126305,0.42397440045729706,0.01086338795721531,0.9997889399528503,0.7059647957570105,0.40424920092774796,-0.09451542049646378,0.999966561794281,0.5635992901826874,0.814457067298265,0.028997737914323807,0.9988423585891724,0.6665703408901298,0.799318601362716,-0.029269248247146606,0.9993958473205566,0.6073719667631413,1.1078930434736716,0.20352277159690857,0.8365091681480408,0.7025546359182013,1.0746494454907478,0.16466042399406433,0.7548227906227112,0.6370025767618869,1.3418418305849091,0.3257196247577667,0.6584716439247131,0.7084833399575912,1.293893029670315,0.3489423990249634,0.5300711989402771,0.5469408716982067,0.7691854679885952,0.19138601422309875,0.30523404479026794,0.739830681532611,0.8171894823294706,0.00483808945864439,0.9723544716835022,0.014479905366897583,0.6150848155364086,0.8068878343304905,178.73391124183908,174.1029406402151,1.0,0.009954641357071472,-0.0008308392691009932,-0.006174797004626229,-0.06612722097964416,87.99622452979722,0.9976479707237317,46,1.5333333333333334
0.6126557168965187,0.2998634005075254,0.13582062721252441,0.9978402256965637,0.5270516445919685,0.4258793384925733,0.003268152941018343,0.9997861385345459,0.7104543329209582,0.4106494631287947,-0.09796343743801117,0.9999676942825317,0.5688243748527698,0.8187796014003316,0.029849279671907425,0.9988940954208374,0.6704269784129968,0.8039731830381285,-0.030119871720671654,0.9994314312934875,0.6105749143380077,1.109717770183737,0.21261346340179443,0.8379262089729309,0.7044339958691362,1.0784644447484195,0.16720150411128998,0.7542018890380859,0.6413426486001723,1.3369425985100951,0.3491281569004059,0.6539590954780579,0.7103632896656195,1.2998634005075254,0.3504943251609802,0.5255922675132751,0.5488889557100418,0.7753710241688287,0.18637073040008545,0.28196826577186584,0.742227614693787,0.8195701630486575,-0.007157495710998774,0.9732286334037781,0.01114732027053833,0.6196256766328833,0.8113763922192301,179.54495276993092,174.47162515435386,1.0,0.021529292875323975,0.016702834775174796,0.09074154290401842,0.13782462707252188,87.7775506154143,1.0027920682526144,47,1.5666666666666667
0.6232672350382678,0.31894766237839417,0.19657738506793976,0.9978009462356567,0.5394472083700002,0.4387170061996099,0.04304123669862747,0.9997860193252563,0.7253076306091687,0.42521553984979815,-0.06203966587781906,0.999968945980072,0.5814274807271093,0.8334348002257709,0.030204951763153076,0.998958170413971,0.6831989046781519,0.8189940403573943,-0.03047122061252594,0.9994698166847229,0.6222381190463432,1.122351636638595,0.20054331421852112,0.8412173390388489,0.7144898482219179,1.094890584534826,0.1634439080953598,0.7570917010307312,0.6504306417427345,1.3529896360813984,0.3106576204299927,0.6532326340675354,0.720457464947854,1.3189476623783942,0.34207719564437866,0.5239819288253784,0.5593802365024897,0.8031166993488532,0.2073146104812622,0.26335135102272034,0.7534353687433576,0.8322255434869059,0.021253593266010284,0.9743876457214355,0.009738802909851074,0.6323131927026305,0.8262144202915825,178.92903525489987,175.05509572323083,1.0,0.027067088936871746,0.0219489273618201,0.03967266576334567,0.03799614841547079,87.99486235033902,0.9899133118508586,48,1.6
0.642104978814666,0.3257716625601816,0.13964664936065674,0.9979299306869507,0.5518571916320522,0.44292820985623843,0.0263077225536108,0.9997883439064026,0.7398060394944289,0.43335055508409515,-0.10811054706573486,0.9999698996543884,0.597498466129292,0.8423097668387496,0.033394426107406616,0.9989891052246094,0.6973487147305988,0.8282966753391424,-0.03365364298224449,0.9994930028915405,0.6331792893303658,1.1268145323162553,0.22806234657764435,0.8418796062469482,0.719753112266433,1.1034148721423398,0.16858124732971191,0.754386305809021,0.6550172129407951,1.3529920457654325,0.3656584322452545,0.6458226442337036,0.7242722506150571,1.3257716625601816,0.357970654964447,0.5153939723968506,0.5796030512008769,0.8090974130788215,0.18017864227294922,0.24782098829746246,0.7616314765378029,0.8430777739564258,-0.01819496415555477,0.9753885865211487,0.006857842206954956,0.6474235904299454,0.8353032210889461,178.3665760772983,176.50866963023927,1.0,0.0833649393086089,0.023841392808912537,0.44797068392562317,0.013817571528863462,88.5306953672473,1.0073425156967326,49,1.6333333333333333
0.6517396195203401,0.3197137440967683,0.1309191733598709,0.9980858564376831,0.5567360217281244,0.44170721794228085,0.009372008964419365,0.999799907207489,0.7444370162348574,0.4305810120995774,-0.12333432585000992,0.9999717473983765,0.6055670651243391,0.8358853243130494,0.034245990216732025,0.999060869216919,0.7036933845073677,0.8241610993604669,-0.03450214862823486,0.9995318055152893,0.6328138834100634,1.117110556011262,0.22611966729164124,0.8431346416473389,0.717142991367516,1.0976969218511206,0.1746479570865631,0.7512198686599731,0.6522053441539052,1.3504411256113051,0.35423195362091064,0.6500875949859619,0.7201179592590622,1.3197137440967683,0.35679394006729126,0.5188400149345398,0.5848147368586399,0.8088845687797925,0.17581023275852203,0.23597007989883423,0.7625442838870363,0.8393838335030912,-0.05809336155653,0.9766377210617065,0.00800052285194397,0.6546302248158534,0.8300232118367582,179.21688402561858,177.95276753152544,1.0,0.07568847851120385,-0.013259882431085352,-0.05571855402731052,-0.28150748971621903,90.24840691573604,1.0084553111857093,50,1.6666666666666667
0.6616451527007565,0.3159970387271221,0.11476846784353256,0.9982116222381592,0.5589143883713676,0.44020442799219384,-0.011356895789504051,0.9998059868812561,0.7480904864232845,0.4309880529267197,-0.13031548261642456,0.9999727010726929,0.6088545050735517,0.8330703900645625,0.03314559534192085,0.9991246461868286,0.7078899178707926,0.8211529857104864,-0.03340301662683487,0.9995653629302979,0.6323337825269363,1.1105223697918432,0.20471224188804626,0.850902795791626,0.7155608641905317,1.0910895537115826,0.17480315268039703,0.751630425453186,0.6497445249261128,1.3474295718368998,0.3040523827075958,0.6644954681396484,0.7174400890166958,1.315997038727122,0.35184890031814575,0.5240229368209839,0.5851846109676516,0.805265647631337,0.15439435839653015,0.21970278024673462,0.7652385472573102,0.8368140465754208,-0.062381356954574585,0.9770489931106567,0.0066471099853515625,0.6583722114721721,0.8271116878875245,179.36610425891226,178.85095657035356,1.0,0.04270513036824474,-0.003205647466266137,-0.24538542876223912,0.07502018860946776,90.3827574486228,1.0116624729132013,51,1.7
0.6573567484522346,0.31424577986040775,0.12275496870279312,0.9983646869659424,0.5589002064457482,0.4396620257495232,-0.0241282619535923,0.9998207688331604,0.749977513603651,0.43100480441456235,-0.12673620879650116,0.9999740719795227,0.6103488749952758,0.8275153117918332,0.032652437686920166,0.999197244644165,0.7092843153548337,0.8155878670171849,-0.03290017321705818,0.9996005296707153,0.6320206036454533,1.0988998747198278,0.19013366103172302,0.8579529523849487,0.7150177275322117,1.0884993594058905,0.15187053382396698,0.7557716965675354,0.6466135734654912,1.3437660860252783,0.27348729968070984,0.6797468662261963,0.7159588554234465,1.3142457798604077,0.2925913333892822,0.5347414016723633,0.5801525741188757,0.8215524971122516,0.10658178478479385,0.24322567880153656,0.7686220781919254,0.8348694774029458,-0.08330827206373215,0.9778135418891907,0.006253242492675781,0.6598165951750548,0.821551589404509,178.84481535047067,179.03535137306764,1.0,0.017700996155235297,-0.03136929812798356,-0.18128965567220826,-0.20475860006350588,90.6818810451654,0.9988227727835058,52,1.7333333333333334
0.658395033204179,0.3129683892028636,0.12565504014492035,0.9985198974609375,0.5612231707599993,0.4386947866354534,-0.04649728164076805,0.9998367428779602,0.7499920367989308,0.4312493893677317,-0.12609009444713593,0.9999754428863525,0.6174318736301594,0.8226865644088632,0.029668066650629044,0.9992693066596985,0.714417358022924,0.8119009493989977,-0.02989467978477478,0.9996343851089478,0.6310735272744684,1.0929641605679672,0.17736263573169708,0.8689091801643372,0.7155591141689803,1.0813408950984138,0.13709387183189392,0.7656427025794983,0.6355207638871119,1.3411093734231987,0.25220733880996704,0.7034274935722351,0.7150493868870864,1.3129683892028636,0.27668410539627075,0.5540862083435059,0.5667780855508634,0.823110499273546,0.012091189622879028,0.30257052183151245,0.7733696875610762,0.8329414367032241,-0.17001506686210632,0.9789316654205322,0.00538480281829834,0.6659246158265417,0.8172937569039305,178.13731634617469,179.6311228341264,1.0,0.05379443061517774,-0.024829278115045848,0.279507131191319,0.05030397841281668,91.98210363327475,0.9893085069050032,53,1.7666666666666666
0.6634525078457258,0.31226140635630345,0.10104101896286011,0.9986621141433716,0.5667900554902288,0.4387567818475524,-0.08180375397205353,0.9998520016670227,0.7555005028699535,0.4338354830210283,-0.143228679895401,0.9999768137931824,0.6204050913915291,0.8201490080197134,0.028950244188308716,0.999337911605835,0.7152406389272086,0.8106189837484727,-0.0291653573513031,0.9996671676635742,0.6302454622685063,1.0837776868419244,0.18532340228557587,0.8767973184585571,0.716870639011125,1.0758492094048053,0.14327554404735565,0.7660685181617737,0.6265754054108721,1.3396372264258691,0.2795408368110657,0.7233014702796936,0.7153419160018417,1.3122614063563034,0.30165597796440125,0.5662479400634766,0.5592211199153759,0.8226392859256969,-0.048043958842754364,0.360135555267334,0.7775187821860636,0.8306451232129839,-0.22763291001319885,0.9793440103530884,0.0035566985607147217,0.6678228651593688,0.815383995884093,177.040537889336,179.27739807148993,1.0,0.010655033445031825,-0.018831480877858058,-0.3249812099843252,0.04527772443112275,92.26365213993557,0.9854384884776363,54,1.8
0.6624033452494376,0.3110947166253781,0.10657291114330292,0.998786985874176,0.5696701835454048,0.43801470589901015,-0.09020786732435226,0.9998657703399658,0.7592031933948442,0.4376715214375887,-0.14175313711166382,0.9999779462814331,0.6220969233731334,0.8180211053913015,0.021810762584209442,0.9994006752967834,0.717290122900361,0.8088214387810839,-0.022009756416082382,0.9996975064277649,0.6257068268479729,1.0728345794673337,0.1893487572669983,0.8852284550666809,0.7183667961866737,1.0719313107156567,0.1497766673564911,0.7719908952713013,0.6239867856683088,1.3339346063491555,0.28801673650741577,0.7451178431510925,0.7144171269146348,1.3110947166253781,0.30779221653938293,0.5889434814453125,0.5559337847576467,0.8205087396606259,-0.051801811903715134,0.4127957224845886,0.7823082561338198,0.8266942977113259,-0.2021452933549881,0.9790345430374146,0.00024831295013427734,0.6696935231367471,0.8134212720861926,178.81091345169776,178.81941455713334,1.0,0.02026857160481058,-0.007784585426599312,0.07373852199240431,0.08445644032797942,92.33505886700482,0.9868088363584443,55,1.8333333333333333
0.659632253391152,0.31023786965898487,0.10885559022426605,0.9988924860954285,0.5711325896079921,0.43676363954081243,-0.07316897064447403,0.9998776912689209,0.7590256391113999,0.43747566445678704,-0.12171830236911774,0.9999783039093018,0.6248818487641958,0.8164376225882733,0.02057555690407753,0.9994552731513977,0.7185656185840438,0.8064787394446864,-0.020771589130163193,0.999722957611084,0.6218224175042318,1.0689757109415072,0.1900031566619873,0.8931452631950378,0.7192002306992006,1.0692328481980247,0.15126973390579224,0.7771289348602295,0.6217396956915558,1.32981306063834,0.2974094748497009,0.7636159062385559,0.7133413862949382,1.310237869658985,0.310656875371933,0.6050896644592285,0.554278699334896,0.8194267197298972,-0.02679119072854519,0.461153119802475,0.7832463389321733,0.8248033906230586,-0.18264004588127136,0.9785148501396179,0.0005156099796295166,0.6717237336741197,0.8114581810164798,179.32408169277033,178.46902862753464,1.0,0.019883254783899792,-0.010029763794399174,-0.002846044719966402,-0.01737583354508869,91.9897052125636,0.9858043027735243,56,1.8666666666666667
0.6635325224090322,0.311381292347078,0.1059931069612503,0.9989980459213257,0.5769126368612902,0.43894294106308346,-0.08764724433422089,0.9998893141746521,0.7663842147449571,0.44038551368498624,-0.1321435421705246,0.9999797344207764,0.6315193327008453,0.817334484793468,0.021285492926836014,0.9995079636573792,0.7285452175734891,0.8079105815955475,-0.021496403962373734,0.9997492432594299,0.6219765768418961,1.0603676162861904,0.20235352218151093,0.9004870653152466,0.7235023566687274,1.0710703128909032,0.15162678062915802,0.788372814655304,0.6247505640278583,1.311381292347078,0.3131398558616638,0.783510148525238,0.7178718928411502,1.3171213835856284,0.29167842864990234,0.635450005531311,0.5569051793015257,0.8230917854670995,-0.033613938838243484,0.5075597167015076,0.7911089604833105,0.8288859044032842,-0.19176539778709412,0.9791654944419861,0.0010392367839813232,0.6800322751371671,0.8126225331945078,177.118264312189,179.78692111950946,1.0,0.037290676077085486,-0.023588471561725922,0.13386187108344214,-0.10448474807149319,92.66420634061552,0.9996147906319082,57,1.9
0.6838341701149601,0.3175191918243214,0.12103990465402603,0.9990935325622559,0.5951412618326358,0.44889266973372016,-0.09318606555461884,0.9998999238014221,0.7861707385667432,0.45037227607035124,-0.11434566974639893,0.9999812245368958,0.6485013501783298,0.8314164936570546,0.015577676706016064,0.9995555877685547,0.749651754364533,0.8244887900453923,-0.015812061727046967,0.9997730255126953,0.6342274833926109,1.07321182944695,0.18809416890144348,0.9088385105133057,0.7418048866185487,1.0959436054769507,0.12229110300540924,0.8055955767631531,0.6393557812710048,1.3175191918243214,0.24409696459770203,0.8035134077072144,0.7390368174396651,1.3591966811769456,0.18704308569431305,0.6687746047973633,0.5696485665242715,0.8412390185301941,-0.056620754301548004,0.553884744644165,0.813557142142455,0.8461452887285309,-0.16987290978431702,0.9806947112083435,0.0010422766208648682,0.6990765522714314,0.8279526418512235,175.4190589262404,178.94666304061704,1.0,0.026295768960094862,-0.02251851267860126,-0.08599323935484202,0.011656055577378515,94.02319981023645,1.0003107645601652,58,1.9333333333333333
0.6828478006566835,0.312204521644458,0.1469365954399109,0.9991758465766907,0.5974208538355467,0.44820080250984967,-0.09910643100738525,0.9999093413352966,0.7867933540200267,0.4498667317844784,-0.07198403775691986,0.999982476234436,0.6488413628576613,0.8252808876370653,-0.0023550190962851048,0.99959796667099,0.7523551072178164,0.8212042219343636,0.0020698667503893375,0.9997940063476562,0.6327495060128242,1.0587877325597277,0.10333309322595596,0.9166112542152405,0.7417324367339074,1.0913670880797202,0.11294402182102203,0.8196133971214294,0.6392391474662181,1.312204521644458,0.09107604622840881,0.8214766383171082,0.7378384659558422,1.3570480978823973,0.12869445979595184,0.6976615786552429,0.5689643870172272,0.8386819237209396,-0.07571670413017273,0.5950140953063965,0.8171815534827456,0.8381730482185523,-0.1498298943042755,0.9821069836616516,0.0011750757694244385,0.7005982350377388,0.8232425547857145,174.59081746547892,178.58801729787032,1.0,0.018264273452929664,-0.027063343051093876,-0.059795233620131845,-0.03420507502674381,95.50993495814875,0.9996458983364737,59,1.9666666666666666
0.6769800403095821,0.3017499469322819,0.13157010078430176,0.9992541670799255,0.5977357969996918,0.44635695375642853,-0.11592189967632294,0.9999179840087891,0.7828334306592197,0.4463804786211584,-0.08428677171468735,0.999983549118042,0.6453954475052113,0.8164340917457941,-0.0026794117875397205,0.9996370673179626,0.7497142086647927,0.8148386093278319,0.0024331354070454836,0.9998134970664978,0.6303078028651686,1.0542628990747112,0.13623854517936707,0.9234870076179504,0.7390510902827916,1.0829422762945282,0.12318986654281616,0.8317404389381409,0.6372902688870997,1.301749946932282,0.18927910923957825,0.8377857208251953,0.7347640098354976,1.351395659944419,0.2049044817686081,0.7238262295722961,0.5654331276892623,0.8319322221292637,-0.08458901941776276,0.6337168216705322,0.8182988265511303,0.8222974643815031,-0.15040162205696106,0.98296058177948,1.665949821472168e-05,0.6975548280850019,0.815636350536813,174.75398837899868,178.63732164746972,1.0,-0.001887924447566226,-0.030883594264904113,-0.14282536433826867,-0.027936337515270943,96.46210182668791,1.0063205492605456,60,2.0
0.6870402194041716,0.3131783600041435,0.11955787241458893,0.9993249177932739,0.6127497981869912,0.4554027597804372,-0.11992110311985016,0.9999257922172546,0.7973517040631143,0.45478427307654035,-0.07726447284221649,0.9999844431877136,0.6572675091954779,0.8314678387449812,-0.0039194608107209206,0.999672532081604,0.7617513384666558,0.8302668737119638,0.0037029944360256195,0.9998313188552856,0.6421005674041089,1.0733390928157227,0.1731400489807129,0.9289543628692627,0.753708782226129,1.1032124121382259,0.1509561687707901,0.8411864638328552,0.6512276615992095,1.3131783600041436,0.2838081121444702,0.8519598841667175,0.7482781191702736,1.3704674270706632,0.2765440344810486,0.7460533380508423,0.5764777049325022,0.8443404897906291,-0.097356416285038,0.6673169136047363,0.8351638412130982,0.8280618751622654,-0.13907092809677124,0.9820226430892944,0.00042998790740966797,0.7095094238310669,0.8308673562284725,174.23252846185358,179.4763217308355,1.0,-0.0077628011909292305,0.00037855485645044075,-0.04407700751567463,0.24029811364416936,96.09257924846469,1.0139443564348896,61,2.033333333333333
0.7065710048435873,0.3269312478085633,0.13284191489219666,0.9993876814842224,0.6288002721997933,0.46465828993801533,-0.10476301610469818,0.9999328851699829,0.8145677588129764,0.4646382726764051,-0.05900527164340019,0.9999852180480957,0.6698700986800735,0.8464949414347591,-0.0026198646519333124,0.9997040033340454,0.7752134728408264,0.8464989623694057,0.0024092812091112137,0.999846875667572,0.6547518651728166,1.086427346026885,0.19056496024131775,0.9341565370559692,0.7687173032727677,1.1241146923531549,0.14487126469612122,0.8520747423171997,0.6669411100249003,1.3269312478085633,0.2842019200325012,0.8645241856575012,0.7627725262210284,1.398035095985064,0.2326151430606842,0.7668465971946716,0.5903823832363738,0.8566131864147916,-0.08481096476316452,0.698749303817749,0.8508801203133576,0.8344816998850865,-0.0866491049528122,0.9821035861968994,1.3649463653564453e-05,0.72254178576045,0.8464969519020824,173.493148983523,179.9028018941151,1.0,-0.006159703762238366,-0.004543300618619745,0.01272907900649782,-0.03575257971862879,96.14124106744079,1.0072981912031336,62,2.066666666666667
0.71972135662681,0.3371895569959099,0.16466577351093292,0.9994434118270874,0.6440960704188807,0.47360087349869084,-0.08046509325504303,0.9999393224716187,0.8295648685913207,0.4726159862576526,-0.04819842427968979,0.9999858140945435,0.6849880735649233,0.8615808556421233,1.416022587363841e-05,0.9997327923774719,0.7906147014438849,0.8626624804391627,-0.00023237142886500806,0.9998613595962524,0.6698054461149756,1.1030759379120454,0.2128477841615677,0.9391456246376038,0.7835717083063696,1.1435960963299303,0.1315796673297882,0.8640500903129578,0.6823995975788965,1.3371895569959098,0.29223209619522095,0.876558780670166,0.7772338165443322,1.4257520542917366,0.1862371861934662,0.7878884077072144,0.6058467715433669,0.8727959956444483,-0.059448618441820145,0.7255278825759888,0.8656835796086144,0.8426326820636674,-0.06394808739423752,0.9792207479476929,0.0006587207317352295,0.737801387504404,0.8621216680406429,173.32332828589853,179.85068085130544,1.0,0.008804849308836555,-0.006857934943234167,0.11499598934467395,-0.016969059168573823,96.60329432652131,1.0112268707853456,63,2.1
0.7219360265509337,0.34803005329450226,0.21607664227485657,0.9994735717773438,0.6556643087793624,0.48161483457354726,-0.04069369658827782,0.9999446272850037,0.8404518279797755,0.47950843141611005,-0.005889061372727156,0.9999843835830688,0.6970206108623458,0.8721902812090525,0.0014771654969081283,0.9997571706771851,0.8024699612198549,0.87556340424417,-0.001696093357168138,0.999872624874115,0.681094910614751,1.1198819158055513,0.22250895202159882,0.9433315396308899,0.7957189185109234,1.1623855648145012,0.13266561925411224,0.8743081092834473,0.6931436145075424,1.3480300532945022,0.30150166153907776,0.8858984112739563,0.7876064449357078,1.4520088718810338,0.19607287645339966,0.8043550252914429,0.6192303535278837,0.8861246976279287,0.020420614629983902,0.7448957562446594,0.8755029484960694,0.8523342785652901,0.003284954931586981,0.9604997634887695,0.001387268304824829,0.7497452860411004,0.8738768427266113,173.2981147653832,179.74388373961006,1.0,0.003694606757310516,-0.012608669743506001,-0.040344909609373494,-0.04339851526220177,97.87643185612735,1.0006728034620598,64,2.1333333333333333
0.7219797539618299,0.3502078214285989,0.24610495567321777,0.9994885921478271,0.6590328030838302,0.4823346244148074,-0.02943584695458412,0.99994957447052,0.8397960766509828,0.4803854941497819,0.018482578918337822,0.9999809265136719,0.6987498324531478,0.8722671655171094,0.0023286982905119658,0.999779462814331,0.8019771501152392,0.875440094632362,-0.0025446803774684668,0.9998825788497925,0.6850707713832194,1.1190174577599854,0.23143303394317627,0.946639895439148,0.795380045116754,1.1698041374470913,0.13370582461357117,0.8833674788475037,0.6945355456499409,1.3502078214285989,0.31196966767311096,0.8938369750976562,0.7847666107973592,1.4566952853050905,0.19752854108810425,0.818637490272522,0.6227595372553856,0.8861243702262718,0.041343554854393005,0.758979856967926,0.8673666321402158,0.8498229669311935,0.060406140983104706,0.8972983360290527,0.001284092664718628,0.7503634912841936,0.8738536300747357,174.48260921942403,179.1651922130179,1.0,0.006620246744053664,0.00194972062462951,0.022692082011510153,0.1128434143160134,97.57643385417977,0.9900071866098287,65,2.1666666666666665
0.7249314994502821,0.3551355582957919,0.2374938726425171,0.999491274356842,0.6611767127520354,0.4848339039679426,-0.02651936374604702,0.9999538660049438,0.8422909520495585,0.48193749409233466,0.004437183029949665,0.9999769330024719,0.7017648047369802,0.8756825686738791,0.004099871031939983,0.9997991919517517,0.8044900639451936,0.8784730859533108,-0.004286810755729675,0.9998911619186401,0.6900699138504951,1.1224848494270145,0.2398257553577423,0.9495338797569275,0.7980970197225528,1.1752573983260302,0.13458308577537537,0.8914083242416382,0.6976926375483209,1.3551355582957918,0.3300349712371826,0.9008032083511353,0.7864829666902425,1.462170142350196,0.20558175444602966,0.8311856985092163,0.6263102251375089,0.8891548484046268,0.03797158971428871,0.7723570466041565,0.867348235836383,0.848234735699138,0.03721635043621063,0.8451921343803406,0.001901775598526001,0.753127434341087,0.877077827313595,175.41042460766732,178.91598742240663,1.0,0.0018405748102875103,0.0021841396314328312,-0.03627470803414018,0.001721384685325811,97.48473910063325,0.9830957037714263,66,2.2
0.7282507014836527,0.35749554550415164,0.22581665217876434,0.9995309114456177,0.6635410997821203,0.4880171634005683,-0.0217877309769392,0.9999580979347229,0.8439468253348446,0.48485890840586376,-0.00895790383219719,0.9999762773513794,0.7046279115156109,0.8799873587738011,0.010251747444272041,0.9998183846473694,0.8069142510631956,0.8827291480972442,-0.010429209098219872,0.9999008178710938,0.6941420034419623,1.1282556981599057,0.24616511166095734,0.9527772665023804,0.8015926996736341,1.180379328877994,0.12876787781715393,0.89970862865448,0.7009213442463296,1.3574955455041517,0.32514193654060364,0.9088586568832397,0.7890153908114315,1.4651973520715986,0.17853757739067078,0.8453458547592163,0.6322439439349218,0.894381707131766,0.03691476210951805,0.7849442362785339,0.8688982023408608,0.8499289774443378,0.01017612125724554,0.7976189255714417,0.0020645558834075928,0.7557710812894033,0.8813582534355227,175.8875600888564,178.4957682712493,1.0,-0.005416222876147186,0.003085312037744743,-0.05678630385140582,0.006968355092164825,97.51941160636665,0.9895968131833188,67,2.2333333333333334
0.7316950394520854,0.36367637939849323,0.2201998233795166,0.9995654225349426,0.6666786824992285,0.4909986146218361,-0.04821476712822914,0.9999619722366333,0.8471590678511011,0.49162571283125106,-0.02025909163057804,0.9999750852584839,0.7080796229221045,0.8844648842866164,0.008929770439863205,0.9998359680175781,0.8102220626625516,0.8869662233572578,-0.009100999683141708,0.9999098181724548,0.6991427749317914,1.1347344618566633,0.25617167353630066,0.9564341902732849,0.8053068695537704,1.1760051366081072,0.15121175348758698,0.907008945941925,0.7038005971517621,1.3636763793984932,0.36153557896614075,0.9170740246772766,0.7926930851921918,1.4507919594018148,0.22380974888801575,0.8589157462120056,0.6385987352870558,0.9014721578197008,0.0039856648072600365,0.7882253527641296,0.8645274576125856,0.8551205722382235,0.0004131333844270557,0.7241250872612,0.0004080235958099365,0.759150842792328,0.8857155538219371,176.7893788896406,178.3459837558685,1.0,-0.001200420938456714,0.0017069688077413557,0.031680924383010435,-0.010403977093149674,97.40944144666094,1.0021596384690743,68,2.2666666666666666
0.7366110423375866,0.40496324318173355,0.1655246764421463,0.9995954632759094,0.6870507234829861,0.5143011441104313,-0.09437863528728485,0.9999651908874512,0.8696584189473927,0.5128497171527345,-0.023288369178771973,0.9999728798866272,0.7304270013615457,0.9151702045494112,-0.0024234321899712086,0.9998510479927063,0.8337327427442356,0.9166305156728971,0.0022515275049954653,0.9999166131019592,0.7252077902414432,1.1719467910298658,0.2443043291568756,0.95953369140625,0.8303240584532743,1.213964169592298,0.1490376591682434,0.9131360650062561,0.7259463574069653,1.4049632431817336,0.33896857500076294,0.9242967367172241,0.8177609974158419,1.4979625016374274,0.19848139584064484,0.8705294728279114,0.6641329781935316,0.9342996092290227,-0.033064112067222595,0.789881706237793,0.885952451566647,0.8803191343571295,0.002165879588574171,0.6542751789093018,0.0009153485298156738,0.7820798720528906,0.9159003601111542,178.65396931328604,178.12391278315107,1.0,-0.008432865159015817,0.015444736593417548,-0.0529842933557068,0.10077562700390713,96.98556522824204,0.9576123648933885,69,2.3
0.7399037652728417,0.41818696109665565,0.14882995188236237,0.9995982050895691,0.6955894131749252,0.5285441236965871,-0.10766571760177612,0.9999679327011108,0.8720410286256076,0.5198516490971802,-0.015989135950803757,0.9999629855155945,0.7406533211797525,0.9285252184808773,-0.01097790990024805,0.9998643398284912,0.8443067421503271,0.9292194945798268,0.010790962725877762,0.9999220967292786,0.7345309029681428,1.1862740476138627,0.2366935908794403,0.961903989315033,0.8401949773867297,1.2279948434229353,0.1802995800971985,0.9155547618865967,0.7348406613379485,1.4181869610966558,0.3378450572490692,0.9298379421234131,0.8282384574684097,1.5148370286648538,0.24507418274879456,0.8794581294059753,0.6759217190057962,0.9506716018054242,-0.06995637714862823,0.7947244644165039,0.8893155139311099,0.8930993330287759,-0.007394648157060146,0.5940572023391724,0.005412638187408447,0.7924800316650398,0.928872356530352,178.56275669175113,178.4015646598074,1.0,0.003056208552879398,0.009855239439715554,0.09186651153607832,-0.045844028364336445,96.81189200219906,0.9546857376185888,70,2.3333333333333335
0.7424364416583488,0.4260967326321665,0.1345580667257309,0.9996280670166016,0.6955165150978403,0.5404045046573328,-0.0990523174405098,0.9999706745147705,0.8705803032448712,0.5285615704829832,-0.019533026963472366,0.9999600648880005,0.7449504571381548,0.9357656766151731,-0.008998309262096882,0.9998772144317627,0.8479480967756801,0.9350943415487212,0.00880051776766777,0.9999286532402039,0.7386183257908856,1.1924215699157528,0.21849927306175232,0.964320182800293,0.843221689891255,1.2284399337370813,0.16873373091220856,0.9192026853561401,0.7393423391361138,1.4260967326321665,0.3182615041732788,0.9356912970542908,0.8331418408881962,1.5212967832110185,0.22254645824432373,0.8892807364463806,0.6814109188396738,0.9583456863255037,-0.06603382527828217,0.8021995425224304,0.880726698300278,0.8969974488593347,-0.012006472796201706,0.5419754385948181,0.007329851388931274,0.7964492769569174,0.9354300090819472,178.40918047289856,178.95178714293021,1.0,-0.00637967757384883,0.006925893442129916,-0.07147435382300267,-0.02259796351216096,96.75353820617862,0.951378836547217,71,2.3666666666666667
0.747905446137422,0.43361663993556876,0.1199851781129837,0.9996442198753357,0.697055997785757,0.5471209159360846,-0.09374314546585083,0.9999728202819824,0.8684798553546921,0.5355869013252336,-0.05572211742401123,0.999954104423523,0.7481482333950996,0.9404648024480073,0.006332350429147482,0.9998889565467834,0.8513120255318775,0.9395945206189532,-0.006549189332872629,0.9999347925186157,0.7414863077125644,1.1976071166404434,0.2272215187549591,0.9662855267524719,0.8433532841824126,1.217955309640308,0.1651667207479477,0.9226681590080261,0.7427815276855082,1.4336166399355688,0.3476288914680481,0.9410153031349182,0.8368536840971735,1.4978375203457028,0.25648921728134155,0.8982106447219849,0.6851698667020105,0.964234453479887,-0.06819330155849457,0.7974998950958252,0.8744288926604218,0.8916138399278127,-0.09308595955371857,0.4934540092945099,0.007108777761459351,0.7997301294634885,0.9400296615334803,178.2015030659607,179.69259556986552,1.0,-0.0005133803790432997,0.005163694933317614,0.04553668127350024,-0.013841614521451637,96.91749725494996,0.9681726393404722,72,2.4
0.7465685378687308,0.4296113218208814,0.1398775428533554,0.9996662139892578,0.684509297601087,0.5478100948220479,-0.06598766148090363,0.9999751448631287,0.8552130867663461,0.5375651313168923,-0.03426118567585945,0.9999517202377319,0.7398522312270995,0.9352539189181177,0.00637457612901926,0.9998994469642639,0.8414668472323448,0.9339768536499689,-0.006586269475519657,0.9999401569366455,0.7380196917371149,1.191783994909093,0.19659589231014252,0.9680923223495483,0.8387437075298789,1.2044420390873949,0.14479364454746246,0.9256386160850525,0.741167475405575,1.4296113218208815,0.2808155417442322,0.9457231163978577,0.8343327900390838,1.485610431365286,0.20401012897491455,0.9059236645698547,0.6819226764264559,0.9597218762794093,-0.08514295518398285,0.8121358156204224,0.865346791527772,0.8910077434253819,-0.07043363153934479,0.4560278654098511,0.006333768367767334,0.7906595392297222,0.9346153862840433,178.83241193785727,179.67808298331212,1.0,-0.051880494023027614,-0.019805803893624113,-0.4030739237163147,-0.19580320668814347,97.40916603053034,0.969254537840192,73,2.433333333333333
0.7496257298716327,0.4368904433433097,0.10946448892354965,0.9996910095214844,0.6840003850661488,0.5529712928722101,-0.0924886018037796,0.9999772310256958,0.8562510607999846,0.5466627778349792,-0.04961361363530159,0.9999520778656006,0.738475502932005,0.9414418029480268,0.0035299286246299744,0.9999089241027832,0.839411792049141,0.9388951066418767,-0.0037307157181203365,0.9999451041221619,0.7413206546163347,1.1982866497236266,0.1756034642457962,0.9699800610542297,0.8420758131975018,1.2088945040055905,0.1420859545469284,0.9274932146072388,0.7471404131872347,1.4368904433433096,0.25674039125442505,0.9501002430915833,0.8398373250789953,1.4915364537212694,0.20435664057731628,0.9127107262611389,0.6828960856104526,0.9647967247639747,-0.12775865197181702,0.8273160457611084,0.8758781774143759,0.8969884974103622,-0.10646362602710724,0.4479930102825165,0.003874748945236206,0.788943647490573,0.9401684547949518,179.23743958242218,178.980928473013,1.0,-0.05416481252859741,-0.0044671185084864265,-0.015276081208910214,0.12152034232878266,96.5372122384101,0.963258796583093,74,2.466666666666667
0.7494880362500828,0.4346573087861777,0.1233367770910263,0.9997179508209229,0.6815004077083852,0.556779526371586,-0.07738746702671051,0.9999792575836182,0.8568824662342709,0.5517546487923083,-0.06379861384630203,0.9999556541442871,0.7349294888445179,0.9436293491873139,0.010638866573572159,0.9999175071716309,0.8349297757747347,0.9392139308413557,-0.010821572504937649,0.9999499917030334,0.7373944625677891,1.19714814708004,0.17957350611686707,0.9709516763687134,0.8438295729831565,1.2072083095379835,0.11135046184062958,0.931835412979126,0.7502848755046264,1.4346573087861778,0.2734370827674866,0.9537842273712158,0.8425518095059592,1.4958233416369642,0.17147836089134216,0.9196369051933289,0.6777055367464964,0.9658620640855234,-0.09684352576732635,0.842526912689209,0.880067011336321,0.9038901950157693,-0.1036093607544899,0.488667756319046,0.0030792951583862305,0.7849296323096263,0.9414216400143348,177.45048681884364,177.84430986025492,1.0,-0.04479679735515205,-0.006884178729381511,0.07311346063966126,-0.018539754310658817,95.33535858575692,0.9695691499735316,75,2.5
0.7545284233476744,0.4393015507081684,0.11314865201711655,0.9997431039810181,0.6805706039460255,0.5643091976932627,-0.07441239058971405,0.9999811053276062,0.8565452045431982,0.557074623260167,-0.08221279084682465,0.9999592900276184,0.7326636541749502,0.9508449104238655,0.014936672523617744,0.9999251961708069,0.8362874165327597,0.9450731203612678,-0.01511786412447691,0.9999544024467468,0.7383066761106423,1.2013671462401838,0.19126498699188232,0.9720856547355652,0.8500316630489305,1.2046639825361227,0.09250523149967194,0.9360669851303101,0.7563750141245753,1.4393015507081683,0.28080108761787415,0.9573764204978943,0.8495917256902895,1.4841782960024132,0.15506939589977264,0.9260135889053345,0.6727005154594488,0.9690432900418058,-0.10381712019443512,0.8572784066200256,0.8879878439753488,0.9143277586220155,-0.13351505994796753,0.5362088084220886,0.004401952028274536,0.784475535353855,0.9479590153925667,176.9477607823052,176.87907908599672,1.0,-0.047870698108252306,-0.0015185019960366232,-0.02173391699213896,0.04273813888860421,94.48740051861495,0.9910963090054313,76,2.533333333333333
0.7595470698951998,0.4454640804942399,0.10338862985372543,0.9997668862342834,0.6827766546132079,0.5690524856262221,-0.07292352616786957,0.9999827742576599,0.8630309304891486,0.5630569560286613,-0.10099174827337265,0.9999629259109497,0.7351749378832985,0.9566975516534051,0.02223711833357811,0.9999322891235352,0.8375949682183481,0.9500324912825773,-0.02240365371108055,0.9999585747718811,0.7425596292993681,1.20922883464255,0.21352159976959229,0.9720166921615601,0.8549903540966036,1.2104938049314136,0.09097523987293243,0.9400574564933777,0.7624409148083053,1.44546408049424,0.30574169754981995,0.960206151008606,0.8550203058816193,1.491772889998966,0.15908215939998627,0.9317478537559509,0.6743656219323128,0.9728162426953729,-0.09302018582820892,0.8699588775634766,0.8939992042086593,0.920810682501177,-0.15841636061668396,0.5799844861030579,0.003627091646194458,0.7863849530508233,0.9533650214679912,176.86439415723092,176.18517184104056,1.0,-0.020001446747671264,-0.0005306510114843028,0.21471785183882286,0.007603012103604796,93.97474110617487,0.9861753417533031,77,2.566666666666667
0.7601724454391687,0.44664151141716796,0.08698467910289764,0.9997836947441101,0.6833719296103485,0.5698020140400749,-0.07416657358407974,0.9999841451644897,0.8656114580857471,0.5631362285579258,-0.12312748283147812,0.9999659061431885,0.7321433193272413,0.9584010768628014,0.028904259204864502,0.9999386072158813,0.8373292877875531,0.9502960562646193,-0.02905547060072422,0.9999622702598572,0.7432469851536215,1.2124581313869824,0.21646419167518616,0.9699596166610718,0.857516118662757,1.1979100911235676,0.0782533586025238,0.9414300322532654,0.765002018228665,1.446641511417168,0.31977424025535583,0.9622278213500977,0.8566534074081538,1.4475913532484985,0.17281754314899445,0.9354079961776733,0.6709614039205598,0.9711548397281446,-0.09417657554149628,0.8807560205459595,0.8973864580906865,0.926597428482294,-0.1775198131799698,0.6193984150886536,0.004021883010864258,0.7847363035573972,0.9543485665637104,177.19514460894666,175.14127622165316,1.0,-0.025863664831519605,-0.010726158633180905,-0.0401832105204081,-0.07051607857651228,92.747368313006,1.0300756802792361,78,2.6
0.7829517373596434,0.46108765785887995,0.07245466858148575,0.9997990727424622,0.7023002572133239,0.5885048081189418,-0.08918741345405579,0.99998539686203,0.8925351725385103,0.5797778020232798,-0.13421429693698883,0.9999688863754272,0.7502281501173551,0.9851509084791301,0.027135441079735756,0.9999443292617798,0.8583983655567425,0.9755442929937791,-0.027308469638228416,0.9999656677246094,0.7663176145942354,1.2472907984976636,0.21878275275230408,0.9697211980819702,0.8839094307292459,1.220110221771842,0.08873645961284637,0.943350613117218,0.7884808488564086,1.4796395398701525,0.32194629311561584,0.9648494124412537,0.8773351434982142,1.4610876578588798,0.19120122492313385,0.9395948648452759,0.6866236394425261,0.9967562335448716,-0.09043235331773758,0.8903303742408752,0.9258138041499825,0.9619726384814573,-0.18105098605155945,0.6563611626625061,0.005108505487442017,0.8043132578370488,0.9803476007364545,178.06342785146433,172.4821799631396,1.0,-0.033757140960712285,-0.02478769525159288,-0.052704005800076704,-0.10195547820921817,91.81467911272259,1.0587710155423884,79,2.6333333333333333
0.8032464845789993,0.47419863878785457,0.0600900761783123,0.9998131990432739,0.7182852367031116,0.6099607164223744,-0.09689442068338394,0.999986469745636,0.9164070223911052,0.5977504803240201,-0.15246540307998657,0.9999716281890869,0.7682736494457227,1.0131960692755675,0.028828313574194908,0.9999494552612305,0.8772594235609102,1.0014647172986706,-0.029020344838500023,0.9999687075614929,0.787445664768758,1.2794219209965816,0.2160608470439911,0.9698117971420288,0.9097557376820856,1.2443539478304286,0.0782100185751915,0.9454537630081177,0.8111007915463392,1.5103540234381996,0.2959921956062317,0.9674487113952637,0.8969147736013269,1.4741986387878545,0.1861720085144043,0.9434939026832581,0.6974291158823128,1.0237918386123859,-0.08766739070415497,0.8990494012832642,0.9527185444184658,0.9934718658982041,-0.2081698626279831,0.6903142929077148,0.0069498419761657715,0.8227665365033165,1.0073303932871192,178.27039897554334,169.18193543505447,1.0,-0.03503331439402644,-0.007098649353084187,-0.002506939839409184,0.14582420726831505,90.92308090819607,1.0978202101746293,80,2.6666666666666665
0.8064441553319015,0.4760578214553631,0.07468198984861374,0.9998258948326111,0.7186338300118305,0.6143676821678912,-0.09253399819135666,0.9999873638153076,0.9206638845508842,0.6006373114745293,-0.14191696047782898,0.9999740719795227,0.7658431172124917,1.0121834342725804,0.02750752866268158,0.9999539852142334,0.8766837580101684,0.9966944799252415,-0.0277080275118351,0.9999713897705078,0.7871882593976717,1.2814383164697516,0.15823377668857574,0.971494734287262,0.915061420616884,1.2403144006747013,0.04697626084089279,0.9489531517028809,0.8157037612804579,1.5244527333905766,0.18673348426818848,0.9701814651489258,0.8991864562622488,1.476057821455363,0.11353592574596405,0.9478857517242432,0.6913194880548861,1.027240246993743,-0.06054577976465225,0.9065150022506714,0.9584316724107378,0.9990244426486816,-0.217294842004776,0.7208647131919861,0.0077702999114990234,0.82126343761133,1.004438957098911,177.8401080169679,167.19523225566584,1.0,-0.04720232404906633,-0.06573703044094673,-0.09046538197793189,-0.4429666759427977,88.81266833964995,1.063267163381502,81,2.7
0.8121914106705814,0.4787222381682775,0.10000336170196533,0.999840259552002,0.7217395018216526,0.6227868127950205,-0.059795551002025604,0.9999881982803345,0.9263943056842883,0.6072352528905836,-0.1251324564218521,0.9999763369560242,0.7712560356998281,1.017754520706675,0.02944674715399742,0.9999579787254333,0.8823377954581508,1.0007270693809034,-0.029655251652002335,0.999973714351654,0.7913703485784106,1.2863852226225536,0.1447579562664032,0.9726641774177551,0.9218477876218878,1.2406011798430308,0.023821953684091568,0.9521489143371582,0.8217626869733933,1.5389335997415148,0.15671193599700928,0.9723620414733887,0.9023897683978424,1.4787222381682774,0.06971054524183273,0.9512717723846436,0.6889346873744912,1.0274106854369127,-0.024628134444355965,0.9133169054985046,0.9657601466872026,1.0061866685908043,-0.18472549319267273,0.7482934594154358,0.00873565673828125,0.8267969155789895,1.0092407950437892,177.42003053231173,165.975179966338,1.0,-0.004727610918685102,-0.021149205297607516,0.3347875521003999,0.3523889060544497,88.43091334116038,1.0596736911509972,82,2.7333333333333334
0.8214277343246116,0.49066549397021947,0.11655233800411224,0.9998535513877869,0.7279424160132064,0.6338150217244377,-0.03867930546402931,0.999988853931427,0.9310196071048542,0.6189626903492993,-0.12258919328451157,0.9999783635139465,0.7801041299092786,1.0273650089027635,0.030468180775642395,0.9999614357948303,0.8893331018405659,1.0102089061317747,-0.030683094635605812,0.9999756813049316,0.8010319128012443,1.3007666562022926,0.11987213045358658,0.9739313125610352,0.9312018620686067,1.2499679391098932,0.007568606175482273,0.955016553401947,0.8333146412041786,1.5570828929151252,0.12183821201324463,0.9740951061248779,0.9121678573579757,1.4906654939702195,0.055175285786390305,0.9536859393119812,0.6931074208503648,1.0225668439388504,-0.008819294162094593,0.9193719625473022,0.9762384688737968,1.0169983594371466,-0.1741817593574524,0.7731257081031799,0.008252561092376709,0.8347186158749222,1.018786957517269,177.19868553372746,165.57295283019948,1.0,-0.008635880836592513,-0.011487941950596913,-0.029538149903629164,0.07577108578942773,88.62379923567546,1.0429806993495316,83,2.7666666666666666
0.8215858449606999,0.4925352977615923,0.13030840456485748,0.9998666644096375,0.7295463382846293,0.6351578309408178,-0.014931900426745415,0.9999895095825195,0.9258826652793384,0.6201769916250781,-0.10176509618759155,0.9999802112579346,0.7816210287504123,1.0220496166522302,0.033260542899370193,0.9999646544456482,0.8872177184706851,1.006022005958718,-0.03347070515155792,0.9999775290489197,0.8027863845169871,1.296388780876323,0.12168358266353607,0.9756913185119629,0.9308311365812191,1.2483078796135147,0.00411814171820879,0.9584358930587769,0.8346284114465311,1.5558431639666506,0.1284884512424469,0.9759587645530701,0.9128168217131181,1.4925352977615922,0.05516090989112854,0.9566687345504761,0.6903730500752214,1.0076273736320023,0.007486341986805201,0.92583167552948,0.9745838953711327,1.0156561428161512,-0.1707681268453598,0.7954908013343811,0.008324295282363892,0.8344193736105487,1.0140358113054742,177.41490472582686,165.57705621131367,1.0,-0.0020114831134287994,-0.035601528426937694,0.050061176593211916,-0.1822414254764654,89.03524245109486,1.0195271917428268,84,2.8
0.8213392121735217,0.49826922773862586,0.16231665015220642,0.9998793601989746,0.7286523883092013,0.6369448291617518,0.005342957563698292,0.9999901652336121,0.9194632628056189,0.6258804618437321,-0.06427142024040222,0.9999819993972778,0.781516387849506,1.0196213152411198,0.03269938379526138,0.9999672770500183,0.8842355694202683,1.0032917316910088,-0.03291032463312149,0.9999790191650391,0.8037212380856305,1.294434866862559,0.10275819152593613,0.9775722026824951,0.9277110849078095,1.2459348641288297,0.027451133355498314,0.9614288210868835,0.8357771622539094,1.5559093203766714,0.09543360769748688,0.9776938557624817,0.9124715625149752,1.4982692277386258,0.08023729920387268,0.9589834809303284,0.6930693101150021,0.9960132578366638,0.041327085345983505,0.9315087199211121,0.9736614294488255,1.013941054578423,-0.14322245121002197,0.8157933950424194,0.006151646375656128,0.832875978634887,1.0114565234660642,177.63004584294322,166.38570129457437,1.0,-0.0075661096709747876,-0.014233644259396144,-0.039784530376524414,0.152864553953983,88.83232183314166,0.9923353031905078,85,2.8333333333333335
0.8232157325772493,0.4968680032855933,0.17194384336471558,0.9998911619186401,0.7297838729198769,0.6365666944756512,0.023644668981432915,0.9999908208847046,0.9149701505696695,0.6277810146510945,-0.05246838927268982,0.9999836683273315,0.7827023897349451,1.0193647495485956,0.03148341178894043,0.9999696612358093,0.8835796062393665,1.0015894883325613,-0.03169342130422592,0.9999804496765137,0.8074800769613111,1.2930998680056454,0.11260490119457245,0.9792640805244446,0.9262481275057315,1.2471235506202534,0.03141535818576813,0.9639440178871155,0.8370710639328482,1.5548421205505536,0.11494191735982895,0.9791197776794434,0.9152593239649448,1.4968680032855932,0.09427829086780548,0.960685133934021,0.696070341642921,0.988920990663432,0.08925285935401917,0.9359791874885559,0.9718999829027303,1.0136725600404843,-0.13197576999664307,0.8340358734130859,0.004882216453552246,0.8331409979871558,1.0104771189405786,178.72202298224414,167.62227997158956,1.0,-0.0012325826715137995,-0.011337813754358918,0.047927972922456805,0.0219556159535711,87.87743294491383,0.9932953398071056,86,2.8666666666666667
0.8262730543235679,0.4955270423493502,0.16805748641490936,0.9999017715454102,0.7296799200511431,0.6397091646537192,0.029910143464803696,0.9999914169311523,0.9128212497811838,0.6287468458196626,-0.050259899348020554,0.9999851584434509,0.7833352113877504,1.0160278682914274,0.030598411336541176,0.9999715089797974,0.8835645376388093,0.9980372322010942,-0.030805673450231552,0.9999815225601196,0.8112701054298491,1.284052863936538,0.10211106389760971,0.9807232618331909,0.9228320031832085,1.2451891934873467,0.034758225083351135,0.9657598733901978,0.8366041218284523,1.5511468161137176,0.09383693337440491,0.9802508354187012,0.9171500446526861,1.49552704234935,0.09824354946613312,0.9617535471916199,0.6955846860281485,0.9816179462915016,0.12210986763238907,0.9392285346984863,0.969065255612851,1.0117171841871997,-0.10655621439218521,0.8504342436790466,0.006097227334976196,0.8334498745132798,1.007032550246261,179.46816078468365,169.6720837865152,1.0,0.00776548262658783,-0.018734639095868057,0.06632079364073117,-0.054600122994313174,87.93857589754883,0.9873130684154305,87,2.9
0.8294869586813751,0.4952716925096009,0.1676245927810669,0.9999113082885742,0.7294185972867128,0.6382842762207226,0.03636506199836731,0.9999919533729553,0.9101650754488904,0.6274303990899567,-0.057034678757190704,0.9999865293502808,0.7827531733922611,1.013897616163377,0.03211649879813194,0.9999733567237854,0.8826101171758954,0.994615730423219,-0.03231753781437874,0.9999825954437256,0.8118731787716589,1.2810891096052819,0.09709353744983673,0.9820565581321716,0.921566314862551,1.245989931510652,0.03752043470740318,0.9679322242736816,0.8359396661571907,1.5454392874096878,0.08335205912590027,0.981383740901947,0.9186424451718219,1.495271692509601,0.08435286581516266,0.963479220867157,0.6951975330578926,0.9785611620869601,0.1173567995429039,0.9425258636474609,0.966319070559142,1.009681898674697,-0.1196136623620987,0.8652584552764893,0.006042003631591797,0.8326816452840783,1.004256673293298,178.98201603786947,170.51877988117116,1.0,-0.0005009924918080422,-0.014650876289681326,-0.06279073625284684,0.03092412933638781,87.15256517743998,0.9825685156027815,88,2.933333333333333
0.8356694744673308,0.49824116518322875,0.1728789061307907,0.9999198317527771,0.7372779246184763,0.6405182667301461,0.03136492893099785,0.9999924898147583,0.9153891579668729,0.6308449575721534,-0.05432326719164848,0.9999877214431763,0.7874420522397952,1.0141820526732455,0.031485579907894135,0.99997478723526,0.8871989705179048,0.9971912313327989,-0.03168649598956108,0.9999833703041077,0.8157247377666049,1.2845161820816058,0.09658060222864151,0.9831826090812683,0.9233008627435543,1.2503037244297266,0.049167029559612274,0.9689443707466125,0.840276900524932,1.5532240662144263,0.08575062453746796,0.9820768237113953,0.9249778744060023,1.4982411651832288,0.10044445842504501,0.9630855917930603,0.7027074671385789,0.9770439668639619,0.10924933850765228,0.9458420872688293,0.9691278522951973,1.0155947994784185,-0.12061087787151337,0.8785613179206848,0.005360692739486694,0.83732051137885,1.0056866420030222,179.24806180394316,172.2700847805375,1.0,0.006829371272599729,-0.0236770768344239,0.056188511718807746,-0.0686608424981629,87.98021688196741,0.9720900756517539,89,2.966666666666667
0.8428084085376718,0.5046498844525006,0.18414029479026794,0.9999268054962158,0.7444073631349536,0.6398771494984831,0.038827959448099136,0.9999927878379822,0.9218797240703543,0.6345444167724084,-0.04094547778367996,0.9999887943267822,0.7920286150063309,1.0154472689989587,0.030363228172063828,0.9999749064445496,0.8926818835526712,1.001749421856931,-0.030553629621863365,0.9999831914901733,0.8206072820746042,1.2898659151505254,0.09817661345005035,0.9836341738700867,0.9258494640634705,1.2572733818415625,0.06755056977272034,0.9674211740493774,0.845341936509576,1.5621214017978742,0.09113263338804245,0.9817197322845459,0.9326019696204846,1.5046498844525007,0.13540181517601013,0.9576457142829895,0.7151997348099043,0.9761079622190636,0.10363417863845825,0.9451791644096375,0.9728130942476624,1.019841291514701,-0.11086764186620712,0.8904645442962646,0.0029389560222625732,0.8423552492795011,1.0085983454279448,179.2456237405812,174.1678153967474,1.0,0.0033212241383147826,-0.02273059256589103,-0.030218964698209807,0.009185185937419097,89.47664139578919,0.9565215652094848,90,3.0
0.8523492067551806,0.515989991110569,0.19006089866161346,0.9999330639839172,0.7555833288793272,0.6469311023736082,0.0412406250834465,0.9999930262565613,0.9321736303822018,0.6441798382283134,-0.034201156347990036,0.9999897480010986,0.8018382639453837,1.027023629841163,0.02861993946135044,0.999975323677063,0.9023157224665641,1.0130009978066616,-0.0288182832300663,0.9999831914901733,0.8292756518232952,1.3039142679794562,0.09449047595262527,0.9839475154876709,0.9333268627281885,1.2716130508170942,0.08504641801118851,0.9645312428474426,0.8540235304867698,1.5768848342678001,0.08546125143766403,0.9813205003738403,0.9423579475371642,1.515989991110569,0.1570264846086502,0.9512271881103516,0.7331056817050307,0.9863243978866916,0.10625740140676498,0.945393443107605,0.979646558496074,1.0325767643848274,-0.09813400357961655,0.9011349081993103,0.0015003383159637451,0.8520769932059739,1.0200123138239123,179.5213242187573,175.2785324729919,1.0,0.005757725019185181,0.005220450461161166,0.017749545822670694,0.20839288415379492,88.99354649645257,0.9537879775848404,91,3.033333333333333
0.8592680176053166,0.5250672406149021,0.18268415331840515,0.9999382495880127,0.7654710728270763,0.6525226562502153,0.03476593643426895,0.9999932050704956,0.9436513589616908,0.654642392352329,-0.035212934017181396,0.9999905824661255,0.814628681080953,1.0348950203230471,0.026973295956850052,0.999975860118866,0.9122255989105932,1.0222058118045338,-0.027184952050447464,0.9999833703041077,0.8362761223003523,1.3151272852922642,0.10017146170139313,0.9833105206489563,0.9388148292249577,1.282509449231786,0.09525378048419952,0.9588212966918945,0.8600806088289455,1.5856690761507368,0.10206671804189682,0.9795995950698853,0.9470630847990883,1.525067240614902,0.17867162823677063,0.9411962032318115,0.7459978160060907,0.9984261246011786,0.12641122937202454,0.9415299892425537,0.9864715272058242,1.0440226048605024,-0.08589588105678558,0.9105455875396729,0.0011463165283203125,0.8634271399957731,1.0285504160637904,179.38882117554235,176.1152489113737,1.0,0.03408426358917924,-0.00026942132808681503,0.23002828268291126,-0.04501413034103885,89.91789440979238,0.9529729788819846,92,3.066666666666667
0.8703707486877628,0.5435238344980734,0.18207181990146637,0.9999421834945679,0.7785467916036908,0.6651948755681226,0.03080294094979763,0.9999932050704956,0.9558936001311931,0.6682224070147635,-0.03564808890223503,0.9999912977218628,0.828190325451816,1.0490941239655796,0.027327492833137512,0.9999756217002869,0.925203060619954,1.0389998965146885,-0.02754051610827446,0.9999831318855286,0.8471753031131664,1.3322807303093518,0.11385983228683472,0.9816319942474365,0.9494407830142982,1.3019148801496083,0.1024913564324379,0.9485729932785034,0.8711077047661182,1.602973745876914,0.13730278611183167,0.9768344163894653,0.9570772622229605,1.5435238344980733,0.20474691689014435,0.9264446496963501,0.7695605379584012,1.013799827703096,0.12819702923297882,0.9228400588035583,0.9985174919759812,1.0648985749056714,-0.09096980839967728,0.9187672138214111,0.0016164779663085938,0.876696693035885,1.044047010240134,178.7829255488041,176.5432109846805,1.0,0.015916254341114055,0.01669366017309611,-0.13574355498492352,0.12378448218225596,91.4279742522988,0.9435271998722966,93,3.1
0.8709757771599355,0.5439652326761564,0.17841066420078278,0.99994295835495,0.7851006970279173,0.6691871351172408,0.034812428057193756,0.9999924302101135,0.9570909674346714,0.6700286921578766,-0.041077885776758194,0.9999919533729553,0.8305136477009594,1.0530279121904265,0.027648303657770157,0.9999755620956421,0.9259386847732625,1.0446881014434113,-0.02786225453019142,0.9999834895133972,0.8480448122290148,1.331803263433797,0.1439608931541443,0.9778916835784912,0.9457649541506223,1.3055485805468274,0.12282377481460571,0.9339021444320679,0.8694319648970575,1.5964069837909476,0.19997088611125946,0.9721568822860718,0.9544085845624241,1.5439652326761564,0.2601167559623718,0.9065684676170349,0.792149413668772,1.0296972843732537,0.1664315164089203,0.8524453043937683,0.9980294120420035,1.0679177535732423,-0.0543045699596405,0.9257058501243591,0.0004495680332183838,0.8782261662371109,1.0488580068169189,178.97737756954228,177.72999440191575,1.0,0.014925331890145178,0.040138930473684616,-0.007349713824805998,0.17545723164827792,91.75265186469844,0.9665538594723427,94,3.1333333333333333
0.8773241559483842,0.5491897632280178,0.19268280267715454,0.9999439120292664,0.7979400525472673,0.6756742280099581,0.05589708685874939,0.9999914169311523,0.9679415501998523,0.6762163636782325,-0.02509310469031334,0.9999925494194031,0.8370272722367651,1.057675312617468,0.02731262519955635,0.9999749660491943,0.9319327825729492,1.0494116096706112,-0.027531687170267105,0.999983549118042,0.8530771437877029,1.3329250320387276,0.1357646882534027,0.9742198586463928,0.9491067620106779,1.3113756434849506,0.12614567577838898,0.9174326658248901,0.8729413510171011,1.5956845642220379,0.16861367225646973,0.9658015370368958,0.9566179967862941,1.5491897632280178,0.2497818022966385,0.8810810446739197,0.8055741587078077,1.0397537955519887,0.20969489216804504,0.7809758186340332,1.00261335613635,1.073031154143301,-0.008631424978375435,0.9314268827438354,0.00028836727142333984,0.8844800274048572,1.0535434611440395,179.01390336766218,178.05819574479222,1.0,0.017993070552504504,0.0010995183907610442,0.021998949951442102,-0.2872416874437208,90.86594017508001,0.9704201278478923,95,3.1666666666666665
0.8920710989379623,0.5583405207011711,0.1857072412967682,0.9999411106109619,0.8049882448800408,0.688241579071062,0.04416046291589737,0.999989926815033,0.9804920589107421,0.6858517898450321,-0.03380207717418671,0.9999929666519165,0.8476345166322322,1.0685758121302456,0.02433914691209793,0.9999740123748779,0.9425684309362369,1.0597529125415126,-0.024555575102567673,0.9999834895133972,0.8594631043278534,1.3406920694625597,0.1323799341917038,0.9715601205825806,0.9556899830804142,1.3207337858201063,0.13004077970981598,0.9012016654014587,0.8773922226331976,1.6053818784661946,0.16456757485866547,0.9618144035339355,0.9629372197878746,1.5583405207011711,0.2470952570438385,0.8636997938156128,0.8164395063442099,1.0644064334489236,0.18370136618614197,0.71524977684021,1.0099692106986404,1.0816914394569708,-0.009471491910517216,0.9364656209945679,0.0012621879577636719,0.8951014737842345,1.064164362335879,178.61392925626834,178.86875159069479,1.0,0.034729256006584545,0.025115807065977866,0.13291253609212386,0.19213343454634066,91.08809952667673,0.9759366624716329,96,3.2
0.9052288669239279,0.5592434983745124,0.18072323501110077,0.999936044216156,0.8118536321577997,0.6919258192992518,0.04155929386615753,0.9999879002571106,0.9889229316214925,0.6869949749129852,-0.03797285258769989,0.9999933242797852,0.8606432330600429,1.0697447996629414,0.023823726922273636,0.9999725222587585,0.9547444976684272,1.06029612864503,-0.024047166109085083,0.9999832510948181,0.8637269671270073,1.3341771852947373,0.11431650072336197,0.968612551689148,0.9603356619586975,1.3195107044766434,0.11613943427801132,0.8842397928237915,0.878549332484773,1.6022119219524134,0.1343773901462555,0.9571084380149841,0.9645878803188678,1.5592434983745125,0.21914856135845184,0.8480117917060852,0.8339730211830648,1.0637268315261028,0.17543141543865204,0.6514723896980286,1.0164673173287728,1.0825865443109572,-0.0220252126455307,0.9410319924354553,0.0026008784770965576,0.907693865364235,1.0650204641539858,177.50289435848657,179.7805097201496,1.0,0.08551804073569408,-0.003973442934721468,0.37979847871109895,-0.21796843057662396,91.62433304031907,0.9803976277336228,97,3.2333333333333334
0.9063415677274159,0.5585901430287796,0.1627703756093979,0.9999311566352844,0.8164272223808848,0.6940698532473755,0.04082707315683365,0.9999862313270569,0.9943164717490723,0.6898331173529648,-0.047019071877002716,0.999993622303009,0.866117144155828,1.0705478637620074,0.023904625326395035,0.999971330165863,0.960032559047623,1.0609720524475235,-0.024127651005983353,0.999983012676239,0.8658839656472194,1.3316045480212875,0.11238545179367065,0.9650009274482727,0.9614229226573914,1.3196917497723202,0.11433567851781845,0.8657391667366028,0.8784154446045269,1.6021002123654609,0.13635727763175964,0.953444242477417,0.9653455686838776,1.5585901430287796,0.22828760743141174,0.832229733467102,0.8373492262618031,1.065054259519425,0.15967214107513428,0.5950928926467896,1.0192000789776288,1.0841562384212933,-0.041367433965206146,0.9447513818740845,0.0022331178188323975,0.9130748516017254,1.0657599581047654,177.29632988955186,179.3672089959245,1.0,0.03580959152752549,-0.00031820251015585074,-0.3780015472393032,0.02778290886246043,91.69691875686374,0.9855284880855252,98,3.2666666666666666
0.9061054666923555,0.5602397041907762,0.14507022500038147,0.9999292492866516,0.8220539713639866,0.694625485867149,0.020403459668159485,0.9999851584434509,0.9985115558059442,0.6921163472596591,-0.0533292219042778,0.9999939203262329,0.8717877558729323,1.0728216461357276,0.02071797102689743,0.9999709129333496,0.964087280567281,1.0623806003782696,-0.02097398415207863,0.9999831318855286,0.8707747703749328,1.3253411152567316,0.09501921385526657,0.9636266827583313,0.9656540042629169,1.3189776322984512,0.11094838380813599,0.8538178205490112,0.8790827138851341,1.5969098812481255,0.09606342762708664,0.9536163806915283,0.9678159015766489,1.560239704190776,0.1978738009929657,0.8310372829437256,0.8389685221742701,1.0697776448367753,0.1486019790172577,0.5490941405296326,1.0252475482956467,1.0865468032346381,-0.06467568129301071,0.9492785930633545,0.0013192296028137207,0.9179375182201066,1.0676011232569986,178.01788881759373,179.8364294170846,1.0,0.019533306716917893,-0.006235842176399114,-0.12392039017753806,-0.04480176688830651,91.03761914291431,0.9931391485202005,99,3.3
0.900652125570901,0.5515111298875932,0.14140500128269196,0.9999315738677979,0.8193914287991119,0.6906925741513601,0.0025684384163469076,0.9999856948852539,0.9964650847386509,0.6859787334345436,-0.056855134665966034,0.9999942183494568,0.8717250825244999,1.0634697168035396,0.0204169861972332,0.9999709725379944,0.9658379504247859,1.0525497675000413,-0.02065330184996128,0.9999828934669495,0.8700137118324717,1.312240358220989,0.11549458652734756,0.9633074998855591,0.9637264421463368,1.3085777034764483,0.10075826942920685,0.8519179224967957,0.8717232778165696,1.5757603135815381,0.13982459902763367,0.954168975353241,0.9626706880071123,1.5515111298875932,0.19113314151763916,0.8315387964248657,0.8256615481201964,1.0721403232604123,0.1051115170121193,0.5741810202598572,1.029705774518325,1.0791570276934124,-0.0857621282339096,0.9539593458175659,0.0024909675121307373,0.9187815164746429,1.0580097421517904,179.23415384629655,179.77647989523788,1.0,0.04116871638344147,-0.03159526176963088,0.16337261295910163,-0.19086120851667307,91.37299132664282,1.002358662610425,100,3.3333333333333335
0.9019814199860745,0.550329960320392,0.1346108615398407,0.9999370574951172,0.8239637129934558,0.6913366057721146,-0.019091911613941193,0.9999867081642151,0.998434314113743,0.6857379336668485,-0.05610641837120056,0.9999945759773254,0.8736368206549171,1.058113892735459,0.014781643636524677,0.9999721050262451,0.9704082998834956,1.048948973709313,-0.014971676282584667,0.9999831318855286,0.8696913621534886,1.3019569776453532,0.1008506789803505,0.9657896161079407,0.96465448038708,1.305730482531509,0.09183469414710999,0.8591834902763367,0.8714662798904054,1.56826795392568,0.1215197890996933,0.9570558071136475,0.9625750203338392,1.550329960320392,0.18062631785869598,0.8394882082939148,0.821656522963675,1.0700521771222624,0.03455428406596184,0.6130132079124451,1.036413222415262,1.0784167138237284,-0.12150722742080688,0.9583339691162109,0.0029585659503936768,0.9220225602692064,1.053531433222386,178.6911559415491,179.20345011227192,1.0,0.024259908631206705,-0.03339853007786799,-0.12631145789786408,-0.01347259346709445,92.30254882857513,0.99566277555432,101,3.3666666666666667
0.9116705828876417,0.5501410036936454,0.13411754369735718,0.9999406933784485,0.8281734431435491,0.691494859096409,-0.029448602348566055,0.9999876022338867,1.0034329838389267,0.6871380550372621,-0.057302672415971756,0.9999948143959045,0.8754170824684797,1.0576594994136244,0.012464598752558231,0.9999725818634033,0.9756852164796533,1.0484091157104423,-0.012613741680979729,0.9999829530715942,0.8686584360701012,1.2906684908840358,0.11814985424280167,0.967036783695221,0.9674435287326925,1.299939853838907,0.09216415882110596,0.8643282055854797,0.8708135466186324,1.5501410036936454,0.15817256271839142,0.9588117003440857,0.9622824072337813,1.5509437420499492,0.18296197056770325,0.8457874655723572,0.8206836247071294,1.0686663878832414,-0.013295372016727924,0.6479440331459045,1.0420359348639352,1.0756698486138325,-0.16341891884803772,0.9622268080711365,0.0023023486137390137,0.9255511494740665,1.0530343075620332,177.86267476257913,179.30125587893693,1.0,0.02772691939136133,-0.0037605921183880733,0.027134487001165646,0.23193105149076368,92.0808686625781,1.011040011522629,102,3.4
0.945296803291439,0.5705337457257215,0.1568860560655594,0.9999440312385559,0.862710197629784,0.7144557240169043,-0.02947392128407955,0.9999885559082031,1.0441963424937102,0.7108328334449544,0.008587564341723919,0.9999949932098389,0.9106254302222578,1.087620031427765,-0.011244471184909344,0.9999732971191406,1.0148913953685497,1.080466465717748,0.01103386003524065,0.9999825358390808,0.8961771812443122,1.3154303433487988,0.026566246524453163,0.9693078398704529,1.0037801341874284,1.3380332543758087,0.07794395834207535,0.8708193898200989,0.8990260792698773,1.5705337457257216,-0.003939290530979633,0.9609156847000122,0.9949108025257715,1.604185742376159,0.08003692328929901,0.8541297912597656,0.8327075219849978,1.096037134875784,-0.03672198951244354,0.6822554469108582,1.086408539521765,1.1075116689782623,-0.06445930898189545,0.9656273126602173,0.001854628324508667,0.9627584127954038,1.0840432485727567,175.73120069473464,179.43846196872357,1.0,0.055274707754438254,-0.022592353746106224,0.20120432819033748,-0.14124750887007093,93.39203964467819,1.0203354348183131,103,3.433333333333333
0.9709432885026171,0.5886038284936503,0.15903915464878082,0.9999428987503052,0.8879303684626098,0.7327073916541308,-0.043222274631261826,0.99998939037323,1.0728814585658168,0.7296936005934872,0.011851516552269459,0.9999949336051941,0.9355596859433676,1.1147583409920507,-0.014410620555281639,0.999974250793457,1.0423564807067438,1.1073062225177328,0.014212684705853462,0.9999824166297913,0.9216979891056796,1.341812420933251,0.06183967739343643,0.9707146883010864,1.032292851456081,1.3708821977401786,0.08256387710571289,0.8758867979049683,0.9222284168096244,1.5886038284936503,0.06447599083185196,0.9622893929481506,1.0208068335745046,1.6453730160789812,0.10357310622930527,0.8615162968635559,0.838791083015724,1.1166205353853624,-0.044651906937360764,0.7130002975463867,1.1216070688693944,1.132346991951113,-0.033287547528743744,0.9681017398834229,0.001505523920059204,0.9889580833250556,1.1110322817548919,176.3832718955637,179.7904221569606,1.0,0.017821649977417375,0.0010263801157104427,-0.29436049055710534,0.1833265893730962,93.11471226054489,1.0325531613415788,104,3.466666666666667
0.997504519680323,0.6005415073542086,0.14421316981315613,0.9999419450759888,0.9088606818802427,0.7440606471756898,-0.05242414399981499,0.9999901056289673,1.0913565245135137,0.7415025799090811,-0.0030923900194466114,0.9999949336051941,0.9535090465402717,1.130224290896859,-0.01244103442877531,0.9999744892120361,1.062216575192582,1.1247801353271567,0.012247653678059578,0.9999817609786987,0.9372329868472289,1.3542046159357757,0.06717506796121597,0.9715186357498169,1.050737050666769,1.392417067296842,0.07886300981044769,0.8794171214103699,0.9395954168905629,1.6005415073542086,0.07020623981952667,0.9631521105766296,1.0367558658904108,1.668985089947379,0.10164079815149307,0.866878092288971,0.8426444796646648,1.1313813920706277,-0.059293247759342194,0.7410449981689453,1.1503891629701692,1.1397401726830212,-0.05206756666302681,0.9708812832832336,0.0012582838535308838,1.007862810866427,1.1275022131120078,175.29430874490504,179.56205683281834,1.0,0.028523939091163512,-0.006690727611645042,0.08468648468358679,-0.0628196260471006,93.72825099658985,1.0382501331138945,105,3.5
1.0063037248589553,0.600166471436595,0.12531869113445282,0.9999418258666992,0.9117362241676459,0.7436323524834029,-0.06417164951562881,0.9999908208847046,1.0952955709804337,0.7431728118617197,-0.02495286613702774,0.9999949336051941,0.9529035057959168,1.124218287366957,-0.006577654276043177,0.9999754428863525,1.0632476392220949,1.1244731301365989,0.006379032041877508,0.9999819993972778,0.9401206094278985,1.3481446562172248,0.13425779342651367,0.9696964621543884,1.0494012224458826,1.3902800738995582,0.08900845795869827,0.8812112212181091,0.9430602038184991,1.6001664714365949,0.19397972524166107,0.9622902870178223,1.035834963144091,1.6612733829445023,0.15759432315826416,0.8700523972511292,0.8366417270394113,1.123195161475719,-0.06543701142072678,0.7660602927207947,1.1550778814765523,1.1273185514029616,-0.057323407381772995,0.973063588142395,0.00022614002227783203,1.0080755725090058,1.1243457087517779,176.0645306865387,179.88394812925256,1.0,0.004764125250655879,-0.019692193877148812,-0.17504893195874152,-0.09585819161519706,96.30590216456024,1.0344638177711836,106,3.533333333333333
1.0051281085955266,0.6067552198294315,0.13328227400779724,0.9999359250068665,0.9173683619284146,0.7471721382400894,-0.0645313411951065,0.9999912977218628,1.1019173024783753,0.7470973892503545,-0.011006304994225502,0.9999947547912598,0.9563336561728639,1.1263721843889376,-0.008605200797319412,0.9999760389328003,1.0663677516706187,1.1276180818474113,0.00843747891485691,0.9999819993972778,0.9439530131858189,1.3477173625933223,0.13167056441307068,0.968674898147583,1.0519807267836379,1.390745698593371,0.10145269334316254,0.8841683864593506,0.9478310952153968,1.6067552198294315,0.18978609144687653,0.962405264377594,1.0387315138947502,1.6601653464655144,0.1702667772769928,0.8748190999031067,0.8369610376204196,1.1161344267371853,-0.08086909353733063,0.7888652682304382,1.1589050578530462,1.1171131466531459,-0.03312613442540169,0.9750994443893433,3.668665885925293e-05,1.0113507039217413,1.1269951331181745,175.9408571163069,179.685714371219,1.0,0.004361193021824789,-0.0024218807328396665,-0.0030174629693023873,0.12577893183018748,96.51564857389981,1.026614024213246,107,3.566666666666667
0.996855258715321,0.6024652171593796,0.10393393039703369,0.9999383091926575,0.9164080332022239,0.7397755584081506,-0.08323337882757187,0.9999918937683105,1.103039753466202,0.7429082175455854,-0.038218215107917786,0.9999948143959045,0.9520095903251964,1.1164852502052607,-0.006017077714204788,0.999977707862854,1.0605051582009175,1.1212599939746333,0.005835072137415409,0.9999831318855286,0.9446736125722958,1.3466245410520856,0.16418597102165222,0.9670160412788391,1.0465084739045858,1.3806465386551083,0.11672846227884293,0.8878769278526306,0.9455852105818587,1.6024652171593796,0.26191893219947815,0.9628883004188538,1.0335307979068162,1.6507906647772606,0.22038798034191132,0.880944013595581,0.8308443203849566,1.1082676985786986,-0.09668167680501938,0.8088927865028381,1.15184727875912,1.1074304057746864,-0.07456965744495392,0.9765363335609436,0.0015454292297363281,1.006257374263057,1.118872622089947,177.9700911390976,179.66163874618633,1.0,0.0007188501137340309,-0.01797078936810014,-0.02777269415243011,-0.11938757537293458,97.91867916035295,1.0166546785223598,108,3.6
