nose_x,nose_y,nose_z,nose_visibility,left_shoulder_x,left_shoulder_y,left_shoulder_z,left_shoulder_visibility,right_shoulder_x,right_shoulder_y,right_shoulder_z,right_shoulder_visibility,left_hip_x,left_hip_y,left_hip_z,left_hip_visibility,right_hip_x,right_hip_y,right_hip_z,right_hip_visibility,left_knee_x,left_knee_y,left_knee_z,left_knee_visibility,right_knee_x,right_knee_y,right_knee_z,right_knee_visibility,left_ankle_x,left_ankle_y,left_ankle_z,left_ankle_visibility,right_ankle_x,right_ankle_y,right_ankle_z,right_ankle_visibility,left_wrist_x,left_wrist_y,left_wrist_z,left_wrist_visibility,right_wrist_x,right_wrist_y,right_wrist_z,right_wrist_visibility,trunk_lateral_inclination,center_mass_x,center_mass_y,left_knee_angle,right_knee_angle,person_height,center_mass_velocity_x,center_mass_velocity_y,center_mass_acceleration_x,center_mass_acceleration_y,body_orientation,torso_leg_ratio,frame,timestamp
0.9711016570639036,0.5891192058155635,-0.5942159295082092,0.9999969601631165,1.0409880886940956,0.7242124939755703,-0.3150102496147156,0.9999678730964661,0.8785123625235364,0.7252762899323867,-0.31489717960357666,0.9999960064888,1.0243662121750496,1.0709421768040497,0.001445182366296649,0.9999696612358093,0.9187220555167042,1.0757614904943542,-0.0015883424784988165,0.9999915361404419,1.0314966756304467,1.3507854372607373,0.0011214932892471552,0.5057597160339355,0.9247163234742487,1.3591985054526516,0.0008585372706875205,0.9860143065452576,1.0295198633805134,1.5891192058155637,0.22574305534362793,0.7363296747207642,0.9279987426977242,1.5967442173669995,0.2035166472196579,0.9838871359825134,1.0999101590127394,1.080977362750971,-0.39249080419540405,0.2547289729118347,0.8426580856054704,1.1043590216757555,-0.38898879289627075,0.9784242510795593,0.0005513131618499756,0.9715441338458769,1.073351833649202,178.0651900515992,179.5801264902821,1.0,-0.5040051913885976,-0.16528429641148604,-3.0133957075740265,-1.0022047458056738,95.35653047696552,0.9318766383469416,0,0.0
0.9764231589291245,0.6071694408779111,-0.6100023984909058,0.999997079372406,1.0637651290625396,0.7434297883998218,-0.31850895285606384,0.9999707937240601,0.8901035874178909,0.7438631360903086,-0.3159829378128052,0.9999961256980896,1.032736006705128,1.0810662693708202,-0.005907940678298473,0.9999719858169556,0.9215162043423358,1.084155290607139,0.005741075612604618,0.9999918341636658,1.0420812438564948,1.3661939533427425,-0.020464710891246796,0.5535274147987366,0.9339298661344163,1.370429596418486,0.0237051323056221,0.9846228361129761,1.0462937157621826,1.6071694408779111,0.19497746229171753,0.7614099383354187,0.9411697450287747,1.615280052554086,0.22436602413654327,0.9844061136245728,1.113949553437136,1.1007078148808414,-0.3348180651664734,0.3271349370479584,0.8448608246490694,1.1212772604280943,-0.3782862424850464,0.9802777767181396,0.00022071599960327148,0.9771261055237319,1.0826107799889797,179.12424782681663,179.21070982293818,1.0,-0.08827991899399401,-0.07366782741625129,3.2765140690397905,0.7293996952314363,96.84171413585867,0.8989654319181763,1,0.03333333333333333
0.9817082277009321,0.6128672474291067,-0.5724949240684509,0.9999969005584717,1.0765764091273464,0.7472215877683231,-0.2885410487651825,0.9999734163284302,0.8971082432420252,0.7482599189494881,-0.3013061285018921,0.9999961256980896,1.0389026315170893,1.0788225035734793,0.0017245563212782145,0.9999737739562988,0.929307290828699,1.0819033868330652,-0.0018965660128742456,0.9999918341636658,1.0482890275700052,1.3656447465184682,-0.02283642254769802,0.5965479612350464,0.938261034161361,1.3690816963686334,-0.003001072444021702,0.9839577674865723,1.0533668057922443,1.6128672474291068,0.1860600709915161,0.7835959792137146,0.9437868412421964,1.6216559181961163,0.16933371126651764,0.9848868250846863,1.1218272649331613,1.1111199348805814,-0.30229896306991577,0.39327988028526306,0.8506300063395642,1.1273342789560226,-0.36103394627571106,0.9818647503852844,0.0005252659320831299,0.9841049611728941,1.0803629452032724,179.3022869659883,179.46750560095575,1.0,0.0024262630126391832,-0.07543065638229916,0.7147162511534284,-0.009862973962604714,98.09192736336202,0.8704257190566178,2,0.06666666666666667
0.9828535454316302,0.614851297428702,-0.5820227861404419,0.9999968409538269,1.0804170614636193,0.750394088399444,-0.2958986163139343,0.9999758005142212,0.8982750332857599,0.7504439823497051,-0.30584338307380676,0.9999961256980896,1.042586110315465,1.0794510673496882,0.001111550023779273,0.9999752044677734,0.9310423094203144,1.082493358347621,-0.0012876088730990887,0.9999916553497314,1.050564654854023,1.3636458271150416,-0.024793021380901337,0.6347001194953918,0.9393027990624189,1.3700673261288832,-0.005767430178821087,0.9823921322822571,1.0555032702384477,1.614851297428702,0.16216489672660828,0.8034574389457703,0.9456820801183473,1.6238879479893653,0.15777400135993958,0.9850624799728394,1.1240905056182064,1.1143222739406968,-0.31106048822402954,0.45288586616516113,0.8526370665049748,1.1252609173129704,-0.37129274010658264,0.9832471609115601,2.518296241760254e-05,0.9868142098678897,1.0809722128486547,179.51815915479062,179.7943590281786,1.0,0.0036095867472823095,-0.013969156674567766,0.008930478525445082,0.46731268233635576,98.12069562760219,0.8655009296564701,3,0.1
0.9866323805357445,0.6184062699042875,-0.5638595819473267,0.9999969601631165,1.0843041068371015,0.7548708208961639,-0.28954261541366577,0.9999780058860779,0.9018784164241475,0.7541313928236828,-0.2940228581428528,0.9999961256980896,1.0474645364688782,1.0867883101128377,-0.0011023881379514933,0.9999768137931824,0.9347417084795636,1.0885488531425545,0.0009336002985946834,0.9999917149543762,1.054036282005798,1.368713846255986,-0.02319503203034401,0.670170247554779,0.9399154524402934,1.3763163097121216,0.004816955886781216,0.9824278950691223,1.0595400833264423,1.6184062699042876,0.18353381752967834,0.8218342661857605,0.950164006142339,1.6259168531686365,0.19009487330913544,0.9855997562408447,1.1282520030622778,1.1186663501245866,-0.3415079712867737,0.5069751739501953,0.8562665995644879,1.1292696799220145,-0.372695654630661,0.9846080541610718,0.00037175416946411133,0.9911031224742209,1.087668581627696,179.92739240923325,178.67877070804923,1.0,0.00318314122452764,0.01860202800968498,-0.0033327861149170753,0.24679228548702972,97.2281373472178,0.877704100451992,4,0.13333333333333333
0.9869250468732284,0.6199648509317834,-0.5726185441017151,0.9999970197677612,1.083697185045779,0.7555786595095383,-0.29959017038345337,0.9999799728393555,0.9011277017415865,0.7549483684714363,-0.297345906496048,0.9999961256980896,1.0482549609636234,1.0893100589150826,-0.0029106480069458485,0.9999779462814331,0.9351288626293307,1.0910528723140245,0.002744800178334117,0.9999915361404419,1.0529177158428222,1.3684518175574758,-0.03547322750091553,0.7017318606376648,0.9398095767133956,1.3758158028081677,0.012166175991296768,0.9814029932022095,1.0590508732115107,1.6199648509317834,0.1649455726146698,0.8380247354507446,0.9494535511838228,1.6267625581518164,0.1964849978685379,0.9856375455856323,1.1282494084279406,1.1184871877076532,-0.37591663002967834,0.5554801225662231,0.8558179911046814,1.1298222317293392,-0.38848060369491577,0.9857927560806274,0.00031691789627075195,0.9916919117964771,1.0901814656145536,179.56009024265475,178.74088468472198,1.0,0.005196619776459852,0.019698628480495323,0.015098459961930558,0.008236384560488178,96.94470631442678,0.8817034115540846,5,0.16666666666666666
0.9888420549153252,0.6214848125300572,-0.5664976239204407,0.999997079372406,1.084738411853788,0.7561986804397459,-0.2970670759677887,0.999981701374054,0.9006027204986893,0.756413988600886,-0.29333004355430603,0.9999961256980896,1.0495491103087176,1.0911543578015934,-0.004185688216239214,0.9999790191650391,0.9354220241624394,1.0931112302127055,0.004019107669591904,0.9999914169311523,1.0516458440542562,1.3686252473078175,-0.03639740124344826,0.7303022146224976,0.9415925306692536,1.3802065724625252,0.015842843800783157,0.9806813597679138,1.059363129135785,1.6214848125300572,0.1637670397758484,0.8528621196746826,0.9498431038160198,1.629313488445366,0.20615041255950928,0.9857776761054993,1.1291262949036143,1.1188947087337293,-0.368351548910141,0.5991054177284241,0.857944598303775,1.1312675138064134,-0.38052934408187866,0.9867877960205078,0.00010818243026733398,0.9924855672355785,1.0921327940071495,178.68482539868367,179.3342841427727,1.0,0.0006997335486404023,0.009453923072726009,-0.036229506665407134,-0.0825823402422332,96.97962196055168,0.8823711783992785,6,0.2
0.9917856436097915,0.6245686824963682,-0.5736872553825378,0.9999971985816956,1.0877038875037466,0.7592001166299304,-0.3005048930644989,0.9999832510948181,0.9041124481929766,0.7582750714051997,-0.29544222354888916,0.9999961853027344,1.053264035042274,1.0941512481062061,-0.004559209104627371,0.9999799728393555,0.9393822955789536,1.095862867279743,0.00439761346206069,0.9999913573265076,1.0536593443634905,1.3708562336847914,-0.022423438727855682,0.756039023399353,0.9443331790203408,1.3842695084049625,0.015007629990577698,0.9806236028671265,1.0622969065647816,1.6245686824963683,0.16979056596755981,0.8663486838340759,0.9531121865369875,1.6351427012522075,0.1914200633764267,0.9862420558929443,1.1323775286101105,1.1217562821081015,-0.34641873836517334,0.6381765007972717,0.8620607797300893,1.1348263526778934,-0.3751398026943207,0.9876724481582642,0.0004634857177734375,0.9963231653106137,1.0950070576929745,178.13199039072188,178.9792821343575,1.0,0.007452913350957151,-0.001471853863064322,0.04842284349326393,-0.07855602962875584,96.73163137851091,0.8794114659269139,7,0.23333333333333334
0.992351533768188,0.6235533883035326,-0.5816008448600769,0.9999973773956299,1.086943084627947,0.7591865263349119,-0.30944448709487915,0.9999847412109375,0.9027498989884098,0.7586905188562795,-0.29934805631637573,0.9999963045120239,1.0531251710895884,1.0935186315186953,-0.0061175404116511345,0.9999811053276062,0.9393318177681363,1.0956717224674088,0.00596210639923811,0.9999914765357971,1.0529727546016672,1.36797935267814,-0.03068666160106659,0.7795432209968567,0.9429788161887472,1.3834209738046348,0.021248089149594307,0.9807162284851074,1.0615374436604401,1.6235533883035325,0.16729643940925598,0.8788041472434998,0.9529443815947699,1.634013177843945,0.20351020991802216,0.9868294596672058,1.1318100046444228,1.1206698098307089,-0.37717533111572266,0.673764169216156,0.8626286957803162,1.1342686419066756,-0.38269907236099243,0.9885660409927368,0.0002486705780029297,0.9962284944288623,1.0945951769930522,178.04882822662734,178.44879878039595,1.0,0.003878063071468174,0.0019122581070871616,-0.027255105104960403,0.02582667509519607,96.85982853787807,0.8816293636199112,8,0.26666666666666666
0.9900048916658709,0.6212302447794817,-0.5666190385818481,0.9999974966049194,1.083713159067218,0.7575159204371998,-0.3025345504283905,0.9999860525131226,0.9005513007605168,0.75709627916292,-0.2904251515865326,0.9999963045120239,1.0502964368484633,1.0906381884346983,-0.0082200076431036,0.9999818205833435,0.9362411984243537,1.0928343111034295,0.008056116290390491,0.9999912977218628,1.049956337747924,1.363230877442047,-0.04292193800210953,0.8003284335136414,0.9406400228834891,1.37738120491931,0.0138218579813838,0.9799363613128662,1.0584673503381699,1.6212302447794817,0.13601209223270416,0.8896360397338867,0.9510253738941519,1.6293806503764057,0.1873755156993866,0.9869074821472168,1.1285505252539585,1.1173693376063247,-0.36798256635665894,0.7057026624679565,0.8600959259648474,1.1314614606017597,-0.3814774751663208,0.9892219305038452,0.0002110004425048828,0.9932688176364085,1.091736249769064,178.03909846008304,178.52574090391613,1.0,-0.0004213835079026998,0.002662163369837191,-0.03410069100755792,0.006007872631550245,96.8314758802084,0.8816227663590949,9,0.3
0.9898240878600719,0.620609414122279,-0.5681136250495911,0.9999975562095642,1.082975778583598,0.7573949148510292,-0.30852606892585754,0.9999872446060181,0.8999684290176119,0.7569512273626551,-0.2907535135746002,0.9999963641166687,1.0495672714504571,1.0901037969332619,-0.008772998116910458,0.9999825954437256,0.9354083520912504,1.0923982747829102,0.008609862998127937,0.999991238117218,1.0489863085218734,1.361589372441002,-0.036359816789627075,0.8189975619316101,0.9402329501445568,1.376880482541531,0.01903071440756321,0.9792414307594299,1.0575756766397058,1.620609414122279,0.1472351849079132,0.8994610905647278,0.9502925512557653,1.6274010543440778,0.19382943212985992,0.9870444536209106,1.127649162824129,1.1164817643080183,-0.3804973065853119,0.734412431716919,0.8604582713753051,1.1306081059193134,-0.37830665707588196,0.9898824691772461,0.00022327899932861328,0.9924878117708538,1.091251035858086,177.97810027806227,178.67213426102253,1.0,0.0004369913346123226,0.003465613662898376,0.0068631677838914855,0.006444585585214394,96.88548857823416,0.8832193449041509,10,0.3333333333333333
0.9900311930183024,0.6197920485170816,-0.5697731375694275,0.999997615814209,1.082012933430732,0.7568111462894273,-0.31261521577835083,0.999988317489624,0.899679489739855,0.7562492991704249,-0.2920651137828827,0.9999964237213135,1.0488649593496657,1.0890277677923432,-0.009795313701033592,0.9999832510948181,0.9349374527171181,1.0914010762967086,0.00963425450026989,0.999991238117218,1.04789097266417,1.361019052800907,-0.031605105847120285,0.835803747177124,0.9394000395867006,1.3762792821019887,0.022375328466296196,0.9785903692245483,1.0566662021590432,1.6197920485170816,0.14811325073242188,0.9083074331283569,0.9489810270825696,1.6273984939893602,0.19088655710220337,0.9871982336044312,1.126768864261109,1.115564703692954,-0.3777366578578949,0.760158360004425,0.8601967559616003,1.1299264509871971,-0.3780919313430786,0.9905003309249878,0.000282973051071167,0.9919012060333919,1.0902144220445258,177.85261951004924,178.712504541012,1.0,0.0017397464453878186,-0.0010868599651009479,0.009981215547586205,-0.03484797205590677,96.89140839440749,0.8817821981228648,11,0.36666666666666664
0.9887228850671193,0.6167203891447215,-0.5656191110610962,0.9999975562095642,1.0799615078129834,0.7556543813499237,-0.2955295741558075,0.9999892115592957,0.8978387645467544,0.7542600492288101,-0.28379908204078674,0.9999964237213135,1.0467156467032237,1.086863200874045,-0.007065118756145239,0.9999836683273315,0.9327199767790414,1.0892540243442181,0.006892537232488394,0.9999909996986389,1.0458550163836238,1.3579362443925589,-0.06566344201564789,0.8508535623550415,0.9364421911024429,1.3739619414346262,0.016571201384067535,0.9770584106445312,1.0539948692829135,1.6167203891447215,0.12010978162288666,0.9156716465950012,0.9464683926193629,1.623753869175689,0.18632005155086517,0.9867168068885803,1.1243554129254203,1.1135102663938976,-0.36956459283828735,0.7832359671592712,0.8591821980838458,1.1282550554945956,-0.37813153862953186,0.9910239577293396,0.0007037818431854248,0.9897178117411326,1.0880586126091316,178.01649218566885,178.45051452864104,1.0,-0.00021773548128054142,0.0016832627591303396,-0.015394412882635527,0.021808891417162395,96.93348277106726,0.8855027932831935,12,0.4
0.9871156785493397,0.613695668453902,-0.55882328748703,0.9999975562095642,1.0781795428865493,0.7542071443103748,-0.2987135052680969,0.9999901056289673,0.8963371072499725,0.7524605640706473,-0.2826629877090454,0.9999964237213135,1.0444645284772476,1.0847557771987464,-0.008776377886533737,0.999984085559845,0.930245911168044,1.087181533986844,0.0086055314168334,0.9999907612800598,1.0437127029582742,1.3548275299886172,-0.05268105864524841,0.8639911413192749,0.9341409683453764,1.3715420960718707,0.016764122992753983,0.974862277507782,1.0517106888200658,1.613695668453902,0.11901017278432846,0.9222950339317322,0.9439047425283362,1.6202231165960592,0.18431976437568665,0.9860848784446716,1.1219746756176325,1.1112148504630237,-0.38908159732818604,0.8043339848518372,0.8572928518892533,1.1262962582598433,-0.37579992413520813,0.9914876222610474,0.0008834302425384521,0.9873552198226457,1.0859686555927952,178.0708539182156,178.53635972008215,1.0,-0.0022519090361380247,0.0015103759886779804,-0.015984060301726784,-0.001330462006818763,97.0405209362126,0.8892430360313538,13,0.43333333333333335
0.9873982435950704,0.6128710407181166,-0.5640742182731628,0.999997615814209,1.0787551739895769,0.7541963432858861,-0.30707645416259766,0.9999909400939941,0.8960581640918583,0.7522517739982028,-0.2873556315898895,0.9999964833259583,1.044471269701697,1.0846049078751168,-0.007727727293968201,0.9999847412109375,0.9308000473239018,1.0871985310736327,0.007560585625469685,0.9999908804893494,1.0438191519924471,1.3551794337110683,-0.039620593190193176,0.8760620355606079,0.9346642041583286,1.3710449602990644,0.016098549589514732,0.9739593267440796,1.0514034671356949,1.6128710407181166,0.14034001529216766,0.9286491870880127,0.9442736311361106,1.619641210351208,0.1857948750257492,0.9860823750495911,1.121924682879188,1.1111808845374571,-0.3921506106853485,0.8232119679450989,0.8569057662807302,1.1263651873312406,-0.38144683837890625,0.9919682145118713,0.000983595848083496,0.9876356585127992,1.0859017194743747,178.17608198674057,178.56629845114355,1.0,0.0022134066320864776,-0.000315522669277538,0.03271174403198123,-0.013375964910153885,97.23101841504635,0.8917460875810506,14,0.4666666666666667
0.9863251454175052,0.6102196126549099,-0.5687209963798523,0.9999976754188538,1.0776922643869928,0.7529695149000624,-0.3070533275604248,0.9999916553497314,0.8952078035399049,0.7510144767767013,-0.2906618118286133,0.9999966025352478,1.0428557133744927,1.0829901741598127,-0.006767453160136938,0.9999854564666748,0.9298191080887128,1.0855247704342044,0.0066058398224413395,0.9999911189079285,1.0422652135044108,1.35310074493694,-0.03461635112762451,0.8873128890991211,0.9336323560044771,1.3690980088012599,0.020811282098293304,0.9740824699401855,1.0496871109549726,1.61021961265491,0.17809927463531494,0.9345636963844299,0.9430484699917766,1.6159689565782585,0.217352956533432,0.9863364100456238,1.1200011859411616,1.1093271272216616,-0.3860781788825989,0.8401773571968079,0.8554350077477372,1.12470977237283,-0.3894835412502289,0.9924283623695374,0.000990450382232666,0.9863374107316027,1.0842574722970086,178.2213240248128,178.58610966896944,1.0,0.0020093551214500137,0.0005109779476468849,-0.0015709326744829946,0.006469639718685119,97.31026914839347,0.8962137985442141,15,0.5
0.9865255187662924,0.6098666685330904,-0.56647789478302,0.9999977350234985,1.0783493889883629,0.7531319011236949,-0.30247849225997925,0.999992311000824,0.8956144120768279,0.7507892060874664,-0.29132163524627686,0.9999966621398926,1.0429656421784623,1.0829503194672365,-0.005931184161454439,0.9999860525131226,0.9299375910653513,1.0853487131351667,0.005769385956227779,0.999991238117218,1.0426600349025152,1.354677417580876,-0.031581342220306396,0.897513747215271,0.9340387042557342,1.3689741447186905,0.020502036437392235,0.9743701815605164,1.0495203183256203,1.6098666685330905,0.18298108875751495,0.9398536086082458,0.9429044324994634,1.6149408315258726,0.2170744687318802,0.9865558743476868,1.1198323418251495,1.1091279705765362,-0.3815248906612396,0.8554733991622925,0.8551139195821156,1.124602309122936,-0.3892539441585541,0.9928109645843506,0.001187056303024292,0.9864516166219068,1.0841495163012016,178.39564189007874,178.76411704570455,1.0,0.0022922589603902505,0.0006836074946442273,0.0022275668971251275,0.001358263281774423,97.3390167939694,0.8976740919611639,16,0.5333333333333333
0.9880760132508376,0.6107601796308426,-0.5650962591171265,0.9999977946281433,1.0812152177293568,0.7544172011139751,-0.30192750692367554,0.999992847442627,0.8973953645629626,0.7517742786728429,-0.29141855239868164,0.9999967217445374,1.0446831720959602,1.0845947232261925,-0.006183477118611336,0.9999863505363464,0.9316749562939123,1.0870146974973258,0.0060183326713740826,0.9999911189079285,1.0442721463812301,1.3563165310325003,-0.03473905846476555,0.906143844127655,0.9358904732509319,1.3704950921951058,0.019167663529515266,0.9732843041419983,1.0510527159033614,1.6107601796308426,0.1626296192407608,0.9441604018211365,0.9442148925843374,1.6169075410083265,0.20738860964775085,0.986199140548706,1.1219249056372607,1.1108778679911222,-0.3741333782672882,0.8691416382789612,0.8561929523638986,1.1260649677446717,-0.3868495523929596,0.9931183457374573,0.001337200403213501,0.9881790641949362,1.0858047103617592,178.386838800723,178.9171017925381,1.0,0.0021840915350222895,0.00039308788694839426,-0.000920314339005918,-0.002404867695708725,97.54048598734643,0.8995083501962835,17,0.5666666666666667
0.9888600105761928,0.6106761824915121,-0.5648570656776428,0.9999977946281433,1.0822497487005642,0.7543426533332972,-0.2995334267616272,0.9999933242797852,0.8976405241824095,0.7516752804876311,-0.28633934259414673,0.9999967813491821,1.0448762539497274,1.0850206688116697,-0.006388147361576557,0.9999867081642151,0.9319586677955164,1.0870149255313748,0.006220513489097357,0.9999911189079285,1.0442819468346638,1.3563828289654805,-0.03379344567656517,0.914262592792511,0.9361694132215604,1.3702942097052413,0.018499081954360008,0.9734315872192383,1.0510201761670006,1.6106761824915121,0.1625819057226181,0.9484336972236633,0.9443463487573209,1.6169457986021,0.20522332191467285,0.9863450527191162,1.1222228806001076,1.1108342128175495,-0.365234911441803,0.8814252614974976,0.8559742354612984,1.1257162755450456,-0.3723697066307068,0.9934114813804626,0.00134962797164917,0.988417460872622,1.0860177971715221,178.3566570956462,178.9528375429783,1.0,0.0020550898230052403,0.0018994339559145843,-0.0009463011492347409,0.011057902476065954,97.46005720952618,0.900479227509456,18,0.6
0.9899196279379197,0.6106164763551787,-0.5630961656570435,0.9999977946281433,1.083430921417622,0.7542381615700597,-0.29806891083717346,0.9999938011169434,0.8982113287928077,0.7515001591327723,-0.2852962613105774,0.9999967813491821,1.0460304795208726,1.0856817490611637,-0.006135048344731331,0.9999869465827942,0.9321338774237122,1.086940323207966,0.005966280587017536,0.9999910593032837,1.0442153529319889,1.356971558462271,-0.03260929137468338,0.9215500950813293,0.9361828111634644,1.3692882701360674,0.017931580543518066,0.9733926653862,1.0509215448340978,1.6106164763551787,0.1628021001815796,0.9521979689598083,0.9442091219004152,1.6166696467252455,0.20521649718284607,0.9863438010215759,1.1227418988933264,1.110559819905519,-0.36456578969955444,0.8926405906677246,0.8560152894673422,1.1256428033469945,-0.37368088960647583,0.9936166405677795,0.001385509967803955,0.9890821784722924,1.086311036134565,178.1021482087033,178.96326342233792,1.0,0.0057440129074041715,0.0030428648566515506,0.027583874435202844,0.008550978130267096,97.07118340569534,0.9019592046709544,19,0.6333333333333333
0.9911889704569007,0.6105631769433547,-0.55706387758255,0.9999978542327881,1.084115925133368,0.7527072139586656,-0.2990458011627197,0.9999942183494568,0.8987913830619784,0.7513590911631234,-0.2777051329612732,0.9999967813491821,1.0478142502091645,1.0865925089200066,-0.009968226775527,0.9999870657920837,0.9329297131104942,1.0875866994247394,0.009794877842068672,0.9999908208847046,1.0442340572495197,1.356947899930091,-0.04124829173088074,0.9278640747070312,0.9363324688002208,1.3686174185686306,0.01804322935640812,0.9724758863449097,1.0510606514509546,1.6105631769433548,0.1378726363182068,0.9554755091667175,0.9442570775710634,1.6167505729610216,0.20401518046855927,0.9860019087791443,1.1244242784831133,1.110481584066663,-0.3904237151145935,0.9027197957038879,0.8564594321453791,1.1255861893146724,-0.3714883327484131,0.99373459815979,0.0006822347640991211,0.9903719816598294,1.087089604172373,177.69943713483724,178.86448169169321,1.0,0.010739699920246641,0.006737957909670746,0.0396026224453537,0.029291713812006574,96.70092431433963,0.9048790998806241,20,0.6666666666666666
0.992927926848363,0.6104647297582891,-0.5388161540031433,0.9999978542327881,1.0849185223848878,0.7524275049052979,-0.28571373224258423,0.9999945759773254,0.8994779753728459,0.7509226894664509,-0.2753668427467346,0.9999967217445374,1.0493166677550645,1.0871894952753034,-0.009582534432411194,0.999987006187439,0.9340195401653819,1.0885784832061007,0.009417405351996422,0.9999905228614807,1.0441816286030703,1.356857368287135,-0.03828033059835434,0.9332948923110962,0.9365335329468608,1.3677585799064653,0.010505212470889091,0.9716545343399048,1.0511565997919345,1.610464729758289,0.14495542645454407,0.957850992679596,0.9440278141476677,1.6166210766375917,0.20237593352794647,0.9853615760803223,1.126509489464496,1.110509276535025,-0.3816733956336975,0.9116445183753967,0.8567507563383173,1.1252292039128853,-0.37257835268974304,0.9939119219779968,0.0007615983486175537,0.9916681039602232,1.0878839892407022,177.3336901390362,178.79103752640248,1.0,0.011050862113444455,0.007111701147719601,0.0024928402162717068,0.0029898541167877623,96.7607845232958,0.9081721988175534,21,0.7
0.9957948484243635,0.6102359112408023,-0.5316590666770935,0.9999978542327881,1.0870763127262064,0.7516163220173423,-0.27371522784233093,0.9999948143959045,0.9016636314445479,0.7505692734249376,-0.2697758972644806,0.9999967217445374,1.0519857300401025,1.0873433887209851,-0.009179117158055305,0.9999868273735046,0.936686385306581,1.0887453021768225,0.009024030528962612,0.9999902844429016,1.044614997824414,1.3563108185208017,-0.05110689997673035,0.9379611015319824,0.9374618830859525,1.367155422802614,0.005513522773981094,0.9699641466140747,1.0512907201101276,1.6102359112408022,0.13620005548000336,0.9595044851303101,0.9437343418160579,1.6165246795058623,0.20029418170452118,0.984223484992981,1.1282792616314363,1.1106899286560885,-0.36314207315444946,0.9192149639129639,0.8569580185504768,1.1251313447476525,-0.3740805983543396,0.9940935373306274,0.0005299746990203857,0.9943360576733418,1.0880443454489037,176.92430395486502,178.71872030097018,1.0,0.020676426150225823,0.002047066543883143,0.07180745232747307,-0.03777245502363379,96.66357475908671,0.9095134836756502,22,0.7333333333333333
1.0013562356100174,0.6103220411840563,-0.5201728343963623,0.9999977350234985,1.0902968384729983,0.7515232330131961,-0.2596890926361084,0.9999949932098389,0.9044508694346467,0.7494156857433917,-0.2654925286769867,0.9999966621398926,1.0550268220441283,1.0895789145168793,-0.005252382718026638,0.9999866485595703,0.9394964168575517,1.0906317754367783,0.005080635659396648,0.9999899864196777,1.0454055104432263,1.356993340124718,-0.03539206460118294,0.9419752955436707,0.9386689082162015,1.3680912479463911,0.006688670255243778,0.9687777161598206,1.0514863122191929,1.6103220411840564,0.1770797073841095,0.9606128931045532,0.9438153253681775,1.6167106928978996,0.21464650332927704,0.9830614924430847,1.1309872043245026,1.1114315493189968,-0.3614252209663391,0.9259824752807617,0.8590778634225046,1.1252803212756812,-0.37488073110580444,0.9942119121551514,0.001066654920578003,0.99726161945084,1.0901053449768288,176.56440111093525,178.64326673842268,1.0,0.02139415430508117,0.014790553141669759,0.005410622785345441,0.09633217451650543,96.47837063587454,0.9166769741923319,23,0.7666666666666667
1.0137190520790995,0.6109285407131202,-0.5230512022972107,0.9999977350234985,1.0945305458850974,0.7517648340902798,-0.2576148211956024,0.9999951720237732,0.9068898628071229,0.7490894846283893,-0.26982027292251587,0.9999966025352478,1.0581149969663233,1.090537166958253,-0.004142305813729763,0.9999863505363464,0.9424523889468135,1.0913367616826009,0.003955369349569082,0.9999895095825195,1.0464818185566767,1.3565935638927669,-0.07977256178855896,0.9462788105010986,0.9407163011527971,1.36877928381666,0.00047619460383430123,0.9667684435844421,1.051872691607613,1.6109285407131202,0.1179715171456337,0.9617342352867126,0.9441939550308964,1.6172930178309506,0.21357187628746033,0.9815953373908997,1.1352766536483645,1.1119008488404285,-0.36810845136642456,0.9320030808448792,0.8618263912205983,1.1269705055931574,-0.38531750440597534,0.9943767189979553,0.001353532075881958,1.0002836929565684,1.090936964320427,176.28210933943757,178.83974425516948,1.0,0.020309101923031335,0.0033123821155050443,-0.008350768501616075,-0.08774786972411867,96.53140810215311,0.9178405789560379,24,0.8
1.019188660249011,0.6110421840250441,-0.5088596940040588,0.9999975562095642,1.097846918760812,0.7522216287989462,-0.24463000893592834,0.9999952912330627,0.9100610865768146,0.7495170372176204,-0.26466745138168335,0.9999964833259583,1.0617276979354626,1.0914783821585252,-0.0010716188699007034,0.9999859929084778,0.9468578551896182,1.0927712341089404,0.0008749447879381478,0.9999890327453613,1.0497242271460832,1.3574709708054413,-0.06762759387493134,0.9495839476585388,0.9441547961217742,1.3696091848955707,0.0007546107517555356,0.9643468260765076,1.0528257986620333,1.6110421840250442,0.13228075206279755,0.9621334075927734,0.9448847440817424,1.6179993236900119,0.213792085647583,0.9800186157226562,1.1410982215593644,1.1116378896982853,-0.3769044280052185,0.9375011920928955,0.8663867511144467,1.1279405323468505,-0.3873407244682312,0.9945728182792664,0.0013674795627593994,1.0042927765625405,1.0921248081337327,176.71537953668022,179.2722035174036,1.0,0.02523634257625808,0.003813548329105105,0.03659083024801238,0.003716028045844223,96.72197781137001,0.9213036433320243,25,0.8333333333333334
1.0268305304711993,0.6113403285899012,-0.49056053161621094,0.9999975562095642,1.1011389684399897,0.7523709594941608,-0.22704260051250458,0.9999954700469971,0.9135593002511062,0.749527871471151,-0.25394243001937866,0.9999964833259583,1.0646482113353057,1.0932797690346177,0.0017139458796009421,0.9999859929084778,0.9502213760178162,1.0947391021935273,-0.0018990663811564445,0.9999889135360718,1.0529720132748972,1.3595880853235323,-0.03659321367740631,0.9528778791427612,0.9483322723681392,1.373341330562365,0.0013817248400300741,0.9643246531486511,1.0536417242179856,1.6113403285899013,0.17906039953231812,0.9636676907539368,0.9453817122457235,1.6183077984420025,0.22506305575370789,0.9796867370605469,1.1445721991432651,1.1099545103558182,-0.38195422291755676,0.9428644776344299,0.8718004648124085,1.1280890564633532,-0.38308843970298767,0.9948036074638367,0.0014372467994689941,1.007434793676561,1.0940094356140724,177.33707600752203,179.69841652963467,1.0,0.023694278525741363,0.01350737789007375,-0.01237452525005782,0.07755579970683862,96.84033421858469,0.9273950929800575,26,0.8666666666666667
1.0361422784345964,0.6113457474670091,-0.4767185151576996,0.9999971389770508,1.10436426373112,0.7526865340360929,-0.20429196953773499,0.9999954700469971,0.9179025335361711,0.7480041892026926,-0.255977600812912,0.9999963045120239,1.067613766830723,1.0969963133719338,0.009468061849474907,0.9999854564666748,0.9542493200504284,1.0987094885794706,-0.009653502143919468,0.999988317489624,1.0563470164310953,1.3629603384611666,-0.015754207968711853,0.9550008773803711,0.9517527769090393,1.3768596956077925,0.00016196715296246111,0.9628222584724426,1.0537592139909702,1.6113457474670092,0.21194446086883545,0.9642078280448914,0.9460077446602552,1.617475801989724,0.2348567694425583,0.9783084392547607,1.1482124702766165,1.1090984282826009,-0.36969706416130066,0.9472726583480835,0.8771552566505656,1.1279691769949929,-0.3958837389945984,0.9950495958328247,0.0023670494556427,1.0109315434405757,1.0978529009757023,178.17120456295288,179.14649197777084,1.0,0.026442037155920983,0.02906319285501115,0.020739637123478476,0.1174067067748592,96.95829061790539,0.9428695195657635,27,0.9
1.041520701643573,0.6112389486993545,-0.45520085096359253,0.9999962449073792,1.1064960690604724,0.7532659296313462,-0.1837795227766037,0.9999954104423523,0.9213723090521685,0.7467702319119047,-0.25173380970954895,0.9999959468841553,1.069685445264715,1.0986362530110305,0.014007000252604485,0.9999845027923584,0.9569687066197786,1.1004825841940635,-0.014207643456757069,0.9999870657920837,1.0591431323394007,1.3638031027252482,-0.07660733163356781,0.9582909345626831,0.9544923334875872,1.3815543828645094,-0.017461981624364853,0.9623813629150391,1.0536745167571178,1.6112389486993544,0.1520860493183136,0.9648690223693848,0.9458522297290088,1.6161268576408752,0.2342514544725418,0.9770841598510742,1.1529590840537496,1.1081326809755565,-0.32933375239372253,0.9514419436454773,0.8824054906131177,1.1279694830761915,-0.3889833688735962,0.9952430129051208,0.0032843053340911865,1.013327075942247,1.099559418602547,178.98937088572703,178.395344147265,1.0,0.019563455842613618,0.014425437902453885,-0.052382997893286834,-0.1115072574468125,97.02222805079725,0.9510588113734382,28,0.9333333333333333
1.049796673492856,0.6116203420248107,-0.44294244050979614,0.9999954104423523,1.108709508252005,0.7547587835724563,-0.16141998767852783,0.9999954104423523,0.9248344278131206,0.7465421228554913,-0.24532195925712585,0.9999957084655762,1.0742803980866231,1.100501219369477,0.019179832190275192,0.9999837279319763,0.9619098040961264,1.1030370598117458,-0.019379129633307457,0.9999861717224121,1.0626357659506291,1.3682884934146973,-0.06782980263233185,0.9613097906112671,0.9580934856810679,1.385357013047386,-0.024221453815698624,0.9630441665649414,1.0539396703206974,1.6116203420248107,0.1821068972349167,0.9662961363792419,0.9459957722236093,1.6143138323634485,0.22888913750648499,0.976728081703186,1.1579136091538345,1.1086095178914062,-0.3030696213245392,0.9552893042564392,0.8875269984291019,1.1283936955370164,-0.3776709735393524,0.9955356121063232,0.00415349006652832,1.0180951010913748,1.1017691395906113,179.55682494457906,177.74985541382839,1.0,0.03422150949066196,0.014766241330157769,0.11057918007383732,0.00254674075561962,96.97953984211082,0.9602200036259735,29,0.9666666666666667
1.0582760474279578,0.6124269257056649,-0.46453720331192017,0.9999950528144836,1.1102104314349632,0.7574547179301419,-0.17354480922222137,0.9999955892562866,0.9273796928153002,0.7482421380414688,-0.268371045589447,0.999995768070221,1.0776150211379933,1.1019413945147452,0.02464005909860134,0.9999836683273315,0.9652445747016641,1.1043116952552046,-0.02480587735772133,0.9999860525131226,1.065237832581053,1.3718750226728138,-0.009112739935517311,0.9637773633003235,0.9645708345300155,1.3874116291139986,-0.023915089666843414,0.9639923572540283,1.0553235530704284,1.612426925705665,0.25246742367744446,0.9675978422164917,0.9459017668897937,1.613331537793951,0.24371972680091858,0.9766959547996521,1.1607080300190118,1.1110371817629117,-0.3058146834373474,0.9589067101478577,0.8930489090417146,1.1296065037692464,-0.4024021029472351,0.9958600401878357,0.004654586315155029,1.0214297979198288,1.103126544884975,179.73476589081716,175.41240795473286,1.0,0.02050858985397238,0.005841418792898301,-0.09972832575359003,-0.06487912461106213,96.61364424982752,0.9645252370659964,30,1.0
1.066394351926878,0.613944031131175,-0.4642640948295593,0.9999945759773254,1.1147286007936648,0.7616766316116866,-0.16366267204284668,0.9999957084655762,0.9335604976675348,0.7506248419661836,-0.27843981981277466,0.9999958276748657,1.0825274262085263,1.105848823778677,0.03203804790973663,0.9999831318855286,0.9704178448131445,1.1077115295022395,-0.03219900280237198,0.9999855756759644,1.070717192593937,1.3759897954165887,0.0039039209950715303,0.965209424495697,0.9734236901633598,1.3917098292906362,-0.030257727950811386,0.9635621309280396,1.058242662186263,1.6175471873516376,0.2538371682167053,0.9681283235549927,0.9475058779851415,1.613944031131175,0.23547759652137756,0.9758121371269226,1.16508899630175,1.115668297308379,-0.29265639185905457,0.962068498134613,0.901229434300923,1.1333157741847733,-0.4103136658668518,0.9961634874343872,0.005566030740737915,1.0264726355108353,1.1067801766404584,179.54705939681423,172.74159686118074,1.0,0.013770816939387167,0.0009723221850175404,-0.05275529517308245,-0.03790126914300251,96.29698788068141,0.9704350024774838,31,1.0333333333333334
1.0701140678112981,0.61350866695908,-0.44971999526023865,0.999994695186615,1.1138136305814244,0.7635447946930237,-0.14486563205718994,0.9999958872795105,0.9353668776557877,0.7497627814243999,-0.29309338331222534,0.9999960064888,1.0817824829439533,1.1054018282437543,0.043221138417720795,0.9999830722808838,0.9712603654653764,1.107257696479121,-0.04337389022111893,0.9999856352806091,1.0723934719861439,1.3752284121631713,0.040127940475940704,0.9669721722602844,0.9813511092234711,1.3906744602800483,-0.0425640344619751,0.964874804019928,1.0572032017187514,1.6169500739265419,0.2666477560997009,0.9698094725608826,0.9451804893082315,1.61350866695908,0.19621610641479492,0.976601779460907,1.1655981158566,1.1153587086176253,-0.2605152428150177,0.9650071263313293,0.9046013098262999,1.1329049271249039,-0.4298754334449768,0.9964761137962341,0.006943613290786743,1.026521424204665,1.1063297623614377,178.39703414935533,168.74102677705343,1.0,0.0032453840766573485,-0.00032762110626174165,-0.08003759573011324,-0.009887080718374928,96.31485329933692,0.9709807356941373,32,1.0666666666666667
1.073417592799419,0.610593601660707,-0.4193788468837738,0.9999949932098389,1.1104113115316188,0.762747081868588,-0.11840667575597763,0.9999961256980896,0.9344537073612594,0.746035550969482,-0.301167756319046,0.9999962449073792,1.0780682472301248,1.10173464349436,0.05448833107948303,0.9999832510948181,0.9703010125846546,1.1035417960505831,-0.054628632962703705,0.999985933303833,1.0706546631030092,1.3709720620396333,0.05636121705174446,0.9686008095741272,0.9890842393918559,1.3863061390042306,-0.05985887721180916,0.9665994644165039,1.0539589989066132,1.612333866332644,0.2677098214626312,0.9712518453598022,0.941362034330708,1.610593601660707,0.16071456670761108,0.9774307012557983,1.1633599730749722,1.1121278646255284,-0.23019811511039734,0.9676328897476196,0.9055922931001137,1.1280313733669314,-0.4330167770385742,0.9967874884605408,0.008443683385848999,1.0241846299073898,1.1026382197724716,177.6202643210329,164.1877512471867,1.0,0.004410903356969181,-0.003918380462233706,0.008684949757721447,-0.0265524930805134,96.4108413826248,0.9705274748749744,33,1.1
1.0717011265418055,0.608567240509972,-0.4217577874660492,0.9999952912330627,1.107211221779318,0.7615898407044932,-0.12329970300197601,0.9999963641166687,0.9330943105570857,0.7436968410272834,-0.3034544289112091,0.9999964833259583,1.0752816442755866,1.0984032328667808,0.05482987314462662,0.9999833703041077,0.9693825259980802,1.1003066771325902,-0.0549701526761055,0.9999861717224121,1.0689336141162664,1.3672630293954364,0.0572531595826149,0.9698758125305176,0.9884706787753081,1.3823870459428593,-0.05941244959831238,0.9680215120315552,1.0511593885141175,1.608567240509972,0.26917004585266113,0.9723401665687561,0.9382595415320703,1.6085786531749358,0.15900707244873047,0.9780696630477905,1.1614283220811712,1.1095014024341567,-0.24454697966575623,0.9699879288673401,0.904806785052868,1.1245174104616136,-0.4341171383857727,0.9970614314079285,0.009064584970474243,1.0223320851368334,1.0993549549996855,177.13981384647286,163.61288902007138,1.0,0.006810890150089706,-0.0029498290730326842,0.019240619053328543,0.007644716392093436,96.44513040719704,0.9672448542645636,34,1.1333333333333333
1.0735035626764318,0.6082196381418266,-0.3861335515975952,0.9999955892562866,1.1041311989525917,0.761407813743882,-0.0936298817396164,0.9999966025352478,0.933741188150899,0.7417924339921885,-0.30250227451324463,0.9999967813491821,1.074827292021834,1.098124834394142,0.06539784371852875,0.9999840259552002,0.9716515708625444,1.0997228849724134,-0.06552816927433014,0.9999868273735046,1.0697931680249901,1.3673614785114545,0.08611197769641876,0.9710791707038879,0.9960990979572067,1.3828601576347204,-0.06850776076316833,0.970319390296936,1.0509286426598337,1.6082196381418266,0.2981971204280853,0.9734823703765869,0.9366310305896994,1.6154733879289835,0.13689282536506653,0.9793502688407898,1.1616828995942527,1.1093513014525085,-0.19815491139888763,0.9721001982688904,0.9092844268294871,1.1240233702398517,-0.42839446663856506,0.9973267316818237,0.009939074516296387,1.023239431442189,1.0989238596832778,176.59279291906535,160.72439858961175,1.0,0.00873702567037772,-0.0017166038259136826,0.015224396965013669,0.009736326194527732,95.86118411089329,0.9601025990494699,35,1.1666666666666667
1.0736844124749916,0.6091292236992545,-0.3357340097427368,0.9999958276748657,1.1000192322042672,0.7616395442367769,-0.042777977883815765,0.9999967217445374,0.9359810648709077,0.73994605331393,-0.29983705282211304,0.9999970197677612,1.0751336544036452,1.0990103065312047,0.07747116684913635,0.9999849200248718,0.9745206249501246,1.1006076152466888,-0.07757913321256638,0.999987781047821,1.0708259466681795,1.3702401765690548,0.1196562796831131,0.9693372845649719,1.0036370522892326,1.3838888034908923,-0.10368718206882477,0.9727177619934082,1.052270753655237,1.6091292236992545,0.33154815435409546,0.9727757573127747,0.9351408623607401,1.6292671306092654,0.04840914160013199,0.9808399677276611,1.162253891931961,1.1099833736770208,-0.17023584246635437,0.9722996354103088,0.9150293791340706,1.1239049472432625,-0.4539775848388672,0.9975724220275879,0.01098582148551941,1.0248271396768849,1.0998089608889468,176.46849344497838,158.53476573862585,1.0,0.007977648020151298,0.002075250804914956,-0.006051383316449208,0.03002869688820941,95.12822288934434,0.9476928014852591,36,1.2
1.0750916379121824,0.6088448007387631,-0.23508425056934357,0.9999955296516418,1.0857398329911074,0.7590529632214609,0.031118039041757584,0.9999967813491821,0.9395727813852973,0.7379673154043885,-0.24500305950641632,0.9999972581863403,1.0743711603283839,1.0998462734052992,0.08669060468673706,0.9999857544898987,0.9787665030756203,1.1038067232690079,-0.08676997572183609,0.9999886751174927,1.0702896306943455,1.3708098559874389,0.1519978940486908,0.9586646556854248,1.009557829975174,1.3854336800266447,-0.11932746320962906,0.9747735857963562,1.0529559260810943,1.608844800738763,0.34996843338012695,0.9668406248092651,0.9351581352985832,1.6491533035215091,-0.019962023943662643,0.9820351600646973,1.1579850372938048,1.1033887686099106,-0.09143097698688507,0.9705202579498291,0.9232334252649238,1.1236147382909007,-0.4515987038612366,0.9977639317512512,0.010680973529815674,1.026568831702002,1.1018264983371535,176.6980549883917,158.0057795491866,1.0,0.01575678253359323,0.01806348986977851,0.06049680466837754,0.12430643770348354,94.28278387625198,0.9378764270631791,37,1.2333333333333334
1.0815923157171357,0.6113127198360527,-0.20174458622932434,0.9999951720237732,1.080732297103099,0.761654457853769,0.059274327009916306,0.9999967813491821,0.9481734178600666,0.7403094837737088,-0.22480559349060059,0.9999974370002747,1.0778632438020388,1.1069265776247175,0.09018507599830627,0.9999865889549255,0.9864587256074916,1.1112211153245246,-0.09025435149669647,0.9999895095825195,1.0723072824286473,1.377092040194405,0.167765274643898,0.9439584612846375,1.0163412992616558,1.3940060154023235,-0.133668914437294,0.9767400622367859,1.059203463903449,1.6113127198360528,0.36578890681266785,0.9579591751098633,0.9406791641224252,1.663762271754062,-0.05038568377494812,0.9831781387329102,1.1600301266553525,1.1075587078539462,-0.02829604782164097,0.9685433506965637,0.937657810933489,1.128621126340706,-0.4113825261592865,0.9979472160339355,0.010763674974441528,1.0321609847047652,1.109073846474621,177.97596541963514,158.2998780904231,1.0,0.00787473084045108,0.0187608918345509,-0.06584247408152914,0.005097496464396033,93.16608980399204,0.9447775361589068,38,1.2666666666666666
1.0831840986566008,0.6125093861964866,-0.18734368681907654,0.9999946355819702,1.070402705948443,0.7615847766359102,0.06691636145114899,0.9999967813491821,0.9523350867260574,0.7410769920660623,-0.2332461178302765,0.999997615814209,1.0748331150400545,1.1142408992605386,0.09475360810756683,0.9999871850013733,0.9902301840893599,1.119977337527833,-0.09480870515108109,0.9999902248382568,1.0688084218748992,1.3800582206205165,0.1964567005634308,0.9212812185287476,1.0211259219730466,1.4017300386295908,-0.12768574059009552,0.9783816933631897,1.0612387108800414,1.6125093861964868,0.3867073357105255,0.9485955834388733,0.9430630848923109,1.6708126697857173,-0.026066932827234268,0.9839832186698914,1.1555877128329861,1.1090778916487263,-0.012072384357452393,0.9654437303543091,0.9449288070208661,1.1315403381286797,-0.4053135812282562,0.9981166124343872,0.010321497917175293,1.0325316495647072,1.1171091183941857,179.43321154268634,157.56437368196163,1.0,-0.011758842308574376,0.04246058749039999,-0.14175297168779674,0.17071482424161813,93.15919279610041,0.9651767059853441,39,1.3
1.0836364248081303,0.6131421229554986,-0.1986950784921646,0.9999945163726807,1.0634151496198678,0.7598287022527639,0.061912912875413895,0.9999968409538269,0.9548994672978401,0.74116360234438,-0.235329270362854,0.9999977946281433,1.070715052234523,1.1185651912282466,0.10278679430484772,0.9999879598617554,0.9943001644847417,1.1238204813919712,-0.102821946144104,0.9999909996986389,1.0595968574878822,1.3807689977092734,0.2229299247264862,0.8987457752227783,1.025434924395008,1.4029658194084413,-0.14729365706443787,0.9801874160766602,1.061384634676421,1.6131421229554985,0.42129388451576233,0.9399267435073853,0.943450395757906,1.676867476973232,-0.05565570667386055,0.9849852323532104,1.143746893587571,1.1095779709741798,-0.01833498291671276,0.9591132998466492,0.9490688448223972,1.1320165826966602,-0.4309484362602234,0.9982671141624451,0.009391069412231445,1.0325076083596323,1.121192836310109,177.13114887680172,156.97221279621962,1.0,-0.002760258633681032,0.028953713603296946,0.06996468639560377,-0.10507882889443011,92.76846790926623,0.9732015747624204,40,1.3333333333333333
1.083515812636652,0.6146768671297926,-0.1856948435306549,0.9999938607215881,1.060272681198732,0.7604013795725819,0.0661177784204483,0.9999967813491821,0.9557876712186649,0.7411527648926913,-0.2419309914112091,0.9999979734420776,1.066649798557907,1.124489073265591,0.10461711883544922,0.9999886751174927,0.9972827444997882,1.1275839048600724,-0.10466773808002472,0.9999917149543762,1.0487058933587334,1.3823392205522809,0.24423715472221375,0.8718292117118835,1.026236766236528,1.4052340026213943,-0.14055229723453522,0.9818427562713623,1.0594117673910726,1.6146768671297926,0.4402931332588196,0.9320304989814758,0.9437338108098927,1.6862968096687463,-0.05528349429368973,0.9859566688537598,1.1321907007673586,1.108270552686864,-0.008280467242002487,0.9468970894813538,0.9548279319518834,1.1372954773924757,-0.42726120352745056,0.9984098672866821,0.009676456451416016,1.0319662715288476,1.1260364890628316,173.3809163830816,157.68754406627022,1.0,-0.010834766715718801,0.02978631115898969,-0.06175333583997631,0.006181800683973041,91.55112195871986,0.9783357690885406,41,1.3666666666666667
1.0831912127898466,0.6172139367749369,-0.21817903220653534,0.9999938607215881,1.0534267079390063,0.7585746061237006,0.03702551871538162,0.9999968409538269,0.9565310713614457,0.740577237451831,-0.2997189462184906,0.999998152256012,1.0599101922715248,1.1288742860833607,0.10784254223108292,0.9999895095825195,1.0000042109790663,1.1351080771501185,-0.10788419097661972,0.9999924302101135,1.0482493388318044,1.384330780827614,0.2711606025695801,0.8662182688713074,1.023530061378875,1.4084810423205176,-0.10585373640060425,0.983505368232727,1.0585448861010232,1.617213936774937,0.48074617981910706,0.9342148303985596,0.9434620902457889,1.6919225177479422,-0.004085139371454716,0.9871939420700073,1.1220056454401888,1.1071362631902246,0.011838342994451523,0.9302722811698914,0.9615011535413711,1.1460829561689865,-0.4765709340572357,0.99854975938797,0.009043455123901367,1.0299572016252956,1.1319911816167396,174.85508214980703,159.30718391656148,1.0,-0.019484326353716275,0.043156929367320865,-0.06835409623285231,0.10561731568907885,94.93771809896063,0.9888072170240465,42,1.4
1.0777834943748723,0.6145826678785276,-0.23060742020606995,0.9999935030937195,1.0389620664486907,0.752909629180734,0.025401795282959938,0.9999967813491821,0.9525196790607661,0.7371619524027755,-0.3281702399253845,0.9999982714653015,1.052001418429834,1.1256371981925057,0.11202677339315414,0.9999901652336121,0.9970915811843842,1.1347575650476784,-0.11207178980112076,0.9999930262565613,1.0420909488424126,1.3794191168491208,0.2893707752227783,0.8504923582077026,1.0168415516337626,1.4027942784328642,-0.07880687713623047,0.9848324060440063,1.0536694786892489,1.6145826678785276,0.5050353407859802,0.9324648380279541,0.9381388292333052,1.6854589332562164,0.009236395359039307,0.9881435036659241,1.107278616249193,1.1006322356955212,0.03275168687105179,0.9004427194595337,0.9662133367121217,1.1461828213410161,-0.48668211698532104,0.9986659288406372,0.007948845624923706,1.0245464998071092,1.130197381620092,174.94492869807306,160.22696984926785,1.0,-0.005605629059235182,0.024162015833496444,0.10069541790220951,-0.13727281440780933,97.42697416653019,0.9956625732547191,43,1.4333333333333333
1.0718500016481824,0.6089949512734398,-0.22338087856769562,0.9999923706054688,1.0285558625438171,0.7446401312623074,0.030740156769752502,0.999996542930603,0.9490947247761542,0.7326161555841919,-0.3294335603713989,0.9999983906745911,1.0416238046196937,1.1219639142646636,0.11405593156814575,0.9999908208847046,0.9911064545468594,1.1328698875422498,-0.11407890170812607,0.999993622303009,1.0329645302324548,1.3752737495892031,0.29927462339401245,0.8330000638961792,1.0095838430408537,1.3998698024008465,-0.07982020080089569,0.986059844493866,1.041451288981498,1.6089949512734398,0.5178478956222534,0.9315754175186157,0.9328702635981369,1.681392408030979,0.014956915751099586,0.9890580177307129,1.0915841219097975,1.0931060905952712,0.04802714288234711,0.8461715579032898,0.9699597156006844,1.1427033964368822,-0.5060189962387085,0.9987632036209106,0.006098538637161255,1.0163651295832765,1.1274169009034567,175.96255394842703,160.7984846837138,1.0,-0.025236312487176605,0.02046603945030981,-0.15206133454947462,-0.02769287030243838,100.19883063992744,1.0053624235670713,44,1.4666666666666666
1.0685350624892747,0.6064599873569405,-0.2365984171628952,0.9999908208847046,1.0272710498872832,0.7384104066166323,0.01949762925505638,0.9999961853027344,0.9474457059799325,0.731184854142802,-0.34425777196884155,0.9999985098838806,1.039907069112947,1.119509531429443,0.11338341236114502,0.9999913573265076,0.9887994227020652,1.1307975834449258,-0.11340942233800888,0.999994158744812,1.0310048298833816,1.374516696318699,0.29122406244277954,0.8195316791534424,1.0048835063809316,1.398624399931358,-0.07042116671800613,0.987017810344696,1.0371173824466813,1.6064599873569405,0.5023947954177856,0.9312471747398376,0.9314902236296141,1.6780356616412218,0.03782789409160614,0.9897757768630981,1.0862041340750985,1.0902817114185015,0.01784445345401764,0.786625862121582,0.9696820607893551,1.1422763080506368,-0.5038555860519409,0.9988400936126709,0.003670424222946167,1.0143532459075062,1.1251535574371845,176.49102639507305,161.84580564839112,1.0,-0.0036800992393540032,-0.0043403720537007594,0.17560834196889635,-0.20219366506534536,100.55580787045997,1.006848180877276,45,1.5
1.0633732699608827,0.6009812946414047,-0.2376749962568283,0.9999887347221375,1.0166936647911922,0.733595157798011,0.01542237401008606,0.9999955892562866,0.9447517963056454,0.7286826577014637,-0.3456991910934448,0.9999985694885254,1.034662689621743,1.1152082647262658,0.11250436305999756,0.9999917149543762,0.9793415781182014,1.126255143628384,-0.11254225671291351,0.9999945759773254,1.028775530313616,1.3707706156485202,0.28014513850212097,0.7959920763969421,0.995056429239987,1.3946675251765996,-0.053328920155763626,0.9872161746025085,1.0336640983925407,1.6009812946414048,0.4840577244758606,0.924839437007904,0.9288171099999789,1.672154412888509,0.06235760450363159,0.9899665713310242,1.069816658509886,1.0870569563295096,0.030837660655379295,0.7238423228263855,0.9761408901867962,1.1391487082912914,-0.494309663772583,0.9989012479782104,0.00250205397605896,1.0070021338699722,1.1207317041773248,177.46385814007346,163.22339560586548,1.0,-0.03545960657879827,-0.01100139713077056,-0.24131310351585747,-0.050651109736257305,98.59676345059069,1.0122316804086253,46,1.5333333333333334
1.0594398774447327,0.5984699412795953,-0.23710379004478455,0.9999848008155823,0.9990540883426428,0.7306402722458016,0.014278014190495014,0.9999945759773254,0.9438490403786732,0.7270083642719061,-0.3594437837600708,0.9999986290931702,1.025401904320127,1.1133394819831681,0.11627553403377533,0.9999920725822449,0.972125269963,1.124167870415188,-0.11632634699344635,0.9999949932098389,1.0272474344856957,1.369273495073725,0.2794211208820343,0.7646420001983643,0.9922390587574041,1.3922281167403334,-0.053509123623371124,0.9870047569274902,1.0321342842678753,1.5984699412795953,0.48023849725723267,0.914138674736023,0.9277622295014433,1.6701831729897243,0.06231802701950073,0.9898830056190491,1.0504109598329192,1.0857591693606221,0.05231670290231705,0.6569510698318481,0.9845354578927277,1.1372585442569811,-0.4900144040584564,0.9989446401596069,0.001851797103881836,0.9987635871415634,1.118753676199178,179.19169413927392,162.64903555966671,1.0,-0.05424976160914622,-0.005908753710720095,-0.14261287684228616,0.03848509058393934,97.55033281721444,1.0152966457699133,47,1.5666666666666667
1.0562824678926186,0.596960847618525,-0.22772857546806335,0.9999806880950928,0.9822321446294646,0.7278422578562229,0.018503783270716667,0.9999935626983643,0.9427494357344444,0.7257463309602848,-0.34938544034957886,0.9999986290931702,1.0113173046496884,1.1115766391140827,0.11627648770809174,0.9999921917915344,0.9665710752747182,1.1220833630110354,-0.11635017395019531,0.9999952912330627,1.0266559865860678,1.3671561833346373,0.2716653347015381,0.7441300749778748,0.9876377677853116,1.3889236977521622,-0.042610980570316315,0.9862593412399292,1.0312614210501119,1.5969608476185249,0.4645988941192627,0.9082518219947815,0.9263771524118338,1.6703060286797529,0.08222473412752151,0.9895545840263367,1.0279712245000425,1.0906428248657498,0.03914927318692207,0.6019313931465149,0.9908317501982081,1.1357416837240475,-0.4718163013458252,0.998902440071106,0.0010699033737182617,0.9889441899622032,1.1168300010625591,177.7135872830141,163.2035595396919,1.0,-0.06352651652852519,-0.004488745684129278,-0.06861647065002802,0.010380729393370342,98.87961868284583,1.014137203379619,48,1.6
1.0449931517502853,0.594448070132773,-0.23240867257118225,0.999976396560669,0.944813232617989,0.7093347537454963,0.01081099919974804,0.9999921917915344,0.9397288344211561,0.7198515425941138,-0.37502601742744446,0.9999986290931702,0.9848560798065796,1.1033915982868565,0.11994556337594986,0.9999924898147583,0.9564921663044724,1.113489715070497,-0.12005336582660675,0.9999955892562866,1.015645303677037,1.3606099278347232,0.28025391697883606,0.7291630506515503,0.9767138584812858,1.3816473417607917,-0.03898167610168457,0.9863454103469849,1.0268501143544941,1.594448070132773,0.46302980184555054,0.9060560464859009,0.92160852377497,1.664688490081256,0.0770072191953659,0.9897600412368774,1.0076044517924372,1.0872953633478328,0.04590717703104019,0.5478979349136353,0.995379669242675,1.130784945894061,-0.46601518988609314,0.9989024996757507,0.005392283201217651,0.970674123055526,1.1084406566786769,175.9174709423014,164.67039592895506,1.0,-0.10658852041888865,-0.026521819120820495,-0.33223772095327797,-0.16904466337666077,103.79443543869614,0.9965384614521806,49,1.6333333333333333
1.0396399832937755,0.5942251277857632,-0.2322109490633011,0.9999749660491943,0.93653997779724,0.7068578866394281,0.013582277111709118,0.9999910593032837,0.9380572880325363,0.7172388672132582,-0.3808203935623169,0.9999986886978149,0.9593981519477573,1.097569413453631,0.12589769065380096,0.9999927282333374,0.9423464391629952,1.1028719195436938,-0.12600058317184448,0.9999958872795105,1.008028938303908,1.3555712310751067,0.2777736485004425,0.6970553398132324,0.9692243820755949,1.3766415542372237,-0.04928047955036163,0.9862374663352966,1.0231474807362069,1.5942251277857633,0.4592217803001404,0.8909229636192322,0.917380468162346,1.6623172988367907,0.0664454847574234,0.9892888069152832,0.9941036479793919,1.086501047382511,0.05561019852757454,0.49680426716804504,1.0006384437425533,1.1234494658427385,-0.4632793962955475,0.9989365935325623,0.005341529846191406,0.9508722955553762,1.1002206664986622,172.95035329242577,164.10684072222296,1.0,-0.1279543432416161,-0.03362558012833472,-0.16993844182325765,-0.05625521144018762,103.92571338203106,0.9722079347159693,50,1.6666666666666667
1.0326205944290685,0.5989969383495325,-0.2103031426668167,0.9999747276306152,0.9280442709021773,0.704559880845758,0.03050229512155056,0.9999902248382568,0.9422027556887755,0.7136931801510693,-0.3660930097103119,0.9999987483024597,0.9484642216264252,1.094260778017704,0.12713085114955902,0.9999929070472717,0.9369655583931608,1.0983584335993115,-0.1272638589143753,0.9999961256980896,1.0104835165026709,1.3528430296250051,0.2710803151130676,0.6737033128738403,0.9727788799280473,1.3738964012316324,-0.06255704909563065,0.986023485660553,1.0226636504320852,1.5989969383495324,0.42093977332115173,0.8775133490562439,0.9202816404682852,1.6665313873642935,0.01981871761381626,0.9888370633125305,0.9844797939493839,1.0934384115556606,0.07013248652219772,0.45243433117866516,1.0104834002999772,1.1264096476124268,-0.43954986333847046,0.9989121556282043,0.004684805870056152,0.942714890009793,1.0963096058085078,169.34552748926362,162.42404892710803,1.0,-0.08966530029044607,-0.05928583269333017,0.31122504500509307,-0.2055551673286061,106.61449790372353,0.9407089878391338,51,1.7
1.0279445215234144,0.600547685654076,-0.1803821623325348,0.9999748468399048,0.9229067523756633,0.6993024732935476,0.0557946152985096,0.9999890923500061,0.9440011312973278,0.7124555498399937,-0.3606126010417938,0.9999988079071045,0.9448571082707037,1.0901406286111075,0.13129159808158875,0.9999932646751404,0.9339322476919888,1.0918241954180015,-0.13144366443157196,0.9999964237213135,1.0096789094545056,1.353091984861976,0.2670711874961853,0.6584480404853821,0.9725780228973695,1.3726788786823807,-0.07601381093263626,0.9866093993186951,1.0170907451350812,1.6005476856540761,0.41231074929237366,0.8725038170814514,0.9217268246197708,1.6674439585215024,-0.0002947775356005877,0.9891319870948792,0.9749534098975602,1.0973814434081135,0.08301235735416412,0.410248726606369,1.0177494663886666,1.1280211726180673,-0.3872872292995453,0.9988424181938171,0.00673869252204895,0.9393946779813462,1.0909824120145544,167.86738895361518,162.37726549597744,1.0,-0.033580532980389044,-0.0501392801303425,0.424973961111458,0.0697079107910686,95.54612047482122,0.916373852842363,52,1.7333333333333334
1.0323150384636672,0.6067574898536767,-0.18971046805381775,0.9999749660491943,0.9285635552520695,0.693906344397471,0.0449337363243103,0.9999884366989136,0.9498494077545724,0.7129351230811661,-0.35885047912597656,0.9999988079071045,0.9435645722780892,1.0928820322211592,0.1316932737827301,0.9999934434890747,0.936917238836242,1.0952912512642765,-0.1318388432264328,0.9999966025352478,1.006596190227536,1.3580135928855352,0.2868909239768982,0.6402361989021301,0.9756794165843665,1.3780072034867061,-0.053200580179691315,0.9868380427360535,1.0112164775496468,1.6067574898536767,0.4453941881656647,0.8657656311988831,0.9250718048393625,1.673343152519107,0.040011487901210785,0.9890449643135071,0.9877791070861842,1.1019329799703088,0.08561159670352936,0.3742777705192566,1.0225202955657433,1.1333098090116211,-0.4031990170478821,0.9987574815750122,0.009713530540466309,0.9402409055571657,1.094086641742718,167.69103746713446,162.46951171847672,1.0,-0.020843644058826515,-0.00708235242190569,0.10380412053393825,0.349041651566151,107.7689939486573,0.9072081876581495,53,1.7666666666666666
1.0351461444756613,0.6177599630091233,-0.17183057963848114,0.999976396560669,0.9253756005736402,0.6978707361325287,0.06229018047451973,0.9999875426292419,0.9561634639984415,0.7167267533699018,-0.35733240842819214,0.9999988675117493,0.939299285766258,1.0947430002511436,0.13316726684570312,0.999993622303009,0.9396202567298281,1.0989288841007296,-0.1333235204219818,0.9999967813491821,1.003035082654424,1.364807734285332,0.2720617353916168,0.6325705647468567,0.9779029388500438,1.3850805420008403,-0.06880877912044525,0.9872945547103882,1.0037285442353145,1.6177599630091233,0.4019450545310974,0.8603985905647278,0.9297847558156184,1.6830720970024715,0.009603026323020458,0.9890726208686829,0.9846713186918937,1.1071183966238785,0.0855235755443573,0.340164452791214,1.0305833104487492,1.142419686845002,-0.3939877450466156,0.9987599849700928,0.00957682728767395,0.939459771248043,1.0968359421759366,166.87813367693315,163.2072955955437,1.0,-0.04078980923903238,-0.020549671477876705,-0.1459703467460023,-0.0988173035332703,177.62449060540717,0.8814329413152073,54,1.8
1.0343672466424352,0.6223817079635169,-0.15758225321769714,0.999977707862854,0.9245188306169111,0.6994858804550783,0.07055976241827011,0.9999866485595703,0.9587333143408688,0.7186239930098323,-0.33830973505973816,0.999998927116394,0.9406520765731479,1.0976347325722824,0.1333172470331192,0.9999938011169434,0.9415790029191359,1.1020556843769929,-0.1334761083126068,0.9999969601631165,0.9958731079933285,1.3676972283643931,0.28160589933395386,0.6307780146598816,0.9773258198438326,1.3895995971010326,-0.0687457025051117,0.9879417419433594,0.9949350096094226,1.6223817079635168,0.40904778242111206,0.8597049713134766,0.9321085839765341,1.6870823899576315,0.014258491806685925,0.9894306063652039,0.9875975679061455,1.1092211942967334,0.09784410148859024,0.3094567656517029,1.0338502752878342,1.1476404214915905,-0.3757458031177521,0.998684287071228,0.009699970483779907,0.9411155397461419,1.0998452084746375,168.23270249535116,164.27070002475045,1.0,-0.0022500450514009503,0.005610484410024574,0.29565907864642166,0.20057511067311595,170.47890475747406,0.876010596270644,55,1.8333333333333333
1.0353642901866011,0.622978621912042,-0.1601812243461609,0.9999789595603943,0.9264671144926793,0.7007701274412187,0.06740034371614456,0.9999856948852539,0.9588923885153087,0.7186490787663973,-0.33427685499191284,0.999998927116394,0.9435798233675089,1.097390138365037,0.13288691639900208,0.9999939799308777,0.94262279906598,1.1020857463916751,-0.13304027915000916,0.9999971389770508,0.994047735546967,1.3674185152552307,0.29357197880744934,0.6261731386184692,0.9769426085756501,1.3908950272528289,-0.04849464073777199,0.9883387684822083,0.9907024116389389,1.6229786219120421,0.44761115312576294,0.8576405644416809,0.9316747654914305,1.6890848272181167,0.04307739809155464,0.9896207451820374,0.985395725698956,1.1113091026276467,0.0974959284067154,0.28079894185066223,1.0356687418160258,1.150496729290251,-0.3669493496417999,0.9984942674636841,0.009065747261047363,0.9431013112167445,1.0997379423783562,168.66367015838262,164.59110615978267,1.0,0.01819202521063724,0.0028407552204553943,0.15507493388138918,-0.02099372450041501,166.00960376043912,0.8724643373813875,56,1.8666666666666667
1.0325448065234746,0.6224007321792634,-0.15316036343574524,0.9999797344207764,0.9244237969307206,0.6971535508737611,0.06402062624692917,0.9999839067459106,0.9597183300357023,0.7209427959684309,-0.32988888025283813,0.999998927116394,0.9396970982002649,1.0974818822238934,0.1317296177148819,0.9999940991401672,0.9422002149037332,1.1021806905934461,-0.13187751173973083,0.9999973177909851,0.9904635366700427,1.3669566149353922,0.3016965091228485,0.6251323223114014,0.9752511093184513,1.3929247467342407,-0.03448154777288437,0.988920271396637,0.9861148120873273,1.6224007321792633,0.46896085143089294,0.8565357327461243,0.931435814182483,1.6889070152666028,0.060911308974027634,0.9900401830673218,0.9746023555268317,1.1098828864555121,0.13185107707977295,0.2547358274459839,1.0362239180087083,1.151672361061305,-0.3542056679725647,0.9984443187713623,0.012065887451171875,0.940948656551999,1.0998312864086697,168.35575307617492,165.09408925174523,1.0,-0.01447881182463037,0.002971897061975166,-0.24912243370211365,0.0010059738224901039,154.1400731655324,0.8741747310738075,57,1.9
0.9818475306397431,0.5718821286820445,-0.16832615435123444,0.9999809265136719,0.8944652426389518,0.6726730082833127,0.060649700462818146,0.9999836087226868,0.9368339894068236,0.7034933546813952,-0.33982500433921814,0.999998927116394,0.9108060564760575,1.0689166887448678,0.13278301060199738,0.9999942183494568,0.9203214647273343,1.076296525864541,-0.13290514051914215,0.9999974966049194,0.9670268138556938,1.327137782776433,0.3257538080215454,0.6254204511642456,0.9488308000486045,1.3612993479348172,-0.03540588915348053,0.9897157549858093,0.9467597710812781,1.5718821286820444,0.505052924156189,0.8587639331817627,0.9095473408456205,1.6484504774571145,0.05416610836982727,0.9907476902008057,0.9466173193533667,1.0835411973495144,0.11850164830684662,0.23180072009563446,1.0132674594012576,1.1282896280569894,-0.36776942014694214,0.998354434967041,0.016010195016860962,0.9155637606016959,1.0726066073047043,162.98325471884843,166.49766289240472,1.0,-0.024984248829375333,-0.009865735630707452,-0.08573642278080536,-0.1009121150105074,130.15747682659688,0.939341874391796,58,1.9333333333333333
0.9821154727834428,0.5641273468761308,-0.16043218970298767,0.9999822378158569,0.8916823911927706,0.6722248489156867,0.05710705369710922,0.9999832510948181,0.9434336586413894,0.7052320805989493,-0.33905574679374695,0.999998927116394,0.9127898732164216,1.0769156714285004,0.13265947997570038,0.9999944567680359,0.9274164851127734,1.0842534497358545,-0.13277938961982727,0.9999976754188538,0.9659197983870549,1.3327494253474006,0.3622226417064667,0.630950927734375,0.9525121815718455,1.3723403284023021,0.013532394543290138,0.9904411435127258,0.9371969342461514,1.5641273468761308,0.5765779614448547,0.8608651161193848,0.9164514235516438,1.6564099262893697,0.12533043324947357,0.9914177656173706,0.9413664810619767,1.0665500237558132,0.14156608283519745,0.21227601170539856,1.0217625438032114,1.1376406380542123,-0.362226277589798,0.9981268048286438,0.017023026943206787,0.9201031791645975,1.0805845605821776,161.19154201242324,167.78681815563138,1.0,-0.015304342871533943,0.0015856127633983945,0.07234540702713284,0.08453935076347538,119.62736468876398,0.9819496675084335,59,1.9666666666666666
0.9973522840781363,0.5770380624630762,-0.07574392855167389,0.9999834299087524,0.8951878854564613,0.6774233482038268,0.08711366355419159,0.9999817609786987,0.9538301471909195,0.7120187532342068,-0.2829323410987854,0.999998927116394,0.9135428883403262,1.0902056106316733,0.12920884788036346,0.9999947547912598,0.9377633839401707,1.0975836586363201,-0.12933430075645447,0.9999978542327881,0.970673178446271,1.3447278970526213,0.32981619238853455,0.6346367597579956,0.9586194289492401,1.387077227226719,0.03661278262734413,0.9909365177154541,0.9425720432155986,1.5770380624630762,0.5235389471054077,0.859302282333374,0.9256858211088632,1.6683483083019004,0.15674073994159698,0.991847813129425,0.9499212000426306,0.7753602379652487,0.34933018684387207,0.19442597031593323,1.031050836916131,1.1492250919235558,-0.30745914578437805,0.9976773262023926,0.017664790153503418,0.9256531361402484,1.0938946346339966,160.4518135612959,169.20107913224504,1.0,-0.028791085799951505,0.019242231926473317,-0.1041485029269858,0.1377961539798554,109.48785416023611,0.9866461145595634,60,2.0
0.9928985993573791,0.5891688416201953,-0.02483045682311058,0.9999843835830688,0.877519948657139,0.6747181414496749,0.13335904479026794,0.9999775886535645,0.9481963013050185,0.7076829979665378,-0.24185478687286377,0.9999988675117493,0.8931380887961001,1.091653108125648,0.12838704884052277,0.9999945759773254,0.9359530750562244,1.0976173196089618,-0.12854698300361633,0.9999979138374329,0.9368738804561794,1.3495042544260076,0.27685409784317017,0.6114420294761658,0.9484963155604803,1.3823761430612729,0.01452267449349165,0.9892537593841553,0.9102534583993959,1.5891688416201952,0.42628374695777893,0.8275420665740967,0.9184286583731351,1.6578099922087928,0.1144077330827713,0.9894556999206543,0.9449692776818972,0.7803740220248625,0.3678896725177765,0.17740778625011444,1.0240874387574805,1.1423266931956675,-0.2760621905326843,0.9966389536857605,0.016939550638198853,0.9145455819261623,1.094635213867305,164.03524360005505,171.24782094049002,1.0,-0.03962716898499225,0.05799422962983013,-0.08329159058533313,0.29385727193629124,100.0756440637301,0.9671875604143378,61,2.033333333333333
0.9876621813134161,0.5940929215848458,-0.07199497520923615,0.9999856352806091,0.8654799745048425,0.6746735712588962,0.10817176103591919,0.9999765753746033,0.9443073703951911,0.7044551079538935,-0.2732802629470825,0.9999988675117493,0.8806614705239366,1.0889237114430181,0.12834474444389343,0.9999945759773254,0.933566750380846,1.095959927078863,-0.12850728631019592,0.9999979734420776,0.9205724498551757,1.3502801258505985,0.27753594517707825,0.6172463893890381,0.9412622757775457,1.3778645981823272,-0.001017421716824174,0.9893307685852051,0.887585896680897,1.5940929215848458,0.4103248715400696,0.8286042213439941,0.9142526795424446,1.6496558130644445,0.10422974824905396,0.9894077777862549,0.91846893776102,1.013547361225799,0.19115230441093445,0.16187934577465057,1.01866947781328,1.1365656517620955,-0.2920416593551636,0.9965899586677551,0.0153789222240448,0.9071141104523913,1.0924418192609406,163.6125788084518,172.76110201806603,1.0,-0.022405144916464587,0.02389055320651271,0.1288474636927184,-0.25590579788872736,99.67452328779318,0.9534359372554455,62,2.066666666666667
0.9788388470842314,0.5975178530861393,-0.05121791362762451,0.9999867677688599,0.8544641271782442,0.6759523885544542,0.10609908401966095,0.9999766945838928,0.9420953363643401,0.7019400020535442,-0.26118963956832886,0.9999988675117493,0.8708630789059433,1.0852417244350399,0.125871479511261,0.9999945163726807,0.9296174136874005,1.0936408121468748,-0.12608526647090912,0.9999980330467224,0.9055208295767333,1.3474514115130325,0.2664976418018341,0.6210150718688965,0.934309900035581,1.3739780803680024,-0.006661534309387207,0.9891944527626038,0.8720393301954381,1.5975178530861394,0.377010703086853,0.8289392590522766,0.9114856978914879,1.6462397974571426,0.07698864489793777,0.9890613555908203,0.9149649507781072,1.0109396021407395,0.24341550469398499,0.14865611493587494,1.0131583027617872,1.1308285683374262,-0.2868579030036926,0.9964843392372131,0.0134868323802948,0.9002402462966719,1.0894412682909573,164.84453314076183,174.24902552123228,1.0,-0.01790076004790058,0.018413316280913222,0.03327092847954773,-0.0405830355488789,100.42990141243178,0.9355051432191827,63,2.1
0.9707738538330658,0.5946462682350061,-0.04002799466252327,0.9999873638153076,0.8453807849112699,0.6759838686136221,0.10704318434000015,0.9999750256538391,0.939355863764887,0.6989248521430437,-0.2560279965400696,0.9999988079071045,0.8640751279850911,1.0821291630130225,0.1234033927321434,0.9999943375587463,0.9248866903956534,1.0907518394609106,-0.12362301349639893,0.9999980330467224,0.895205033109497,1.3416890720044476,0.2694154977798462,0.6348659992218018,0.9272328267682706,1.3680456751397712,-0.007996385917067528,0.9895064234733582,0.8574796673129972,1.594646268235006,0.38435935974121094,0.834993302822113,0.9068995687348406,1.6374662549459817,0.07587899267673492,0.989251434803009,0.8944897601648588,1.0311717616682683,0.2267065793275833,0.1359184980392456,1.0073082781851002,1.1242274812365052,-0.27112284302711487,0.9964648485183716,0.011972993612289429,0.8944809091903723,1.0864405012369664,164.67856685935718,175.19929249388875,1.0,-0.005383794837127994,0.02396983883045882,0.09536799933359381,0.043473335099397825,100.70575344355944,0.9394376999949259,64,2.1333333333333333
0.9599612889467714,0.5932529884838492,-0.0076243681833148,0.9999876022338867,0.838153912225274,0.6747515293253837,0.12391199171543121,0.9999728202819824,0.9390791581428701,0.697453355454695,-0.23459628224372864,0.9999987483024597,0.8585452592722483,1.079892608854749,0.12224755436182022,0.9999939799308777,0.9231187130797347,1.0884563636992581,-0.12246469408273697,0.9999979734420776,0.8888070472717877,1.3401225466297284,0.26962810754776,0.6452694535255432,0.92432794909207,1.3658277163231134,-0.0016372868558391929,0.989492654800415,0.850686564418531,1.593252988483849,0.38124075531959534,0.8377885222434998,0.9051239545271639,1.6339745910558023,0.08517760783433914,0.9889650940895081,0.8784980808884805,1.0360490699414153,0.21783773601055145,0.12444653362035751,1.0051388113926343,1.121746570141302,-0.24017956852912903,0.9964510798454285,0.011872023344039917,0.8908319861759916,1.0841744862770035,164.8027730423096,175.65382980744727,1.0,-0.013492467642549489,-0.0006098313913790195,-0.059146685859934836,-0.17870073052358215,100.4358524589322,0.9361136257481945,65,2.1666666666666665
0.943912643894171,0.5697296189228304,-0.0261637382209301,0.9999885559082031,0.8301277393435056,0.6598321338281674,0.11346858739852905,0.9999740123748779,0.9264306117737359,0.6854107065385451,-0.23982194066047668,0.9999987483024597,0.8448424252844317,1.063394910308088,0.12039200216531754,0.9999939203262329,0.9091481837792684,1.0717155284207704,-0.12060581147670746,0.9999979734420776,0.872314149951084,1.320443262611391,0.27242639660835266,0.6550920009613037,0.9104018279157596,1.3454842625674401,0.02928510680794716,0.9894025325775146,0.8357293406221395,1.5697296189228305,0.3896794021129608,0.8441920280456543,0.8915139226403787,1.6090681344417985,0.14426027238368988,0.9889768362045288,0.8635609252583024,1.0131518125777879,0.30865320563316345,0.11596331745386124,0.9898188985478351,1.104723853922336,-0.2556488513946533,0.9963797926902771,0.01358059048652649,0.87699530453185,1.0675552193644293,165.55071600741798,175.6389347456264,1.0,-0.0034182382013837357,-0.0024652395183368406,0.07588669798401913,-0.014333992908049566,99.46081481808494,0.9622350795463962,66,2.2
0.9354312911386528,0.5607677786400034,-0.020184073597192764,0.9999885559082031,0.8209619713870094,0.6565073747076594,0.1177973747253418,0.9999726414680481,0.9218962223208473,0.6806616966158588,-0.24540379643440247,0.9999987483024597,0.8367998782862924,1.0571093351645457,0.12068674713373184,0.9999935626983643,0.9033896888040356,1.065379594067372,-0.1208980530500412,0.9999979138374329,0.8645014113610772,1.3129332646331042,0.27560195326805115,0.6639643907546997,0.9050979670328199,1.3375996011933837,0.014463396742939949,0.989627480506897,0.8320170564392624,1.5607677786400034,0.40007710456848145,0.8496416807174683,0.8862006414303459,1.5998705396569692,0.12480588257312775,0.988995373249054,0.8522099342674541,1.012161213065069,0.2838119864463806,0.10622058808803558,0.984034340589423,1.0972473994075944,-0.258507639169693,0.9964410662651062,0.012897968292236328,0.870094783545164,1.061244464615959,166.3525397529801,175.51926032734374,1.0,-0.014734141977509375,-0.0017221668137277616,-0.08797150688704197,0.005657700128938923,99.34373980868328,0.9721310690427908,67,2.2333333333333334
0.9286494026405329,0.5627064077899357,-0.00018864308367483318,0.9999885559082031,0.8119384915756024,0.6660647356540909,0.1254720240831375,0.9999711513519287,0.9236523224857371,0.6819205543854499,-0.2346871793270111,0.9999987483024597,0.8339660363337521,1.0586975807851322,0.12047870457172394,0.999993085861206,0.9040403089004495,1.0669874033847622,-0.12067335844039917,0.9999978542327881,0.8619188517246875,1.3145488002082992,0.26429998874664307,0.6721625328063965,0.9061497412441956,1.339530064511614,-0.005003170110285282,0.9899159073829651,0.8349663914553485,1.5627064077899357,0.37172287702560425,0.8518972992897034,0.8871073867472064,1.6023942786573708,0.08504889160394669,0.9889405965805054,0.8463333569410285,1.0174417639431343,0.2451605349779129,0.09779239445924759,0.9857619884841775,1.0963520968300828,-0.2378043234348297,0.9965917468070984,0.008453577756881714,0.8690031726171008,1.0628424920849473,167.5663144202066,175.41317845333901,1.0,-0.019203055257374264,-0.0004058004129860222,-0.034931132353102384,0.010363379242731027,99.95781327900262,0.9690429944637237,68,2.2666666666666666
0.9237556921550266,0.5639573787414495,0.034103378653526306,0.9999859929084778,0.810705636111388,0.6721661195120451,0.13580405712127686,0.9999681115150452,0.9246912731136988,0.6835300312365847,-0.21326307952404022,0.9999986290931702,0.831655027494093,1.062033248324441,0.1187802404165268,0.9999921321868896,0.9042230472461669,1.069747566065262,-0.11895215511322021,0.999997615814209,0.8577678542597894,1.3163019693593039,0.2642436623573303,0.6744277477264404,0.9038122825472403,1.3414411047085666,0.004416787065565586,0.9894260764122009,0.8354815189183167,1.5639573787414494,0.3764534592628479,0.847923994064331,0.8868754019156297,1.604275556853388,0.10550831258296967,0.9875192642211914,0.8504493032697598,1.017275117939555,0.23694927990436554,0.0900779440999031,0.9871149157895992,1.095560825605706,-0.22213642299175262,0.9965100884437561,0.006051748991012573,0.8679390373701299,1.0658904071948514,168.99425247089383,176.39961862530896,1.0,-0.01598422779508847,0.0141525526314615,0.025112656399120525,0.11281157244194692,99.14383167770436,0.9744438437127269,69,2.3
0.9221511356268127,0.5745879384077929,0.11395303159952164,0.9999842643737793,0.8106680936193166,0.6837792813889442,0.19177302718162537,0.9999658465385437,0.9306698085766232,0.6903916699948895,-0.14682230353355408,0.9999985694885254,0.8315591356322212,1.068587756883731,0.1161954402923584,0.9999912977218628,0.9075097721298367,1.0757786337165,-0.11639177799224854,0.9999974370002747,0.8582677364980493,1.3248915066964744,0.2300272434949875,0.6851825714111328,0.9078368196713941,1.350118618819358,-0.013857890851795673,0.9892087578773499,0.8402660933165511,1.5745879384077928,0.2929648458957672,0.8473829030990601,0.8911992548837269,1.6150514659025754,0.04097387194633484,0.9863325357437134,0.848947867495097,1.0222549513899182,0.29815956950187683,0.0844445526599884,0.9936888557014978,1.099951869644315,-0.16619691252708435,0.9964882731437683,0.0034978389739990234,0.8695344538810289,1.0721831953001155,169.92730632862938,176.33828736023275,1.0,-0.030983873395197252,-0.006405604800871325,-0.10874755350535924,-0.15081812634069974,98.51605053543821,0.9573659019315025,70,2.3333333333333335
0.921913191663539,0.5832760037773692,0.13846001029014587,0.9999810457229614,0.8066414224612061,0.6912641051320334,0.1981932371854782,0.9999644756317139,0.9322181111098186,0.6938435680756052,-0.13263973593711853,0.9999985098838806,0.8308847937395334,1.07020006480847,0.11286705732345581,0.9999904632568359,0.9076577566126833,1.076797133337723,-0.11307819187641144,0.9999972581863403,0.8553572197008261,1.327838242215388,0.22016160190105438,0.6916254758834839,0.9076335861481101,1.3532843199984277,-0.016581248492002487,0.9885309338569641,0.8404335955452252,1.5832760037773692,0.27514782547950745,0.8454842567443848,0.8931165679386016,1.6197372625322446,0.03665291145443916,0.9845683574676514,0.8440068711887045,1.0256564963601427,0.3101460337638855,0.07971138507127762,0.9959721163195702,1.1014742740982637,-0.15326711535453796,0.996492326259613,0.001361250877380371,0.8692712751761084,1.0734985990730965,171.2302612715389,176.88647557511104,1.0,-0.018265526616295914,-0.009683222754248082,0.1001513058379017,-0.0255415926328997,98.57198883414247,0.9337616568540547,71,2.3666666666666667
0.9057206360492689,0.5812609601215657,0.12116903066635132,0.9999786615371704,0.7968683420973027,0.6932579371909959,0.1880776584148407,0.9999629259109497,0.9262011820410545,0.6939201179451773,-0.1470935344696045,0.9999985098838806,0.8226034983903109,1.0658867598860762,0.11207117140293121,0.9999898076057434,0.9015087746830353,1.07151304474696,-0.11227214336395264,0.9999971389770508,0.8514571072472767,1.324569101241043,0.21355783939361572,0.6983413696289062,0.9017460880169037,1.3488148011470744,-0.014497173950076103,0.9879993796348572,0.8372325482667514,1.5812609601215657,0.27544617652893066,0.8433648943901062,0.8894071455855386,1.616090632078661,0.05345430225133896,0.9830631613731384,0.8385298911792277,1.0209483054330681,0.3216615617275238,0.07481332123279572,0.993066465408148,1.0976513972948307,-0.16612859070301056,0.9965762495994568,0.00035059452056884766,0.8620561365366731,1.068699902316518,170.46369900213583,177.30775071434454,1.0,-0.03462805427386873,-0.010244103970040299,-0.1298869609438234,-0.004686106394705332,98.02932195057936,0.9234148669867105,72,2.4
0.9051252773734254,0.5831729379514887,0.11525990813970566,0.999977171421051,0.7922013711355002,0.6938013108450108,0.1935419738292694,0.9999617338180542,0.9223521131298311,0.6958332422742672,-0.14593642950057983,0.9999984502792358,0.8191507241955692,1.0664635054413518,0.11209899187088013,0.9999890923500061,0.8998417487305991,1.0713468998950324,-0.11230281740427017,0.9999969005584717,0.8492876890470701,1.326642989056465,0.2143445909023285,0.704655110836029,0.8958501510979696,1.3498782587223508,-0.009865732863545418,0.9874132871627808,0.8361553570555531,1.5831729379514887,0.2766311466693878,0.8395258784294128,0.8884025521171401,1.6174664206081724,0.06002660468220711,0.9814620018005371,0.8391715149517485,1.0211556307960035,0.3354298174381256,0.07001388072967529,0.9935476108992407,1.094805217335273,-0.16239868104457855,0.9965043067932129,0.0010751187801361084,0.8594962364630842,1.068905202668192,170.46225297649926,179.22677953973516,1.0,-0.023302908593238476,-0.003638100070833178,0.08480283221852257,0.04941766091160389,97.59948592918452,0.9180448045604247,73,2.433333333333333
0.9054241670848879,0.5931158990810923,0.14218869805335999,0.9999734163284302,0.7935754407989986,0.69938854942718,0.19289016723632812,0.9999599456787109,0.9274093131573522,0.7018576281209781,-0.13098210096359253,0.9999983906745911,0.8199480696997304,1.073317096540325,0.10945425927639008,0.9999886155128479,0.9012551627157156,1.0765382649375008,-0.10967262834310532,0.9999967813491821,0.8533589475800789,1.3350803673635359,0.2058582752943039,0.7136183977127075,0.8997707109954585,1.3569995277259879,-0.014497918076813221,0.9868746399879456,0.8409697903927641,1.5931158990810923,0.25388190150260925,0.8400599360466003,0.8928195926312102,1.6274749530659631,0.04368877783417702,0.9798446297645569,0.8389215690109337,1.0290494151903073,0.306653767824173,0.06653410941362381,0.9999219395853206,1.0958912387700286,-0.14618805050849915,0.9964929223060608,0.0012980401515960693,0.860601616207723,1.074927680738913,169.97737195972064,178.83110136521998,1.0,-0.03675895173602975,-0.007256191930027106,-0.11009943571899856,-0.029744131640749065,96.30302469909867,0.903784456429582,74,2.466666666666667
0.9002642398269936,0.5937641896333368,0.1418362855911255,0.9999706745147705,0.7875617849885235,0.702322576766519,0.19165751338005066,0.9999585151672363,0.925347002644667,0.702635705782366,-0.13414373993873596,0.9999983906745911,0.8168854864332501,1.0737437265018537,0.10865100473165512,0.999988317489624,0.9001894881438045,1.0758577585497946,-0.10886919498443604,0.9999967217445374,0.8500555533184246,1.33562212627136,0.20582902431488037,0.7229539155960083,0.8993892254353094,1.3553455677299593,-0.01603345386683941,0.986818790435791,0.8397327882547978,1.5937641896333368,0.2550198435783386,0.8424319624900818,0.8922625769139806,1.6276474601726094,0.034876734018325806,0.9792753458023071,0.8404234189423487,1.0339729952454981,0.2972528338432312,0.06284302473068237,1.000138160167108,1.0927976923395406,-0.14629995822906494,0.9965566992759705,0.00016453862190246582,0.8585374872885273,1.0748007425258241,170.4912734159855,178.6648604346931,1.0,-0.018708212257371647,-0.004858842106673504,0.136428227842557,0.018127882780058533,95.96783969933246,0.9008954118793857,75,2.5
0.8940910916623308,0.5932561983771055,0.13472118973731995,0.9999675154685974,0.78467672953321,0.7042613654731631,0.1872565746307373,0.9999570846557617,0.9214718913173208,0.7031010289613959,-0.14005401730537415,0.9999983906745911,0.8133320901358976,1.0736582003333266,0.1089620366692543,0.9999879598617554,0.8978311195684835,1.0745024629714892,-0.10917900502681732,0.9999966621398926,0.849985600007804,1.3338396867414695,0.21636512875556946,0.7230469584465027,0.9007210431696907,1.3529833392260437,-0.018324673175811768,0.9863737225532532,0.8390312270551522,1.5932561983771056,0.27789169549942017,0.8395082354545593,0.8920197387084835,1.6271765454923488,0.03059055469930172,0.9783006310462952,0.8371897408534528,1.0379523449301196,0.2975289821624756,0.05916040018200874,0.9993284918960201,1.0931869491038826,-0.1458548605442047,0.9966277480125427,0.0006097257137298584,0.8555816048521905,1.074080331652408,169.563139207729,177.58781055451877,1.0,-0.022036844856736158,-0.005281184199462473,-0.02491787589124706,-0.0031618763573267265,95.00818923703915,0.8995461940383649,76,2.533333333333333
0.8915441248391968,0.5927656655578728,0.14844098687171936,0.999961793422699,0.7828414772121901,0.7057860942014198,0.18568482995033264,0.9999558925628662,0.9204066937258271,0.7026458125031647,-0.1361209750175476,0.9999983906745911,0.8125579400713746,1.073378121704302,0.10876522213220596,0.9999879598617554,0.8969073433464059,1.073656874793423,-0.10898103564977646,0.9999966621398926,0.8488989281331328,1.3325149544851662,0.21798495948314667,0.7282930016517639,0.9007204088938112,1.3513581189587314,-0.015140233561396599,0.9861993193626404,0.8386595151794269,1.5927656655578728,0.28590720891952515,0.8421831727027893,0.891673294801975,1.6257465334904315,0.04040353745222092,0.977901816368103,0.8348879563979362,1.0392978915073245,0.29379504919052124,0.05563494935631752,0.9984738325073846,1.0916087778644643,-0.14644545316696167,0.9966815710067749,0.001650482416152954,0.8547326417088903,1.0735174982488624,169.76387472970362,177.32486348462677,1.0,-0.005100790809954479,-0.002564462074584666,0.1292388148536891,0.020728456885565714,94.8111376503729,0.8998156671268834,77,2.566666666666667
0.8839650357707786,0.5925491493808215,0.14960773289203644,0.999954342842102,0.7768611986737753,0.7122770932290232,0.17899110913276672,0.9999561905860901,0.9201195829532315,0.7026258895063764,-0.1379394829273224,0.9999983906745911,0.8099232553381723,1.0736527383437071,0.10748529434204102,0.9999880790710449,0.8964020779758063,1.0735231143508164,-0.10770104080438614,0.9999967217445374,0.8468451130507205,1.3309860768181494,0.21888096630573273,0.7356935143470764,0.9009864918871031,1.3489675216482275,-0.021499868482351303,0.9862833619117737,0.8387014828621885,1.5925491493808215,0.2841598689556122,0.8472500443458557,0.8917238766260837,1.6249712513716554,0.02427341416478157,0.9779109954833984,0.8306514132984464,1.0392308205255454,0.2952858805656433,0.05323813483119011,0.9968069176344426,1.0915788406466367,-0.1546960473060608,0.9967266321182251,0.005072504281997681,0.8531626666569893,1.0735879263472616,170.05170106203371,177.12436384154788,1.0,-0.011561210715074061,0.0004931371496126707,-0.04749342434831711,0.02247788796835791,95.14152521059371,0.9004578940357723,78,2.6
0.8813217575501826,0.5924741946308363,0.15648171305656433,0.999937891960144,0.7692634522429758,0.7151451215825285,0.1537640392780304,0.9999561309814453,0.9206079945902199,0.7027371416351008,-0.13548891246318817,0.9999983310699463,0.810172759427375,1.0743541363250755,0.10196687281131744,0.9999882578849792,0.8962798631154134,1.0736886889080963,-0.102169930934906,0.9999967813491821,0.8475868514078149,1.3299373246529893,0.22921617329120636,0.7458873391151428,0.9015238201422778,1.3489941643766274,-0.017345618456602097,0.9865070581436157,0.8391582288663876,1.5924741946308363,0.28742364048957825,0.8544504046440125,0.891900636122135,1.6217636352778777,0.029203230515122414,0.9782460927963257,0.8245942083617148,1.0404791538984108,0.26613110303878784,0.050787944346666336,0.9960656711647411,1.0918167151158586,-0.12432572990655899,0.9965607523918152,0.0065205395221710205,0.8532263112713941,1.074021412616586,169.83296505369924,176.88824350696015,1.0,-0.0003771953102082431,0.002125478882965476,0.0822978356618619,0.012009463499028218,96.05448089884578,0.9045924864804977,79,2.6333333333333333
0.8867975331715818,0.5922545331304586,0.17076164484024048,0.9999285340309143,0.7670170463005372,0.7154629415610106,0.17826952040195465,0.999954342842102,0.9205414657180901,0.7028607892546338,-0.11679959297180176,0.9999983310699463,0.8072848296291675,1.0744151208811155,0.1023205891251564,0.9999883770942688,0.8955114670085097,1.0720548158883263,-0.10253369808197021,0.9999968409538269,0.84720723429056,1.3298073587947765,0.23103280365467072,0.7533878684043884,0.9058115108260528,1.3469517312183688,-0.012926955707371235,0.9865104556083679,0.8392935307438915,1.5922545331304585,0.28733283281326294,0.8597608208656311,0.8939898496448511,1.6188549866207598,0.03579084202647209,0.9784904718399048,0.8177168082110389,1.0410601292972035,0.2964767813682556,0.046882566064596176,0.9953581765095427,1.0921836593178926,-0.09175841510295868,0.996467113494873,0.006621330976486206,0.8513981483188385,1.0732349683847209,169.38839191187554,175.36469578974,1.0,-0.015687521876669264,-0.007799807335198227,-0.12075213693586553,-0.078283991751347,94.86830977323301,0.9056247954141445,80,2.6666666666666665
0.8850109999679185,0.5927219930936838,0.1855890452861786,0.999919593334198,0.7664770831872396,0.7195572871345091,0.19406220316886902,0.9999527335166931,0.9205953070778242,0.7037034218999438,-0.10793818533420563,0.9999983310699463,0.8066086682983735,1.0750258284186704,0.10308662801980972,0.9999884366989136,0.8954766553397328,1.0697464116313198,-0.10330338776111603,0.9999969005584717,0.8488689863932001,1.3307831312816147,0.2136833220720291,0.7607008814811707,0.9155522710696443,1.3467876374499153,-0.027188315987586975,0.98659747838974,0.8406223463588814,1.5927219930936838,0.24008584022521973,0.8642581105232239,0.8985592015178792,1.6167065508364886,0.0016958664637058973,0.978566586971283,0.8186769206222214,1.0434063361745778,0.297944575548172,0.043879441916942596,0.9961779902409886,1.0880827009073377,-0.0920826643705368,0.9964501857757568,0.00832107663154602,0.8510426618190532,1.0723861200249951,168.81419949188523,172.25297203926738,1.0,-0.009664655338704309,-0.015280425777338352,0.04668247020014091,-0.057759658933245826,93.04149022109645,0.9027740391573409,81,2.7
0.872555884668188,0.5920680008876393,0.22103123366832733,0.9999158978462219,0.7615044918293485,0.7210891515610022,0.20284554362297058,0.9999532699584961,0.9194070637698449,0.70384278568903,-0.07868781685829163,0.9999983906745911,0.8050088054497874,1.0738910893842541,0.09990467131137848,0.9999886155128479,0.8948496490022287,1.0671051892277823,-0.10010762512683868,0.9999969601631165,0.8491125593580393,1.3305996616300895,0.20018848776817322,0.7673713564872742,0.9242761398134027,1.3448123329646187,-0.03209330514073372,0.986434817314148,0.8403631261929072,1.5920680008876393,0.22199273109436035,0.8667541742324829,0.9018330545744921,1.6136631749449624,-0.004296571481972933,0.9775665402412415,0.8167416487275373,1.0500121170707677,0.3054634630680084,0.04106255993247032,0.9949960754311776,1.084838564862084,-0.028323641046881676,0.9961370229721069,0.009056240320205688,0.849929227226008,1.0704981393060182,168.3349286566356,169.17951377144368,1.0,-0.005475738267410346,-0.010640653527956179,0.03227612683022418,0.035733286271938704,92.71021614768512,0.8989748889793885,82,2.7333333333333334
0.866384215602548,0.5915496288519747,0.21196261048316956,0.9999158382415771,0.7580355669889988,0.7229245344919468,0.18020251393318176,0.9999555349349976,0.9188159807763294,0.7053723074818662,-0.08250589668750763,0.9999984502792358,0.8033130684108856,1.0725566870472796,0.09314010292291641,0.9999890327453613,0.8936616998977104,1.0651450120315238,-0.0933309942483902,0.9999970197677612,0.8489119511132966,1.3295769852212815,0.20135781168937683,0.7770670056343079,0.9306259914147474,1.3397724901820485,-0.028112739324569702,0.986548900604248,0.8399600051289435,1.5915496288519746,0.23025639355182648,0.8721378445625305,0.9069944578033524,1.609960290385312,0.004082490224391222,0.9772317409515381,0.8125476053465096,1.0558532536891503,0.2628532946109772,0.03970285877585411,0.9933817686926996,1.0843121984073167,-0.046691566705703735,0.995516300201416,0.009223908185958862,0.8484873841542979,1.0688508495394018,167.98252303439605,167.33561633433413,1.0,-0.006119437386003934,-0.006403093782962276,-0.005008656362012145,0.032696526577888727,92.68905015520262,0.8969824560434957,83,2.7666666666666666
0.8575739675401027,0.5879243148923127,0.24824750423431396,0.99991375207901,0.756442992976578,0.7216674331794443,0.18432292342185974,0.9999576807022095,0.9167923553377096,0.7051362164586069,-0.046329207718372345,0.9999985098838806,0.8009921423058081,1.0695809352346017,0.08682279288768768,0.9999893307685852,0.8911169023733533,1.0598058181459797,-0.08699880540370941,0.999997079372406,0.8471146748564818,1.3264624217982994,0.18474501371383667,0.7828329801559448,0.9315756513600034,1.3306357062264391,-0.042895760387182236,0.986049473285675,0.8388714706584397,1.5879243148923126,0.20046651363372803,0.8727731108665466,0.9096824283532143,1.6026049251703804,-0.030133724212646484,0.9747214317321777,0.8041227845409243,1.0563816021770962,0.2712373435497284,0.03799322620034218,0.9910407678245904,1.0774504538455303,-0.0005177949788048863,0.9942371249198914,0.008708059787750244,0.8460545223395807,1.0646933766902908,168.01533177345507,166.9012048263816,1.0,-0.003289684158947648,-0.012797198420310442,0.02229240378465689,-0.05075276649393072,91.10660460480979,0.8975858470826582,84,2.8
0.8557230022107122,0.5854604126851277,0.2463095635175705,0.9999171495437622,0.7571393920716877,0.7234106737541595,0.18430176377296448,0.9999602437019348,0.9172937289920969,0.7049388787466062,-0.04801974818110466,0.9999985694885254,0.8018544708573696,1.0692558958452616,0.08517751097679138,0.9999897480010986,0.8909889579785939,1.057949598115583,-0.0853734239935875,0.9999971985816956,0.8472369718051329,1.3241040257678467,0.17062309384346008,0.7918481230735779,0.9409113324651585,1.323298639146632,-0.036886535584926605,0.9858124852180481,0.8393521247827724,1.5854604126851277,0.17162467539310455,0.8761473894119263,0.9215870313634679,1.5896908702372705,-0.025289097800850868,0.9736326336860657,0.8048232239154687,1.0572807618036542,0.2748594284057617,0.03753017261624336,0.9914326276951858,1.071235366235962,-0.008123030886054039,0.9940656423568726,0.009732037782669067,0.8464217144179818,1.0636027469804223,168.17477423274465,165.19599378323707,1.0,0.00395083564445162,-0.006840483978237988,0.05507795606176516,0.045298364581071046,90.13792845359295,0.9107810906088988,85,2.8333333333333335
0.8582972185538774,0.5874405465500886,0.23048833012580872,0.9999212026596069,0.759862096106248,0.7269348440446319,0.15547451376914978,0.9999629855155945,0.9221229726341637,0.7078775980848827,-0.05059169605374336,0.9999986290931702,0.8053876445857077,1.0731958818503677,0.07631051540374756,0.9999901056289673,0.8953693673792326,1.0617875204472165,-0.07651478052139282,0.9999972581863403,0.850642371260974,1.3268034366940546,0.15128549933433533,0.802588701248169,0.947768758271522,1.3259522986774368,-0.029851403087377548,0.9854961633682251,0.8431964468906176,1.5874405465500885,0.14686819911003113,0.8807089924812317,0.9373538455248103,1.5893739496001134,-0.013609717600047588,0.9727678298950195,0.7986825760043023,1.0628345769424394,0.24485313892364502,0.041179608553647995,0.996141541730778,1.0711437919538835,-0.01692313328385353,0.9941216111183167,0.01000124216079712,0.8503785059824701,1.067491701148792,168.24601804696482,166.5163904400956,1.0,0.004973172651121628,-0.002228770796632449,0.007881020131613185,0.03630843874569708,90.26443443772189,0.9189833464860921,86,2.8666666666666667
0.8536985676706698,0.5846552348024152,0.2333105355501175,0.9999259114265442,0.7597803239897865,0.7256329325715115,0.14872965216636658,0.9999658465385437,0.9230590616070629,0.7072982777337277,-0.04358607158064842,0.9999986886978149,0.8049322743148312,1.0697684020912666,0.07330875098705292,0.9999905824661255,0.896881703232071,1.0578428736879957,-0.07350239157676697,0.9999973177909851,0.8496493759436279,1.322460584570046,0.13791273534297943,0.8121917247772217,0.9499619429405005,1.3194623008243238,-0.0471918061375618,0.9854611754417419,0.8422146372782227,1.5846552348024152,0.12787726521492004,0.8839834332466125,0.9462510676961924,1.5864589465851304,-0.049924325197935104,0.971803605556488,0.7874124715989977,1.06420957585946,0.23691952228546143,0.05225961655378342,0.996129863618472,1.0654661961430218,-0.011130343191325665,0.9941478967666626,0.009634077548980713,0.8509069887734511,1.0638056378896312,168.34044341888736,167.73460363280333,1.0,0.012260721394116568,-0.018101739024042655,0.05616509945006689,-0.12225001173760269,90.08492246119278,0.9152121523566343,87,2.9
0.8512304497026492,0.5825369076568395,0.23951928317546844,0.9999297261238098,0.7591569670539337,0.7243587844593293,0.15019530057907104,0.9999684691429138,0.9228397409620118,0.7066621752459543,-0.037180427461862564,0.9999987483024597,0.8041908988235736,1.0669422391552383,0.07208315283060074,0.9999909996986389,0.897344055722316,1.0546803660662705,-0.07227388769388199,0.9999973773956299,0.8486853616483915,1.3202235884665345,0.13881364464759827,0.820483386516571,0.9493313252974513,1.315736208295734,-0.04482829570770264,0.9852908849716187,0.8414384426227141,1.5825369076568396,0.13171795010566711,0.8865463137626648,0.94706967934734,1.5840766938597004,-0.04382166266441345,0.9704609513282776,0.7832182789116752,1.0635746931968628,0.2342580109834671,0.06261990964412689,0.9953120465896347,1.0625614613105776,-0.007720514200627804,0.9940757155418396,0.009310930967330933,0.8507674772729449,1.0608113026107544,168.4538898045723,168.2544331178086,1.0,0.007337172165722186,-0.01220057101260931,-0.037197000036360256,0.044549220626940285,89.99000753135425,0.912208706622222,88,2.933333333333333
0.8543215420383244,0.5850725153755065,0.22869935631752014,0.999933123588562,0.7622825665910914,0.726805203101784,0.1343110352754593,0.9999706745147705,0.9269749077805058,0.7104133049195879,-0.03609781712293625,0.9999988079071045,0.8085016767775169,1.0709858273737036,0.06487790495157242,0.9999911785125732,0.9023862076627394,1.0581021902126317,-0.06507386267185211,0.9999973773956299,0.8520360894215389,1.325349875180526,0.11918902397155762,0.8330071568489075,0.9539663550581438,1.3206885684328944,-0.041178181767463684,0.985434353351593,0.8448489984848365,1.5884870772172777,0.10260732471942902,0.8928430080413818,0.9613170784209255,1.5850725153755065,-0.035361118614673615,0.9704330563545227,0.785910850120487,1.0692493223155684,0.22685988247394562,0.07429320365190506,1.0012672700294931,1.0655255759244506,0.0026258653961122036,0.9941739439964294,0.00859212875366211,0.8554439422201281,1.0645440087931677,168.7233901904782,170.47941306506053,1.0,0.011411716651324821,-0.002012007347429076,0.03132350479843667,0.07921559811456214,89.834532933011,0.9143159387096211,89,2.966666666666667
0.8567821687762579,0.5883485484866672,0.21160201728343964,0.9999387860298157,0.7671450478242955,0.7308113931937411,0.0962541252374649,0.9999732971191406,0.9356862659877774,0.7161469152750379,-0.046007584780454636,0.9999988675117493,0.8161781109381832,1.077157254449957,0.05818207934498787,0.9999914169311523,0.9107140661559652,1.0630478934921157,-0.05834997817873955,0.9999973177909851,0.8567411083067102,1.3331410315613759,0.12214820086956024,0.8467458486557007,0.960032207878063,1.328516181570769,-0.0400228276848793,0.9860174059867859,0.8498198457601777,1.5970404437046952,0.1124558225274086,0.9003103971481323,0.974938302069522,1.5883485484866673,-0.03369692340493202,0.9710855484008789,0.7805466589616333,1.0758343982082081,0.16790899634361267,0.14940425753593445,1.0096404606893183,1.0720981242285077,-0.0497484914958477,0.994536280632019,0.007642179727554321,0.8634460885470742,1.0701025739710364,169.49347258010627,172.7590445948354,1.0,0.02418589524665749,-0.00511057925029186,0.1016957187117876,-0.024703071457736238,89.56930164883595,0.9179247219083352,90,3.0
0.8521852443547943,0.5848347550301157,0.17488935589790344,0.9999445080757141,0.7655500956328093,0.7288018313935458,0.05987194925546646,0.9999758005142212,0.9366031018455041,0.7144920294770781,-0.053686272352933884,0.999998927116394,0.8185192773958571,1.0746436885455568,0.05230160430073738,0.999991774559021,0.9139057653509046,1.0601217433249748,-0.0524572916328907,0.9999973177909851,0.8540260639560139,1.3305124778549038,0.12527556717395782,0.8600735664367676,0.9595282727170074,1.3254856287176073,-0.03633815050125122,0.9868650436401367,0.8478220420088248,1.5922738070519562,0.12799760699272156,0.9081509709358215,0.980666943628366,1.5848347550301158,-0.029255244880914688,0.9725667238235474,0.7748137055986147,1.0734654316251804,0.11202359199523926,0.22950255870819092,1.0101192584296295,1.069075697101585,-0.09465541690587997,0.9949559569358826,0.007474184036254883,0.8662125213733808,1.0673827159352658,170.74183112546027,174.904514942209,1.0,0.036801478643409116,-0.0024137231334908087,0.09896187754779477,0.020974351486949826,90.0513381503178,0.922369627773356,91,3.033333333333333
0.8513315587321844,0.5855017707865005,0.16577786207199097,0.99994957447052,0.7677508012046222,0.7289489760408298,0.049870338290929794,0.9999780058860779,0.9407344593072412,0.7156680630182988,-0.06528910249471664,0.9999989867210388,0.8218177083901131,1.0749997388725607,0.05097781494259834,0.9999921321868896,0.9172897243470258,1.0604381313183922,-0.05113289877772331,0.9999973773956299,0.8539769081152757,1.332236579062739,0.13123780488967896,0.8719501495361328,0.9622779582014592,1.3265021634194305,-0.020902110263705254,0.9876072406768799,0.8476646445604643,1.592861055487954,0.1411435306072235,0.9152467250823975,0.9873834065983679,1.5855017707865005,-0.005440976470708847,0.9738529920578003,0.7731280858342731,1.0760350021498066,0.10517977178096771,0.2997629940509796,1.014222284575713,1.0679899939389896,-0.10329081863164902,0.9952365159988403,0.006934523582458496,0.8695537163685695,1.0677189350954766,171.48655692621696,175.93926795708705,1.0,0.023561022984943614,-8.880334819118949e-05,-0.10207340066576424,0.017913126954101213,90.20804168694777,0.9215056234567414,92,3.066666666666667
0.849378763807654,0.5836504114838118,0.16236554086208344,0.9999542236328125,0.770214216312241,0.7269585130071542,0.04535442590713501,0.9999800324440002,0.9433904415806009,0.7143937073830103,-0.06663500517606735,0.9999990463256836,0.8226209796131168,1.0729319622978926,0.048610981553792953,0.9999924898147583,0.9185314804029069,1.0582189892327871,-0.048755936324596405,0.9999973773956299,0.85162856032164,1.3307341583973413,0.13130822777748108,0.8830206990242004,0.9631448774845573,1.3244097994124655,-0.01701885275542736,0.988342821598053,0.8451381426215926,1.589902764219639,0.14659656584262848,0.922028660774231,0.9930010381660465,1.583650411483812,0.010594731196761131,0.9751502275466919,0.7706968974421375,1.0758809144246746,0.08677403628826141,0.36502277851104736,1.0145036764203232,1.064386689052407,-0.11745461076498032,0.9955052733421326,0.006573289632797241,0.8705762300080119,1.0655754757653397,172.1455811915324,177.0553758898603,1.0,0.020363935569701914,-0.000637333230272936,-0.02377610104997485,-0.00413940721061273,89.89210441160022,0.921553606939482,93,3.1
0.849584228964566,0.5833974452702699,0.1369757056236267,0.999958336353302,0.7740528514666488,0.7263050024619895,0.016755299642682076,0.9999818801879883,0.9483145051492248,0.7159709098064616,-0.081990547478199,0.9999990463256836,0.8252220914930861,1.0728376512665923,0.045451246201992035,0.9999927878379822,0.9217313388713293,1.058102268446587,-0.045577116310596466,0.9999973177909851,0.8507392117716349,1.330739248211812,0.13616088032722473,0.8920162320137024,0.9643017219350281,1.323909220230311,-0.011386221274733543,0.9887130856513977,0.8438881168126323,1.5892513320023558,0.15906734764575958,0.9277116656303406,0.9979673213600021,1.58339744527027,0.018125932663679123,0.9760262370109558,0.7681276216999434,1.076915420981981,0.04223030060529709,0.4256046712398529,1.0165166242366352,1.064378291857579,-0.13613569736480713,0.9957150220870972,0.005409061908721924,0.8734767151822077,1.0654699598565898,172.83137226389655,178.29322408463193,1.0,0.02493497676411624,0.0032822967550631185,0.03413580912311354,0.02920206896963942,89.71855238059997,0.9228526569085036,94,3.1333333333333333
0.8497482881831253,0.5840176519993736,0.13258016109466553,0.9999621510505676,0.7786518997252552,0.7262377041012428,0.005524203646928072,0.999983549118042,0.9588806354719774,0.7178034079747178,-0.0833798199892044,0.9999990463256836,0.8283991060116446,1.0736676014634077,0.041104529052972794,0.9999930262565613,0.9267381667544522,1.0585843665921677,-0.041230209171772,0.9999973177909851,0.8506423334804333,1.3316546471735449,0.1291542798280716,0.901057243347168,0.963929335060572,1.3243837316896094,-0.01268894411623478,0.9892644882202148,0.843853146753598,1.589409939214486,0.14517268538475037,0.933342695236206,1.0018640511338563,1.5840176519993736,0.009163620881736279,0.9771186709403992,0.7676912608367618,1.0785961535723945,0.017826644703745842,0.48096877336502075,1.018588466411377,1.0646639429441827,-0.14312995970249176,0.9959534406661987,0.004414349794387817,0.8775686363830484,1.0661259840277877,173.56343395509518,179.65264446060897,1.0,0.03291329971258225,0.004724731007700893,0.06517446390316334,0.01178389406825876,89.42852091628677,0.9241311828103854,95,3.1666666666666665
0.8522651651144715,0.5824520419748167,0.12974238395690918,0.9999656081199646,0.7813404754531569,0.7243400453628288,-0.0015230103163048625,0.9999850988388062,0.9647280490916414,0.7165507073770374,-0.08144326508045197,0.9999991059303284,0.8287495845072966,1.0722126886416394,0.03754020854830742,0.9999933242797852,0.9304399326487179,1.0589066981172586,-0.03765709698200226,0.9999973773956299,0.8482227590714866,1.33153966203034,0.1514461636543274,0.909449577331543,0.9606195845368327,1.3232691136299555,0.017381247133016586,0.9897616505622864,0.8416157718871786,1.586503592833282,0.20234718918800354,0.9385729432106018,1.00292634095371,1.5824520419748167,0.05777325481176376,0.9782264232635498,0.7649179204530557,1.0764317997837507,0.031688909977674484,0.5305919647216797,1.019164806842185,1.062161911627684,-0.12811128795146942,0.9961763620376587,0.004086971282958984,0.8795947585780073,1.065559693379449,174.22125300904102,177.24199805030932,1.0,0.03227589153099254,0.016009984277415578,-0.004256058367515663,0.08656590249196053,90.30593436247719,0.9293376856266403,96,3.2
0.8579645446087703,0.5825804199845659,0.13568434119224548,0.9999686479568481,0.7868075189725098,0.7230748441007592,0.0017412056913599372,0.999986469745636,0.9738298916326047,0.7152661137432702,-0.07986687123775482,0.9999991059303284,0.8337091950805758,1.0709744679934865,0.037710852921009064,0.9999935626983643,0.9368927918627565,1.0605852269958673,-0.037829771637916565,0.9999973773956299,0.8463223870516657,1.3304849732736064,0.15509219467639923,0.9168127179145813,0.9585384509910353,1.3254729670772987,0.024704528972506523,0.9901005029678345,0.8397759221087391,1.582580419984566,0.20083431899547577,0.9429371356964111,1.000700540873761,1.5840650181707747,0.059562213718891144,0.9790372848510742,0.7628091213096103,1.0736543597960704,0.024575699120759964,0.5756449103355408,1.0212897793783522,1.062037529137265,-0.1401301771402359,0.996237576007843,0.004107296466827393,0.8853009934716661,1.065779847494677,175.72986425356535,175.41132660668515,1.0,0.05971203993380813,0.021622563675042325,0.20850777321747285,0.0428303481914891,91.9284111651113,0.9330073719122567,97,3.2333333333333334
0.8602523215676116,0.5826063543532558,0.12963499128818512,0.9999714493751526,0.7903757626607549,0.7230098748568338,-0.006760002579540014,0.9999877214431763,0.9772662190735759,0.7163269716369127,-0.07873888313770294,0.9999991059303284,0.8366877318040513,1.0716803937386827,0.03532112017273903,0.9999938607215881,0.9395050706932594,1.0629134708884878,-0.035438571125268936,0.9999973773956299,0.8471613172051145,1.3305085946191146,0.153567373752594,0.9237934947013855,0.9583545100913555,1.3286799426099942,0.024147765710949898,0.9905214309692383,0.840179191352109,1.5826063543532558,0.1962835043668747,0.9472871422767639,1.0008953448301456,1.5876416349737714,0.05873407796025276,0.9800183176994324,0.7641681435153566,1.0733753276235694,0.014627741649746895,0.6166493892669678,1.021331327108188,1.0635088565026614,-0.12963294982910156,0.996299684047699,0.003515094518661499,0.8880964012486553,1.0672969323135852,176.09630355322577,174.72797854963434,1.0,0.02210235639637005,0.011954589554142346,-0.29819537107701877,-0.07665476497197349,92.69234470897587,0.9357139381078624,98,3.2666666666666666
0.8653709568572066,0.5842063822316526,0.13685913383960724,0.9999739527702332,0.7959744516541333,0.7242141170394731,-0.0009152532438747585,0.999988853931427,0.984815150967421,0.7235420996038846,-0.0681634172797203,0.9999991059303284,0.841166419001198,1.0738587939881747,0.03390950709581375,0.9999939799308777,0.9449936515932439,1.066196241228227,-0.034018609672784805,0.9999972581863403,0.8505288372839289,1.3336486315804637,0.15421782433986664,0.9295051097869873,0.959656324532527,1.3325342929380093,0.028199726715683937,0.9906216859817505,0.8426636981217598,1.5842063822316526,0.20223984122276306,0.9505345225334167,1.0002374661999163,1.5950108391098154,0.06729428470134735,0.9802199602127075,0.7648915042624531,1.074756140588384,0.01613163948059082,0.6539833545684814,1.0224921382921024,1.065134761075938,-0.12826940417289734,0.9962514638900757,0.00035312771797180176,0.893080035297221,1.070027517608201,176.13808902844534,174.3622814681863,1.0,0.033094209166034304,0.013616878662772823,0.0880527137919494,0.013249170157075949,93.1438803044275,0.9351478295499714,99,3.3
0.8665610402449868,0.5759372600719094,0.13022831082344055,0.9999762773513794,0.8004342139565773,0.719541089229033,0.0005488842725753784,0.9999898672103882,0.9871979490631588,0.719015176163106,-0.06872530281543732,0.9999991059303284,0.841192250900588,1.0688986171961612,0.03648645430803299,0.9999940991401672,0.9429976694976571,1.0617231365021975,-0.03660055994987488,0.9999971985816956,0.8470644578618785,1.328505712407695,0.1563468873500824,0.9341074824333191,0.9567787130791059,1.3275174110679708,0.03649314492940903,0.9904303550720215,0.838282804137777,1.5759372600719095,0.205529123544693,0.9533169269561768,0.9945843140137666,1.590027352331233,0.09168093651533127,0.9799102544784546,0.761537126207232,1.068808238229028,0.027037015184760094,0.6876515746116638,1.0200692645899552,1.059440418794244,-0.13140811026096344,0.9962947964668274,0.0002778172492980957,0.8920949601991226,1.0653108768491792,176.67156833731306,174.77288959885078,1.0,0.025711876515746745,0.006362163727222387,-0.04982265935484772,-0.049649799894167096,92.62269843847692,0.9455743094837216,100,3.3333333333333335
0.8792735572587917,0.5743096257889991,0.13316687941551208,0.9999783635139465,0.8075506650135257,0.7179221145175834,-0.0020792721770703793,0.9999907612800598,0.9910822813345356,0.715497125788999,-0.06439806520938873,0.9999991059303284,0.8454688908926962,1.0668779305680793,0.03286813572049141,0.999994158744812,0.9474187330928765,1.060395063119928,-0.03298329934477806,0.9999971389770508,0.8469145063119928,1.3271441614066726,0.15049788355827332,0.9394747018814087,0.9579394724977457,1.3276093327321912,0.030026379972696304,0.9907109141349792,0.8377951420198377,1.574309625788999,0.19782406091690063,0.956505298614502,0.993113954012624,1.5924739630297566,0.07840444147586823,0.9803891777992249,0.7631815261496844,1.0674287646528404,0.0433778241276741,0.7177654504776001,1.0251479936880072,1.0579614517583409,-0.11478544771671295,0.9964189529418945,0.0012823641300201416,0.8964438119927863,1.0636364968440035,177.56874680762976,174.68996564657522,1.0,0.03878126162697025,-0.0040752741661913465,0.0960858193116822,-0.07652854082865367,92.56306982957585,0.9414027316866664,101,3.3666666666666667
0.8804711986213616,0.5707336339681632,0.13619688153266907,0.999980092048645,0.8124995255546259,0.7143824228208815,-0.002700618002563715,0.9999915361404419,0.9949901380027343,0.7135052260403961,-0.055279143154621124,0.9999991059303284,0.8490417440516359,1.0630541978842352,0.029794733971357346,0.9999940991401672,0.9514181994602653,1.0578418496301407,-0.02990752086043358,0.9999969601631165,0.8455196302862985,1.3241700382980741,0.143569216132164,0.9435692429542542,0.9616415905534453,1.325106951936308,0.033445362001657486,0.9904512166976929,0.8366537574414824,1.5707336339681632,0.1971929967403412,0.9584566354751587,0.9910193605764037,1.5893874484274364,0.08686932921409607,0.9796576499938965,0.7628170679776335,1.0650968293103833,0.041323091834783554,0.744742214679718,1.0270400968335276,1.054652901949699,-0.08953246474266052,0.9964110851287842,0.0004649162292480469,0.9002299717559505,1.0604480237571878,178.71345859142005,175.84756927842457,1.0,0.04598439248895456,-0.006349963383413867,0.05781329019276517,-0.018111484650096425,93.06837418351941,0.9429008944582054,102,3.4
0.882661294408989,0.5636859957119064,0.14138241112232208,0.9999814629554749,0.8159459570078663,0.7081329267596898,-0.00697589386254549,0.9999922513961792,0.998484391313377,0.7103961775015228,-0.03431276977062225,0.9999990463256836,0.8525226914374912,1.05803674336236,0.02167394571006298,0.9999940991401672,0.9538601325375132,1.0531974785655507,-0.021785955876111984,0.9999967813491821,0.8436318371552401,1.318481909811401,0.1287347376346588,0.9477581977844238,0.9622220999139369,1.319861965332768,0.04224338009953499,0.9904137849807739,0.8338274967552066,1.5636859957119063,0.1821674108505249,0.9610979557037354,0.9871479809997127,1.5826464177150574,0.09867221862077713,0.9799128174781799,0.7618304010979526,1.0601891327794486,0.008534187451004982,0.7694028615951538,1.0264356667533214,1.0501586464750494,-0.07232093065977097,0.9964163899421692,0.00120466947555542,0.9031914119875022,1.0556171109639554,179.66543690725044,176.37760902583386,1.0,0.054637021265972426,-0.0024482558113905735,0.071061267800777,0.031115124283940684,93.2336412397983,0.9512307612919123,103,3.433333333333333
0.8939298704311058,0.5604806173109083,0.14175382256507874,0.999983012676239,0.8226517333784481,0.7055754340460331,-0.001029650797136128,0.9999929070472717,1.0074160131213143,0.7119662395928843,-0.045378178358078,0.9999990463256836,0.8538579889740814,1.0578144901859523,0.026393581181764603,0.9999943971633911,0.9575330210548264,1.0546932716004522,-0.026514332741498947,0.9999969005584717,0.846038830107524,1.317359788108476,0.13204561173915863,0.9518522024154663,0.9655913484005559,1.3197983555166992,0.045362748205661774,0.9907054305076599,0.8331568521713337,1.5604806173109083,0.1857793778181076,0.9637495279312134,0.9876603051207957,1.5827404612477411,0.102530837059021,0.980517566204071,0.7653405879426973,1.0592423399930706,0.02874940261244774,0.7910905480384827,1.0324866881062327,1.0500972086996456,-0.08197915554046631,0.9964602589607239,0.003404378890991211,0.9056955050144538,1.0562538808932023,178.69255957813715,176.94342859967858,1.0,0.023547070006027467,0.010804165986288278,-0.22664285390084676,0.09673045539776996,93.3384283916279,0.9622274267890778,104,3.466666666666667
0.9056933807982575,0.5510697391405117,0.14234958589076996,0.9999843835830688,0.8277441153229116,0.7005856972146834,-0.006794790271669626,0.9999935030937195,1.0100670100576592,0.7084008006408066,-0.04829465597867966,0.9999990463256836,0.8586875989675895,1.0524521475406834,0.025074120610952377,0.9999945163726807,0.961042594142115,1.05102679717684,-0.025207316502928734,0.9999968409538269,0.8453222676095308,1.3099363919032219,0.12825807929039001,0.9557808637619019,0.9639930382254722,1.3136296790807627,0.05359542369842529,0.9907245635986328,0.8293416788242797,1.5510697391405117,0.16943249106407166,0.9662607312202454,0.9833242133842114,1.574617074849095,0.11040981858968735,0.9808493256568909,0.7717689456297966,1.053537858419984,0.029020946472883224,0.8103907108306885,1.0335740476694202,1.0448827845806792,-0.08483657985925674,0.9963119626045227,0.004184454679489136,0.9098650965548523,1.0517394723587616,179.17979797460467,176.40758553022746,1.0,0.0687610637536073,0.0068484400879290416,0.35458051507944044,-0.030508438707916283,94.22789436700916,0.9795920038325048,105,3.5
0.8937606037183262,0.5424794706694724,0.1251034438610077,0.9999856948852539,0.829262794488637,0.694460449127858,-0.019822191447019577,0.9999940395355225,1.0106287595001338,0.7011349745865325,-0.06351970881223679,0.9999990463256836,0.8595780717321047,1.046788768612462,0.02642235718667507,0.999994695186615,0.9615322140297942,1.04591044389802,-0.026560306549072266,0.9999969005584717,0.8450972373158698,1.3025085716159845,0.13724979758262634,0.958389937877655,0.9628998388500738,1.3079594590042742,0.06800992786884308,0.9902529716491699,0.8266212276468743,1.5424794706694724,0.2029561996459961,0.9678860902786255,0.9797460115836482,1.568254151516387,0.14514145255088806,0.9806515574455261,0.7751429452143436,1.0485619274878517,0.02382044680416584,0.8275074362754822,1.0309276225865183,1.0414987652263634,-0.10990309715270996,0.9961423277854919,0.003590494394302368,0.9105551428809494,1.0463496062552409,178.8383975543605,176.59602550011874,1.0,0.03746814048873409,-0.003691158399760612,-0.23527237396331097,-0.07981850570709464,94.42418583257349,0.9903304729487575,106,3.533333333333333
0.9076947067421475,0.543477249786063,0.1308927685022354,0.9999866485595703,0.835474901787458,0.6938754411020494,-0.012600323185324669,0.9999945163726807,1.0190258511009889,0.7000925706598959,-0.054332129657268524,0.9999989867210388,0.866724913913832,1.0473197997271828,0.025159457698464394,0.999994695186615,0.969641602038406,1.047233099618148,-0.025281038135290146,0.9999968409538269,0.8503715216085331,1.302877018944251,0.14267486333847046,0.9608705043792725,0.9666460134885191,1.3122803220742747,0.06863658130168915,0.9895709753036499,0.8276636321813288,1.5434772497860632,0.213047593832016,0.9693283438682556,0.9825023769078806,1.5742890494048154,0.15017400681972504,0.9801040887832642,0.7838594553536846,1.0486311665937607,0.019372176378965378,0.8427990674972534,1.0376443114722482,1.0444440613280206,-0.09995931386947632,0.9960371255874634,0.0033423900604248047,0.918183257976119,1.0472764496726654,178.2698146281185,175.88923712025655,1.0,0.053112333188765605,0.002135455917711374,0.11737031426572705,0.04379551210265871,95.00443694000953,0.9846263137884603,107,3.566666666666667
0.9198403947959483,0.5437103513844949,0.13297830522060394,0.9999873638153076,0.8416770466860801,0.6918963327972649,-0.010702503845095634,0.9999948740005493,1.0236708797735938,0.7000691496138832,-0.054001547396183014,0.999998927116394,0.8725704350803665,1.048329769585192,0.025437768548727036,0.999994695186615,0.9740729976413063,1.0489809025754462,-0.025563284754753113,0.9999967813491821,0.8546042321204835,1.302869542644498,0.14260534942150116,0.9630093574523926,0.9707585621715019,1.3165401196944775,0.05956151336431503,0.988970935344696,0.8278352034740695,1.5437103513844947,0.20899002254009247,0.9707232117652893,0.9832030531395266,1.5777966976956523,0.12799806892871857,0.9795952439308167,0.790146778815601,1.0487664456266805,-1.4284103599493392e-05,0.8573049306869507,1.04176532444043,1.0448266031294524,-0.10003278404474258,0.9960403442382812,0.004393070936203003,0.9233217163608364,1.048655336080319,177.695124778629,176.56315411817712,1.0,0.03705069766275843,0.008973202972514246,-0.11934946108399337,0.050779412677076065,95.32119886704791,0.9854561320591398,108,3.6
