nose_x,nose_y,nose_z,nose_visibility,left_shoulder_x,left_shoulder_y,left_shoulder_z,left_shoulder_visibility,right_shoulder_x,right_shoulder_y,right_shoulder_z,right_shoulder_visibility,left_hip_x,left_hip_y,left_hip_z,left_hip_visibility,right_hip_x,right_hip_y,right_hip_z,right_hip_visibility,left_knee_x,left_knee_y,left_knee_z,left_knee_visibility,right_knee_x,right_knee_y,right_knee_z,right_knee_visibility,left_ankle_x,left_ankle_y,left_ankle_z,left_ankle_visibility,right_ankle_x,right_ankle_y,right_ankle_z,right_ankle_visibility,left_wrist_x,left_wrist_y,left_wrist_z,left_wrist_visibility,right_wrist_x,right_wrist_y,right_wrist_z,right_wrist_visibility,trunk_lateral_inclination,center_mass_x,center_mass_y,left_knee_angle,right_knee_angle,person_height,center_mass_velocity_x,center_mass_velocity_y,center_mass_acceleration_x,center_mass_acceleration_y,body_orientation,torso_leg_ratio,frame,timestamp
1.3747412904109786,0.91317707381139,-0.381845623254776,0.9998493790626526,1.4539705151305438,1.0639653490615133,-0.1754881739616394,0.9999924302101135,1.2881152121357213,1.041949526578391,-0.20336048305034637,0.999979555606842,1.3960363674142529,1.4167104700821682,0.00713222473859787,0.9999710321426392,1.3072858532045517,1.4142495541798918,-0.0072835818864405155,0.9999681115150452,1.3884039937303465,1.6848742269420287,0.0012937000719830394,0.9603739976882935,1.2912781713811503,1.6868156038266156,6.850429781479761e-05,0.8497254848480225,1.355672084659818,1.91317707381139,0.17305521667003632,0.9581169486045837,1.2958303190006022,1.9380952935676774,0.1469111442565918,0.8967093229293823,1.4861316920464964,1.4435405870838447,-0.22566953301429749,0.9522286057472229,1.2468481550540267,1.4235993545860928,-0.30172255635261536,0.9040789008140564,0.008279532194137573,1.3516611103094023,1.41548001213103,173.47136122636752,175.60105656091963,1.0,0.11395833984566675,0.009039075087385634,0.7370664154702123,0.01924229870276355,97.73855950257716,0.9843711851839813,0,0.0
1.3753516811884734,0.9074138196489001,-0.4170176386833191,0.99986332654953,1.451036897852993,1.057215552210949,-0.19708944857120514,0.9999927282333374,1.2608237996336293,1.0348411032593157,-0.22939693927764893,0.9999811053276062,1.3962747088045195,1.405281737715117,0.007891029119491577,0.9999732375144958,1.2883614500230944,1.40195360981848,-0.008026789873838425,0.9999706745147705,1.3808645214402198,1.6769067137564924,0.017059359699487686,0.9634416699409485,1.2855051106495694,1.6788232466214412,0.011348214000463486,0.8629447221755981,1.3537603257744528,1.9074138196489,0.22177588939666748,0.9616193175315857,1.2815231872354733,1.9214087985495998,0.18270666897296906,0.906428337097168,1.4845734736392286,1.4388425077845892,-0.23159220814704895,0.9544451832771301,1.219436650254354,1.4153283352762076,-0.3281373977661133,0.9131801128387451,0.008488684892654419,1.342318079413807,1.4036176737667985,176.54076520620848,179.65067599087814,1.0,0.01876490935214777,0.003959154468678647,-0.711250357075784,-0.03775986476679935,97.17471828289356,0.9724481952636345,1,0.03333333333333333
1.3734414992044572,0.8979990362675406,-0.4041784405708313,0.9998761415481567,1.4402343737526444,1.0513193375869756,-0.17544862627983093,0.999992847442627,1.2499227588761481,1.0258797290863475,-0.22785067558288574,0.999982476234436,1.3856472712718395,1.3950201029419542,0.012397529557347298,0.9999751448631287,1.2770059463398689,1.390825756096558,-0.012526062317192554,0.999972939491272,1.3712158956196903,1.667636603857905,0.021612633019685745,0.9657455682754517,1.269220695278373,1.6705103552951506,0.0006442041485570371,0.8741146922111511,1.342321212013119,1.8979990362675407,0.23632922768592834,0.9643120765686035,1.2733616139302097,1.9052303787100955,0.1904347538948059,0.914664089679718,1.4744022487194564,1.4311154428274324,-0.21487107872962952,0.9562045335769653,1.2067251297794965,1.4043074183489084,-0.3425200283527374,0.9214572310447693,0.009734511375427246,1.3313266088058542,1.392922929519256,175.88085973907457,177.39483217464576,1.0,0.0033677149960316868,0.009580262922921719,-0.11559074625209093,0.04289771872557247,96.81349573820346,0.9754068629879242,2,0.06666666666666667
1.366496585000787,0.9007934981641489,-0.43250036239624023,0.9998876452445984,1.437538005209429,1.049688117864461,-0.20460669696331024,0.9999930262565613,1.2517354511970677,1.02650457027972,-0.24112896621227264,0.9999836683273315,1.3860447907500322,1.3955223264692844,0.011972205713391304,0.9999768137931824,1.2771629119920422,1.3912626286298722,-0.012090103700757027,0.9999749660491943,1.377327320289569,1.6712094100470318,0.03988565504550934,0.9674372673034668,1.27909235034259,1.6708208907229838,0.007197143975645304,0.8840154409408569,1.3429018609530605,1.9007934981641488,0.2508847415447235,0.9666252732276917,1.2759511832865995,1.9080249406048164,0.1873610019683838,0.9221912026405334,1.4711694525085346,1.433094403032662,-0.23713620007038116,0.957179605960846,1.2057933136369348,1.404033624751375,-0.3473569452762604,0.9287388324737549,0.008873969316482544,1.331603851371037,1.3933924775495783,173.28334079276638,178.8458725398549,1.0,0.005304571756771416,0.006932066533121346,0.014922740650817693,-0.020369568716239406,96.2284802195088,0.9654601797344801,3,0.1
1.3598946256367068,0.902289693601117,-0.41298800706863403,0.9998982548713684,1.4362582048482229,1.0526228359982701,-0.19075541198253632,0.9999932050704956,1.250490372972898,1.0351749727017283,-0.21650183200836182,0.9999847412109375,1.3846582857043266,1.39743747151324,0.010714331641793251,0.9999783039093018,1.2760893593772151,1.3937335897200085,-0.010841027833521366,0.9999766945838928,1.3755201143563,1.6701950178884015,0.02916187047958374,0.9677047729492188,1.2790340092038397,1.6703820637633475,-0.005684234667569399,0.8919550776481628,1.3428155632749585,1.902289693601117,0.21565504372119904,0.9681846499443054,1.276380976656457,1.9090953935518347,0.16067323088645935,0.9286146759986877,1.46845826114872,1.4298939767337961,-0.26294875144958496,0.958935558795929,1.2002929866666792,1.402923424321348,-0.3192935287952423,0.9354375600814819,0.0066831111907958984,1.3303738225407709,1.3955855306166243,173.8980948512596,178.75341353313271,1.0,-0.002343185799401283,0.023404110882042615,-0.05679237524256356,0.12241535621944777,96.55697814706117,0.967966485742646,4,0.13333333333333333
1.356372464211053,0.9074331724726786,-0.40866032242774963,0.9999077916145325,1.4368860664662932,1.0513515867254821,-0.18141618371009827,0.9999934434890747,1.2492395327919843,1.0326685894608683,-0.21982090175151825,0.9999856948852539,1.3840043228236512,1.3989580052438286,0.011595132760703564,0.9999796152114868,1.2754575080459511,1.3943364815138661,-0.011725221760571003,0.9999781847000122,1.3747256305914333,1.671958047503897,0.027612213045358658,0.9687306880950928,1.279252586716999,1.6724418202213105,-0.010647771880030632,0.8996325731277466,1.3411113650865993,1.9074331724726787,0.2086501568555832,0.9699639678001404,1.2785122961622954,1.9152778241497068,0.15171344578266144,0.934548556804657,1.4644413432973702,1.4288712849372274,-0.20319625735282898,0.9617345333099365,1.1935602193134116,1.4032618391037006,-0.3176717460155487,0.9415096640586853,0.007154285907745361,1.3297309154348012,1.3966472433788473,173.82248080400245,179.04351253419168,1.0,-0.007547383977792447,0.005180331310907678,-0.03925655314671768,-0.13753055811905815,96.21217286058972,0.9511601878798007,5,0.16666666666666666
1.3570936155430684,0.9092124906523595,-0.42217063903808594,0.9999160766601562,1.4365753782274047,1.0498283477562975,-0.1914498209953308,0.9999936819076538,1.2480806710622292,1.03413677661494,-0.22355130314826965,0.9999862313270569,1.3839017018139506,1.399021527287787,0.01097666472196579,0.9999808669090271,1.2759672757990008,1.3926068197985264,-0.01110741589218378,0.999979555606842,1.3699563739124738,1.6731584223185079,0.02497873455286026,0.9692943096160889,1.2768035872502663,1.6734772100649986,-0.01609077677130699,0.9066454172134399,1.3391438087204965,1.9092124906523595,0.20999911427497864,0.9714612364768982,1.2812816513890832,1.9209199161086519,0.143895223736763,0.9401009678840637,1.4674803388903834,1.4288386208706099,-0.2165476530790329,0.9638746976852417,1.2001450281693224,1.403372060746984,-0.3067203462123871,0.9459506869316101,0.006002753973007202,1.3299344888064757,1.3958141735431568,175.4752484935126,179.1338115407111,1.0,-0.008527545391432158,-0.016850662318963348,-0.007333724861883999,-0.1661623722047663,95.17687528516927,0.9378979771427892,6,0.2
1.3532522223452568,0.9068037844047495,-0.4069839417934418,0.9999234080314636,1.4328287455146316,1.0469348143962265,-0.18228048086166382,0.9999938607215881,1.2459979810054524,1.033239329914183,-0.21471960842609406,0.9999868273735046,1.3814856192354947,1.3957988011937794,0.01129232905805111,0.9999821186065674,1.273677800187706,1.3883991931803334,-0.011423260904848576,0.9999809265136719,1.3700567374352295,1.6708262291249885,0.025407273322343826,0.970167338848114,1.278636343722733,1.6714513968654927,-0.01880643703043461,0.9136486053466797,1.3417587538852183,1.9068037844047494,0.20870688557624817,0.9731020331382751,1.2806622638277898,1.9239369911222912,0.11644704639911652,0.9454185366630554,1.460516034961148,1.426463457840591,-0.19621913135051727,0.9652286767959595,1.1970818346439887,1.3992416592359584,-0.2993728518486023,0.9500466585159302,0.005245208740234375,1.3275817097116003,1.3920989971870563,175.54143311040545,179.45611405319738,1.0,-0.006702484434108687,-0.017234504910556364,0.014861579251153407,-0.0033017319125209243,94.44579816702671,0.9282632284019489,7,0.23333333333333334
1.3485659316338117,0.9034815401606812,-0.4055057168006897,0.9999300837516785,1.4278592124124718,1.043221490134824,-0.1822660118341446,0.9999939799308777,1.243448152339848,1.03255002120108,-0.21262936294078827,0.9999873638153076,1.3764185012481631,1.3902451440835328,0.011107854545116425,0.9999829530715942,1.2711774111339504,1.3822429004319061,-0.011237398721277714,0.9999819397926331,1.3667634735501784,1.66377399710821,0.02612687274813652,0.9698165059089661,1.2777161439239815,1.6647319258465068,-0.02075064182281494,0.9189729690551758,1.3356422747672383,1.9034815401606813,0.1989806592464447,0.9740018248558044,1.2783846142862376,1.9218766587594605,0.10457029193639755,0.9498589634895325,1.455221798062662,1.4217698773317309,-0.20437109470367432,0.9666711091995239,1.1964782150366875,1.3936638570320847,-0.2941592037677765,0.9539445638656616,0.004098236560821533,1.323797956191057,1.3862440222577195,174.62426231117055,178.82296470428207,1.0,-0.0011768045745440576,-0.015215674975309025,0.04079943818754567,0.01460716355908157,94.08353670483606,0.9177760797311333,8,0.26666666666666666
1.3467371321390507,0.9024802543086797,-0.4144260883331299,0.9999355673789978,1.4263542728419367,1.0420811671638965,-0.18699400126934052,0.9999939203262329,1.2417164284462068,1.0352480952447443,-0.221638485789299,0.999987781047821,1.3756914288728472,1.3877974652908678,0.011632246896624565,0.9999832510948181,1.2707041582696088,1.3807118222817967,-0.011761023662984371,0.9999825358390808,1.3675232053567412,1.6602636482249433,0.021167203783988953,0.9683689475059509,1.2785001186835896,1.660760102455742,-0.030679378658533096,0.9225424528121948,1.335630520144406,1.9024802543086796,0.17842614650726318,0.9744316339492798,1.2779555704491825,1.9210972879636223,0.08706357330083847,0.9535198211669922,1.453393031954587,1.420383014439061,-0.2010909616947174,0.9676494598388672,1.19723056110188,1.392165797096053,-0.3055221140384674,0.9578534364700317,0.0026252269744873047,1.323197793571228,1.3842546437863323,174.21615596153805,178.28557112747936,1.0,-0.0004536089904031785,-0.011200229532583065,0.005695665960743152,0.031596369016684514,94.47597742175611,0.9139004536106716,9,0.3
1.345620152766287,0.9018639621270145,-0.4220832884311676,0.9999395608901978,1.4236384161021611,1.041758682870825,-0.1951262652873993,0.9999939799308777,1.2388974093386405,1.038426556256528,-0.22459545731544495,0.9999876022338867,1.3755722221343292,1.3846463460144305,0.011496325954794884,0.9999833703041077,1.270333448421447,1.3790641071814673,-0.011621745303273201,0.9999827146530151,1.3666229580002835,1.6573124226606324,0.01140190102159977,0.9658277034759521,1.2792383524469564,1.6592113765375973,-0.036951594054698944,0.9248327612876892,1.3409794029501643,1.9018639621270144,0.1708628386259079,0.9732649922370911,1.2781019736525772,1.9209630052205333,0.07868917286396027,0.9563100934028625,1.4496416602840847,1.4197384490775424,-0.19412900507450104,0.9683860540390015,1.1981973975196185,1.3902484383225426,-0.29793408513069153,0.959052562713623,0.0012804865837097168,1.322952835277888,1.381855226597949,175.89371781236306,177.9306355476445,1.0,0.0005199584336917305,-0.015887123325606677,0.007463292138338918,-0.03595361863272007,94.94343176789805,0.9071141483921562,10,0.3333333333333333
1.3439375739138844,0.9008467710944338,-0.41808924078941345,0.9999437928199768,1.4200742981744976,1.0402781858278727,-0.19069312512874603,0.9999937415122986,1.236938858806816,1.0384617947344803,-0.2232581377029419,0.9999878406524658,1.3740369501240886,1.3832371368147547,0.012013972736895084,0.9999834299087524,1.2687637445734503,1.3778508755618695,-0.012137329205870628,0.9999830722808838,1.365830184632854,1.655665274544368,0.014604720287024975,0.9651193022727966,1.2786689023679716,1.6577621355131267,-0.02821705862879753,0.9281782507896423,1.3404647060427777,1.9008467710944337,0.17294757068157196,0.9732409119606018,1.2774468439856101,1.9213983949065432,0.08979631960391998,0.9592481851577759,1.4455984514343942,1.4169804520244655,-0.19650349020957947,0.9676794409751892,1.1975617405619563,1.386694664068369,-0.29766926169395447,0.9618537425994873,0.0006986856460571289,1.3214003473487694,1.380544006188312,175.81891098478857,177.70774589075577,1.0,-0.0021047536669948816,0.00016013790137695322,-0.01994097066965063,0.12182425445933456,94.71647674338769,0.9048461418087339,11,0.36666666666666664
1.3378749735913653,0.8996834059361194,-0.41803330183029175,0.999946117401123,1.4177288032496744,1.0388557883470788,-0.1943277269601822,0.999993622303009,1.2342421515085618,1.0385319972047475,-0.2347121685743332,0.999988317489624,1.3719315488190214,1.3816387825019676,0.014745963737368584,0.9999833703041077,1.2660046386331432,1.3763248621914252,-0.014855394139885902,0.9999834895133972,1.3633962781043978,1.652887382747597,0.045951396226882935,0.9584148526191711,1.277667078628469,1.6551334903276682,-0.036473195999860764,0.9288777709007263,1.3370845331688581,1.8996834059361194,0.20985493063926697,0.9718632102012634,1.276472827933332,1.9195933108959897,0.0763934776186943,0.9613648056983948,1.4418809603224292,1.4144961542063055,-0.22796013951301575,0.9673181176185608,1.1958670196588586,1.3865965635111217,-0.3244883716106415,0.9651212692260742,0.0001246929168701172,1.3189680937260824,1.3789818223466965,175.71680224172854,177.34600438738988,1.0,-0.006758756685998092,0.00030210961330057786,-0.03502502577270584,0.001069286085579829,94.73800472771742,0.9036774365365685,12,0.4
1.3308282456957372,0.8976246108388373,-0.39964693784713745,0.9999482035636902,1.4156127537677234,1.0389128682676028,-0.18313422799110413,0.9999934434890747,1.2307477261264348,1.0381625019778025,-0.221891850233078,0.9999886751174927,1.3701374478018669,1.3808094614051267,0.017239484935998917,0.999983549118042,1.2637260268294421,1.375712105574364,-0.017359180375933647,0.9999839663505554,1.3662081361266376,1.6517904468155562,0.04024241864681244,0.9535614848136902,1.2763462242493204,1.653953617572878,-0.04063007980585098,0.930088222026825,1.3377163344757543,1.8976246108388373,0.21433380246162415,0.9694851040840149,1.275939527730918,1.9183676026125709,0.07990247011184692,0.9630288481712341,1.4397100058170207,1.411258108217002,-0.21046516299247742,0.9663665294647217,1.191862697894319,1.3861866095925317,-0.31336304545402527,0.9676774144172668,0.0002891719341278076,1.3169317373156546,1.3782607834897453,174.2197516522409,177.31488895959845,1.0,-0.008329285837366739,0.0018823639199468374,-0.011849178093389767,0.011888121978731282,94.83387590892907,0.907523455392139,13,0.43333333333333335
1.3284190610852291,0.8977824668770058,-0.40904349088668823,0.999950647354126,1.4156054184879254,1.0402977801463917,-0.1812417209148407,0.9999933242797852,1.2289676238152956,1.0380213066962245,-0.22204677760601044,0.9999889731407166,1.3701644373248516,1.3840404754519726,0.019939418882131577,0.9999837875366211,1.2633277461203418,1.3792151035748623,-0.020050646737217903,0.9999844431877136,1.3685068373100007,1.654921710692719,0.05438985675573349,0.9491240382194519,1.2768748167783466,1.655707272323649,-0.04398113861680031,0.9326294660568237,1.3373300341188692,1.8977824668770058,0.246228888630867,0.9677225351333618,1.2763735145993333,1.9201929406195541,0.08341462165117264,0.9648752808570862,1.4402794483123498,1.4102467990838723,-0.2190520018339157,0.9651855230331421,1.1881109161044001,1.3862273008192088,-0.3083404302597046,0.9696011543273926,0.0008771121501922607,1.3167460917225968,1.3816277895134175,173.03537366891067,177.0863692261036,1.0,-0.003645934020244093,0.02444433036300017,0.037177667106003794,0.1790334598358054,94.9444814701549,0.9175869337698824,14,0.4666666666666667
1.3261345384425915,0.8995314516496834,-0.3698566257953644,0.999951183795929,1.4165906736802443,1.0421072511208078,-0.1472838968038559,0.999993085861206,1.2289619576154651,1.0404823420742884,-0.1873795986175537,0.9999887347221375,1.37148022516276,1.3872637948660926,0.018820669502019882,0.9999841451644897,1.262535280890907,1.3830086005967368,-0.01894019916653633,0.9999849200248718,1.3721105210712026,1.6572330056078526,0.041537925601005554,0.9478497505187988,1.2780116781287862,1.6576263598111558,-0.053414683789014816,0.9354513883590698,1.3380511575725058,1.8995314516496833,0.2370975762605667,0.9670554399490356,1.2778232088116916,1.9271424388998193,0.05887650325894356,0.9668604135513306,1.4409651611292642,1.4077594072245074,-0.1734389066696167,0.9646376967430115,1.1858016322495935,1.3875894735627647,-0.269551545381546,0.9705584645271301,0.0006254017353057861,1.3170077530268336,1.3851361977314147,171.86471604972195,176.7343766375002,1.0,-0.00875729821337135,0.015622989119570324,-0.03918722010358915,-0.06788172945150739,95.20936884776543,0.9193787045527124,15,0.5
1.322260564778732,0.8996943541644012,-0.38357725739479065,0.9999537467956543,1.4167415601196933,1.04221566588257,-0.15672188997268677,0.9999929666519165,1.2253616029398506,1.0402898895542299,-0.19454245269298553,0.9999890923500061,1.3715805755968473,1.3870334106896733,0.01846122369170189,0.9999844431877136,1.2616324170464004,1.3832916811109572,-0.01858275569975376,0.9999855160713196,1.3700910710584746,1.6582711647968862,0.04371439665555954,0.9470999240875244,1.2759353626903278,1.6590726099384774,-0.04498063772916794,0.9385852813720703,1.3377468579601905,1.8996943541644014,0.23160596191883087,0.966484785079956,1.2781204392055687,1.9311627708130223,0.07398294657468796,0.96877521276474,1.4403801644341137,1.4033742792182828,-0.17820963263511658,0.9624975919723511,1.1817280731022062,1.3882151317923406,-0.27304399013519287,0.972075879573822,0.0007410347461700439,1.316606496321624,1.3851625459003154,172.68398112109605,177.4912199749006,1.0,-0.005310883986520167,-0.002166056231628234,0.02630002127846793,-0.1356999007702881,95.51246790082365,0.9154533716493326,16,0.5333333333333333
1.3184053256675996,0.9004584186447971,-0.34309571981430054,0.9999544620513916,1.416093359161366,1.0429001691554258,-0.12245543301105499,0.9999927878379822,1.221350772422705,1.0408136295372161,-0.1713707149028778,0.9999891519546509,1.3722837780690735,1.3878825994377195,0.020614659413695335,0.999984622001648,1.2611364014043374,1.3849036223319886,-0.0207419004291296,0.9999859929084778,1.36828447378897,1.6597294133258262,0.05107950419187546,0.9445347189903259,1.2743460108958913,1.663461156879256,-0.056315191090106964,0.9417805671691895,1.3375218110047757,1.9004584186447973,0.23106667399406433,0.9654346108436584,1.279026618416859,1.9383246171990391,0.0507461316883564,0.9705103039741516,1.4409958839673147,1.3946765646566852,-0.17632606625556946,0.9614702463150024,1.1799916352393909,1.3880835025094282,-0.24993817508220673,0.9732328653335571,0.0008022785186767578,1.3167100897367054,1.386393110884854,173.56051718649647,178.26057021926837,1.0,-0.0064592559800201715,0.001165857190942312,-0.008122626511467487,0.023663218693307127,95.70201948372116,0.9115870140237564,17,0.5666666666666667
1.316680894698384,0.9035280446461039,-0.3453466594219208,0.9999551177024841,1.416828278267383,1.0448444631322145,-0.12531444430351257,0.9999925494194031,1.2212556235402552,1.044782587497737,-0.17795398831367493,0.9999893307685852,1.3744154421708923,1.3902043650504057,0.02294205129146576,0.9999844431877136,1.2625966214816675,1.3881254368947717,-0.02307809703052044,0.9999862313270569,1.3682719757876063,1.6620967719396094,0.056676845997571945,0.9340535998344421,1.2760136191609819,1.6661518386146814,-0.10122678428888321,0.9436442255973816,1.333865396505587,1.903528044646104,0.2225678265094757,0.9627819657325745,1.2810969703763995,1.9445494941414565,-0.017503026872873306,0.9716318249702454,1.4430879248884143,1.3978572242636955,-0.18023331463336945,0.95998215675354,1.180314449334802,1.3903594811328226,-0.26441773772239685,0.974930465221405,2.3752450942993164e-05,1.31850603182628,1.3891649009725886,173.18373208924945,178.28322934958226,1.0,-0.0028399621907920823,0.00400275951535622,0.028818780142652725,0.02250806866297535,95.93618630107197,0.907755677549379,18,0.6
1.3153323091583728,0.9036972177684623,-0.34840887784957886,0.9999555349349976,1.4137327760628817,1.0458800771050927,-0.12860973179340363,0.9999926686286926,1.2181846757666248,1.0470293231686143,-0.17517203092575073,0.99998939037323,1.3737997367294694,1.391933752487186,0.022353079169988632,0.9999849200248718,1.2613147157541758,1.3909864010023911,-0.022485869005322456,0.9999867677688599,1.3675891488807896,1.6633505740949999,0.061024509370326996,0.9324653744697571,1.2747696693463773,1.6687883716177223,-0.10350628197193146,0.947575569152832,1.330654709952036,1.9036972177684623,0.24061445891857147,0.9629381895065308,1.2813459969895966,1.9458232981374137,-0.011860569007694721,0.9736554026603699,1.443259547594628,1.397678119162529,-0.17946484684944153,0.9607914090156555,1.1752416212196792,1.3916683387679212,-0.25724849104881287,0.9756410717964172,0.0004410743713378906,1.3175572262418225,1.3914600767447884,172.5744305156345,178.58697198858897,1.0,-0.009297462920894608,0.015273327230835732,-0.049128091282722657,0.08574698060688775,96.1000255108625,0.9144025796710012,19,0.6333333333333333
1.3102956829883203,0.9004115690119721,-0.3447718024253845,0.9999542832374573,1.4081455053941108,1.0453508287031237,-0.13066107034683228,0.9999927878379822,1.2137538530748457,1.047590994814755,-0.16388830542564392,0.9999881982803345,1.3731193727100235,1.3913356441304185,0.017889125272631645,0.9999856352806091,1.258867718742185,1.3912165804891172,-0.018039267510175705,0.9999873042106628,1.3671885441838654,1.6626563796922444,0.027251750230789185,0.9336522817611694,1.2723922307170845,1.6679835074348026,-0.08741255849599838,0.950272262096405,1.3302524257858628,1.900411569011972,0.20720002055168152,0.963498055934906,1.2807880802237466,1.9481806159734973,0.014606927521526814,0.9753873944282532,1.4415142163074344,1.3976044146997493,-0.1718370020389557,0.9614425897598267,1.1734196086795687,1.3951882144691663,-0.24484793841838837,0.9706025719642639,0.0008601546287536621,1.3159935457261043,1.3912761123097679,172.42172011699455,178.91870778272272,1.0,-0.00766296171383772,0.003564498042138386,0.012950966386216749,-0.09296028083620274,95.72099431280296,0.9207918966221003,20,0.6666666666666666
1.2981204194246603,0.8893127052652933,-0.3313801884651184,0.999956488609314,1.3938648367758244,1.03581310538866,-0.12325119972229004,0.999993085861206,1.2051307613655908,1.0411740871913222,-0.15064093470573425,0.9999879598617554,1.3626744275141665,1.381507965468169,0.014988514594733715,0.9999864101409912,1.2486128400749612,1.3828314474820624,-0.0151427136734128,0.9999879002571106,1.3588774415685236,1.652801716205548,0.0144323306158185,0.9363533854484558,1.2645457054621334,1.6581698740709023,-0.055768679827451706,0.952494740486145,1.3259576783600737,1.8893127052652932,0.1946018636226654,0.9640288949012756,1.2733166287968605,1.9372202541205839,0.06137234717607498,0.976771354675293,1.432610482622624,1.3835519859059042,-0.16237479448318481,0.9625968337059021,1.166776095192555,1.3865697903347387,-0.24094867706298828,0.9651495814323425,0.0020705759525299072,1.3056436337945638,1.3821697064751157,172.87781058664535,178.48847782829642,1.0,-0.02036606921202664,-0.0073920649863558185,-0.09819473312427567,-0.08423509853804688,95.82035301168118,0.9280427195768537,21,0.7
1.2933926273835112,0.8858729208979946,-0.3425449728965759,0.9999569654464722,1.3889287201999487,1.0333743936465996,-0.1309068650007248,0.9999932050704956,1.20116960271528,1.0393958711277187,-0.1631903350353241,0.9999870657920837,1.3573522814662906,1.3785986827835073,0.014294090680778027,0.9999870657920837,1.2437058483524934,1.3803365569479227,-0.014446889981627464,0.9999883770942688,1.3562469497466132,1.6482435470195018,0.021618526428937912,0.9378378987312317,1.2601735193638712,1.6553199808234575,-0.049544110894203186,0.9540913105010986,1.3260425088241674,1.8858729208979945,0.19955970346927643,0.964841902256012,1.2718669276122494,1.933003341105831,0.0687398761510849,0.9780945777893066,1.4296482164336561,1.3808293731390373,-0.16175761818885803,0.9626976847648621,1.1638625389446493,1.3842946458501766,-0.25090306997299194,0.9581825137138367,0.0023297667503356934,1.3005290649093921,1.379467619865715,172.9909960265742,178.9842091522759,1.0,-0.022941529778303736,-0.0022532306549114052,-0.021211920982178625,0.04163984411356902,96.10219484154524,0.9314512600570323,22,0.7333333333333333
1.2843209288665904,0.8778766178447345,-0.3674907088279724,0.9999594688415527,1.3781114876081855,1.0234428855471898,-0.15003885328769684,0.9999933838844299,1.192187724048348,1.034688109363582,-0.16800227761268616,0.9999876022338867,1.348037422735669,1.372183230620944,0.012328924611210823,0.9999874830245972,1.2331782870840033,1.3745972593160023,-0.012467536143958569,0.9999889135360718,1.3462391316183162,1.6419057346408747,0.03215862065553665,0.9390926957130432,1.2524261057397017,1.6534078352798462,-0.041754402220249176,0.9564456939697266,1.321772496083587,1.8778766178447344,0.23679490387439728,0.9649226069450378,1.2678394818909509,1.9238229098853104,0.0777740553021431,0.9794236421585083,1.4231071053662718,1.3753168211378186,-0.18664653599262238,0.963178813457489,1.155610304824607,1.3815116165833543,-0.2536088228225708,0.9613104462623596,0.004370570182800293,1.2906078549098363,1.3733902449684732,174.46243702240406,179.3130944626105,1.0,-0.030945999297015508,0.0010371884005604798,-0.06175013244496038,0.02498297427682916,96.13280544441332,0.9394756914225105,23,0.7666666666666667
1.2792441265677195,0.8724723106645249,-0.3813474774360657,0.9999627470970154,1.3722966831199799,1.0138744613547164,-0.15870341658592224,0.9999936819076538,1.1880138156767708,1.031183731179091,-0.18214866518974304,0.9999882578849792,1.3411523200303082,1.3660349400584528,0.012401700951159,0.9999878406524658,1.2284728980517077,1.369233769320272,-0.012537285685539246,0.9999893307685852,1.3391567018897677,1.6368077417691835,0.03755038604140282,0.9397372007369995,1.2458348370287229,1.6479155055309873,-0.04478246718645096,0.9585718512535095,1.3173856133406912,1.872472310664525,0.23541633784770966,0.9646371603012085,1.2648795898319027,1.9178884088190329,0.06987227499485016,0.9806122183799744,1.418623063233331,1.3720413638604456,-0.20177385210990906,0.965110182762146,1.1508564546963875,1.3789492022458005,-0.25925174355506897,0.9642650485038757,0.0067482590675354,1.284812609041008,1.3676343546893626,175.14416779262305,179.52979021273794,1.0,-0.013925747980363832,-0.011656878621882513,0.1301891867806323,-0.09762141229495232,96.68009395742428,0.9386013933593756,24,0.8
1.2729736715006976,0.8674251884896886,-0.38166218996047974,0.999965250492096,1.3664426543149102,1.0115216593361414,-0.16469211876392365,0.9999939203262329,1.183313109660606,1.02721917471095,-0.18293097615242004,0.9999889731407166,1.3347428766748972,1.3625440904918285,0.010459101758897305,0.9999884366989136,1.2225737522174416,1.3659873642909703,-0.010591826401650906,0.9999899864196777,1.3354954398166454,1.6354671996330836,0.042060982435941696,0.9418336153030396,1.2411884793168302,1.645993932059289,-0.03182568401098251,0.9608970284461975,1.313916522993557,1.8674251884896886,0.2520308494567871,0.964765191078186,1.2624307713215484,1.9135426360804304,0.08286739140748978,0.9818407893180847,1.4151850738694718,1.3692210674057261,-0.20463256537914276,0.965498149394989,1.145207927598362,1.380350734995963,-0.24624188244342804,0.9671579599380493,0.006134331226348877,1.2786583144461694,1.3642657273913994,174.52711623936395,179.2638725078582,1.0,-0.024498429198412545,-0.0011733272870003912,-0.08299485390938303,0.08182618333416657,96.91847742428018,0.9440749946812766,25,0.8333333333333334
1.2725282785851377,0.868369697920328,-0.3785339891910553,0.9999673366546631,1.3620413781943763,1.009069068862777,-0.16522586345672607,0.999994158744812,1.1800233487477811,1.0279452224180037,-0.17711684107780457,0.9999893307685852,1.3338329766905612,1.3629895251212758,0.006663470529019833,0.9999886751174927,1.2208678574604364,1.3669054589433376,-0.006799726746976376,0.9999902248382568,1.336065113925326,1.6367922530091377,0.02511170506477356,0.9451896548271179,1.2425486085588922,1.6474987873382465,-0.026725631207227707,0.9632160067558289,1.3187522349804544,1.868369697920328,0.23567156493663788,0.965751588344574,1.2642681343022415,1.9172695627815313,0.08879054337739944,0.9830440282821655,1.416000265621583,1.3695375551136162,-0.1992729753255844,0.9674067497253418,1.144249769775546,1.3837061767322363,-0.2289867103099823,0.9693406224250793,0.007370203733444214,1.2773504170754988,1.3649474920323066,175.25739905759417,179.81530966310999,1.0,-0.0184019748914433,-0.0036979036591132815,0.04693119656769658,-0.019360404134383582,96.54235500064968,0.9404175695751601,26,0.8666666666666667
1.273880272453309,0.8701342960072055,-0.35645660758018494,0.9999692440032959,1.3650691613600672,1.009635162807325,-0.14825138449668884,0.9999943375587463,1.1831413063015148,1.0308226571449992,-0.15092810988426208,0.9999896287918091,1.3369279672520564,1.3667567354585157,0.00453974399715662,0.9999887943267822,1.2232420216059416,1.3713596558439376,-0.004689832217991352,0.9999903440475464,1.339168620863075,1.6409228907448936,-0.0012121542822569609,0.9473779201507568,1.2448720101867106,1.6531594111931744,-0.02322317287325859,0.9644235372543335,1.3268777267712157,1.8701342960072056,0.1897881031036377,0.9657160043716431,1.269179020013866,1.9229781256363536,0.0963623970746994,0.9837503433227539,1.4179221809008058,1.36658350562503,-0.1765754520893097,0.9691094160079956,1.1469403299806238,1.3880453188236883,-0.20343637466430664,0.9713317155838013,0.00824517011642456,1.280084994428999,1.3690581956512267,176.46234957865633,179.24154453010792,1.0,-0.011892523909065483,-0.0034414492964758114,0.051227954245561015,0.002095537712747285,96.82412642704055,0.9453526190017385,27,0.9
1.2862294938923375,0.8785480540199676,-0.358661949634552,0.9999715089797974,1.3780232758903437,1.0182345702543627,-0.14855852723121643,0.9999946355819702,1.1910266652887116,1.0392831704025134,-0.15679731965065002,0.9999900460243225,1.348997723279789,1.3813644045717581,0.003933573141694069,0.9999892115592957,1.2319599782415105,1.3858271846210304,-0.004079143051058054,0.999990701675415,1.3528554304325522,1.6603879459453772,-0.001987889874726534,0.9511191844940186,1.2579279865785518,1.6736710829304156,-0.019964713603258133,0.9666808843612671,1.3464528897142867,1.8785480540199675,0.20145352184772491,0.9664287567138672,1.282031965052747,1.94332937686929,0.11251314729452133,0.9847608208656311,1.432887344121402,1.3837432337348174,-0.17525362968444824,0.9712720513343811,1.155994476215112,1.4052820342083554,-0.22204455733299255,0.9730560183525085,0.008109301328659058,1.2904788507606497,1.3835957945963941,177.52686566085006,179.95291169950767,1.0,-0.019464259771119406,0.005594145897709667,-0.05752480642538252,0.07001957915368008,96.75372192867832,0.9567799001165199,28,0.9333333333333333
1.2958881410646828,0.8853621107580463,-0.37748172879219055,0.9999732375144958,1.3877566575305185,1.0259045608807797,-0.15907859802246094,0.9999948143959045,1.1977830715429054,1.0465508683471163,-0.16220197081565857,0.9999904036521912,1.356489568167955,1.3921530440019743,0.004334417637437582,0.9999895095825195,1.2381936347475075,1.3961670885598483,-0.0044775791466236115,0.9999910593032837,1.3650650624204737,1.674199176445182,-0.008674531243741512,0.9543360471725464,1.2670487591929422,1.6886165683418246,-0.02680208906531334,0.9685966372489929,1.3584134353670323,1.8853621107580463,0.20606692135334015,0.9660968780517578,1.2916065506875414,1.9660449830794609,0.09961153566837311,0.9856312870979309,1.4447309021344201,1.3994211253025477,-0.17768901586532593,0.972332239151001,1.1604203329523164,1.421675045690482,-0.223933607339859,0.9742984771728516,0.007895290851593018,1.2973416014577313,1.3941600662809113,176.45426337778676,179.4236355193259,1.0,-0.020820687747771766,0.0016545817359250956,-0.009055558145698778,-0.029773673705417125,96.82300829299494,0.9559135851136206,29,0.9666666666666667
1.2993077939060498,0.8872999073455661,-0.37989282608032227,0.9999750256538391,1.388504477464605,1.0285561371535534,-0.15850961208343506,0.9999949932098389,1.1972581191337341,1.0505634395475114,-0.17022188007831573,0.9999907612800598,1.3569904115468792,1.3961358165304756,0.005098103079944849,0.9999899864196777,1.238452792784575,1.4003126071883096,-0.005239625461399555,0.9999914765357971,1.3718016882724977,1.6789228656523203,-0.0153782544657588,0.9576656818389893,1.266780808224065,1.6964898776749047,-0.021614493802189827,0.9702125787734985,1.3657500979338,1.887299907345566,0.20652644336223602,0.9666106700897217,1.2941933691163965,1.9720688741705303,0.12200722843408585,0.9863812923431396,1.44688036332034,1.4024413787329646,-0.17609092593193054,0.9721337556838989,1.1584174491478354,1.4360025265983203,-0.22876529395580292,0.975130021572113,0.008398115634918213,1.2977216021657272,1.3982242118593926,175.33832119106944,179.78278911929985,1.0,-0.01741854838782745,0.008455735642368721,0.025613671387837395,0.050528543552209586,96.91825092030336,0.9595942820785068,30,1.0
1.2966743389769588,0.886403942300732,-0.3772067427635193,0.9999759197235107,1.386078204523387,1.0277252302005098,-0.15836498141288757,0.9999949932098389,1.1944259058879911,1.0497838243112705,-0.1667686402797699,0.9999909996986389,1.353783207156746,1.3958392615112736,0.004945146385580301,0.9999901056289673,1.2350225364364538,1.3999332923977046,-0.005091788712888956,0.9999917149543762,1.370087412543775,1.6766367699292861,-0.01722516492009163,0.9602145552635193,1.260866428166708,1.695808341383175,-0.02520102821290493,0.9715521335601807,1.3623798451934332,1.8864039423007322,0.1982908546924591,0.9671936631202698,1.2906816531004994,1.9690897001964411,0.11570857465267181,0.9869583249092102,1.444599617102107,1.4029062736347093,-0.1826602816581726,0.9714760184288025,1.1543508769959239,1.433517980475702,-0.22617943584918976,0.9764907956123352,0.008427917957305908,1.2944028717965999,1.397886276954489,174.5726159837375,178.76557167523669,1.0,-0.013241822029354585,0.010321441667686958,0.031558550684773215,0.01424657581338226,96.98814961606989,0.9635501188634679,31,1.0333333333333334
1.2947816022610945,0.8854574004348295,-0.35428136587142944,0.9999760389328003,1.3848412192960426,1.0289548640594925,-0.14639368653297424,0.9999950528144836,1.1931115974758042,1.0499347116829425,-0.14836513996124268,0.9999910593032837,1.350904853138495,1.3993407816379502,0.004027489572763443,0.9999905228614807,1.2326742058821902,1.4031556110822059,-0.004197021014988422,0.9999920129776001,1.373807700210947,1.6776361584988542,-0.08818498998880386,0.9636730551719666,1.257721121754354,1.702272183046981,-0.02049029991030693,0.9728537797927856,1.3623677314489737,1.8854574004348295,0.14455929398536682,0.9686850905418396,1.2894555997754864,1.966674243441382,0.14444740116596222,0.9876471757888794,1.4411658248446573,1.4093051884594785,-0.17438165843486786,0.9704870581626892,1.1509688596117673,1.4362854676240158,-0.22809693217277527,0.9767233729362488,0.008023858070373535,1.2917895295103428,1.401248196360078,172.14454710353235,177.9424657023274,1.0,-0.009958699138117371,0.0363567315637815,0.02490927369372316,0.19841801699780795,97.08313542931452,0.9807409921571909,32,1.0666666666666667
1.2851312726545498,0.877715041141646,-0.35077646374702454,0.9999765753746033,1.376744455517033,1.0228742501798112,-0.14770087599754333,0.9999951720237732,1.1844588259004387,1.0428132746928493,-0.15093155205249786,0.9999912977218628,1.3433142056216356,1.39112966376423,0.003150329692289233,0.9999907612800598,1.2254627573492565,1.3953021518017295,-0.003322451841086149,0.9999922513961792,1.3695625401506124,1.668159013387436,-0.07805861532688141,0.9666032791137695,1.2503819681595865,1.6919198107749178,-0.01888611912727356,0.9738298654556274,1.3565098636315966,1.8777150411416461,0.14553536474704742,0.9692654609680176,1.2817123419980943,1.9544978057840428,0.14157263934612274,0.9880321025848389,1.4321871939084618,1.410096631012174,-0.17574429512023926,0.969917893409729,1.144475128578778,1.4257353671301507,-0.22949668765068054,0.9775785207748413,0.007671952247619629,1.284388481485446,1.3932159077829798,171.02322981026995,177.99794236982902,1.0,0.002964408823886571,0.0031827479257188246,0.1025752342377004,-0.26279568202555886,97.21478617433262,0.9836973360685233,33,1.1
1.2797422879620168,0.8732919413758041,-0.34681838750839233,0.9999768733978271,1.371276724033308,1.0190269631520639,-0.14547064900398254,0.9999951720237732,1.1789629810912363,1.036753422713894,-0.15141013264656067,0.9999915361404419,1.3384346877699658,1.3857206773512778,0.0034534442238509655,0.9999908804893494,1.2211440157276374,1.3900798641600236,-0.0036231386475265026,0.9999924302101135,1.3663797755952354,1.6617403740861234,-0.06578381359577179,0.9689952731132507,1.2471559392222886,1.6841989045247818,-0.021169988438487053,0.9745122790336609,1.3520393626081917,1.873291941375804,0.15356001257896423,0.9694389700889587,1.2768897595603719,1.9464994302581418,0.1362825334072113,0.9882391691207886,1.4257535973128275,1.4073491877600515,-0.16963018476963043,0.9693059325218201,1.1401704619495843,1.4196690983728042,-0.2307293862104416,0.978722870349884,0.0068472325801849365,1.2797893517488015,1.3879002707556507,170.34092930743932,178.58677764094105,1.0,0.0027443832562822684,0.0006912219723353492,-0.0014582357638954302,-0.017338653534751638,97.24635940593294,0.9836755505457268,34,1.1333333333333333
1.2550332904953163,0.8558165846974776,-0.3514876961708069,0.9999772906303406,1.3434982087616505,0.999059596083998,-0.14631955325603485,0.9999951720237732,1.1560644591622167,1.0126988192866093,-0.1538260281085968,0.9999918937683105,1.3111605995950613,1.354639926141489,0.003403004724532366,0.999991238117218,1.1952743322610213,1.360138463526308,-0.003573065157979727,0.9999927282333374,1.3390233658335393,1.6282931536537237,-0.06459983438253403,0.971275269985199,1.2232835567073168,1.6512544115239611,-0.01881510578095913,0.975189745426178,1.3252275473364123,1.8558165846974775,0.13601478934288025,0.970801830291748,1.2520120604097744,1.9083850955170776,0.1343865543603897,0.9886119365692139,1.3921376150370215,1.378907203897967,-0.171854168176651,0.9671655297279358,1.117826082088615,1.391758155134949,-0.23072102665901184,0.9798539876937866,0.005373179912567139,1.2532174659280413,1.3573891948338985,170.71644011823997,179.12063856073345,1.0,-0.012424370315998417,-0.026415653406224312,-0.1154416247464163,-0.2069237404791953,97.91288246150685,0.9537347401283528,35,1.1666666666666667
1.233585378847986,0.8425747456918,-0.3527463972568512,0.9999772906303406,1.3225429434827143,0.9836714303949107,-0.14876818656921387,0.9999951720237732,1.1386415905036626,0.9957735322867937,-0.1535152643918991,0.9999920725822449,1.2908864001915996,1.333307466980558,0.0022413688711822033,0.9999911189079285,1.17617034199737,1.3385730322569307,-0.0024165690410882235,0.9999926686286926,1.3189057668909394,1.5999634495030457,-0.07728923857212067,0.9733312726020813,1.2095056910196145,1.6248956843752882,-0.019525200128555298,0.9755674600601196,1.31249974865948,1.8425747456918,0.10326613485813141,0.9723091721534729,1.2342087033376086,1.8781067736232906,0.1303694248199463,0.9888551235198975,1.368446733459448,1.358237169829784,-0.1715010404586792,0.9675412178039551,1.0997381739258525,1.3680627596161394,-0.2293519526720047,0.9810754060745239,0.004843086004257202,1.2335283710944849,1.3359402496187445,172.4890405681846,178.93127343821857,1.0,-0.001330928125638776,-0.0024428082942503926,0.08856521404490143,0.19144361660511183,97.80161557951124,0.9381121663963751,36,1.2
1.187189889594171,0.8103098687846354,-0.25774917006492615,0.9999405145645142,1.271676862555254,0.9432961662101436,-0.07356361299753189,0.9999891519546509,1.0967565975491438,0.9562386735584392,-0.08960097283124924,0.9999918341636658,1.2422626010829791,1.283637326731793,0.0024492978118360043,0.9999908804893494,1.1328464869425612,1.2889765098313297,-0.0026158953551203012,0.9999929070472717,1.2716206515713409,1.5460963049021428,-0.05996719002723694,0.9738640189170837,1.1644754898600833,1.5682703908929028,-0.026715105399489403,0.9742920994758606,1.2652184786153056,1.8103098687846353,0.08900954574346542,0.9735545516014099,1.1884862554106657,1.8150440668302712,0.09782016277313232,0.9885973334312439,1.3076914693809307,1.2956041003044858,-0.12874430418014526,0.9038205742835999,1.059117034423205,1.3120955712914444,-0.15195509791374207,0.9822281002998352,0.005379766225814819,1.1875545440127702,1.2863069182815614,172.22949307081512,179.0963040804215,1.0,-0.00025394344089515596,0.000946238319742958,0.007971452193801864,0.025588842199461784,97.73320897030368,0.9017875912808532,37,1.2333333333333334
1.1759456156978256,0.8014813590024195,-0.23965582251548767,0.9999170303344727,1.258733830396298,0.9309448685124135,-0.06205936521291733,0.9999859929084778,1.0867856566538139,0.9425817131058026,-0.0751548781991005,0.9999913573265076,1.2307437818832254,1.271345212160883,0.0027518479619175196,0.9999904632568359,1.1225757668736058,1.2769975419588644,-0.002940358128398657,0.9999927878379822,1.2593633980287942,1.5353908774059086,-0.05802115052938461,0.9743951559066772,1.154575189580542,1.5539179505187115,-0.03805489093065262,0.9718936681747437,1.2546566981336842,1.8168766456545629,0.05165889859199524,0.975144624710083,1.1805819295907014,1.8014813590024195,0.07911581546068192,0.9876297116279602,1.2953105450305635,1.2730735400906168,-0.12074659764766693,0.863800048828125,1.0495343443916774,1.297954672266864,-0.15399308502674103,0.9828890562057495,0.004882842302322388,1.1766597743784155,1.2741713770598737,172.85597505727503,179.40541814813082,1.0,0.00191077916522588,-0.0005594020731820075,0.01697988129877727,-0.011753420869084895,97.6919521039808,0.880939305118116,38,1.2666666666666666
1.170743115206664,0.7960691707354058,-0.2452538013458252,0.999907374382019,1.2534652417733574,0.9271870616639611,-0.05321524664759636,0.9999837279319763,1.0825164498904283,0.935747327759222,-0.08228323608636856,0.9999907612800598,1.225488121393939,1.2659310306975975,0.005979657173156738,0.9999896883964539,1.1179622222586865,1.271640609572481,-0.006194672081619501,0.9999922513961792,1.2485790768823377,1.5336342191670294,-0.05034961178898811,0.9739658832550049,1.1499789655283628,1.5489104511476872,-0.037373729050159454,0.9677108526229858,1.2506147667366212,1.8196673865821855,0.03730578348040581,0.976585328578949,1.1763146332589653,1.796069170735406,0.07247196137905121,0.9860783815383911,1.2905308947869025,1.2594967739599183,-0.1146509051322937,0.8469984531402588,1.045245261656379,1.2924268263494738,-0.15886889398097992,0.9835980534553528,0.0036070048809051514,1.1717251718263126,1.2687858201350393,175.47787371261597,179.4952734793765,1.0,-6.359931433397475e-05,-0.0003837158631483144,-0.014734919306092104,0.0012989427434588203,97.76091257513505,0.8742725276437779,39,1.3
1.1696416085655297,0.7939245371252965,-0.2377764731645584,0.999901533126831,1.2505330807828876,0.9234893786714347,-0.04173357039690018,0.999981701374054,1.080096384222869,0.9298985541378795,-0.07868339121341705,0.9999900460243225,1.2235329677532516,1.262744232560522,0.008646839298307896,0.9999886751174927,1.1155343500732435,1.2685273705990585,-0.008869202807545662,0.9999915361404419,1.241718744730399,1.5337513407276258,-0.0490637831389904,0.9730225801467896,1.1468010143598437,1.5457848341886284,-0.03914318233728409,0.9624822735786438,1.248611859193578,1.8203863130000872,0.02784082293510437,0.9776868224143982,1.1737198476512907,1.7939245371252965,0.06644642353057861,0.9839136004447937,1.287439726346926,1.2473904053502387,-0.10589555650949478,0.822941243648529,1.0445125805089213,1.2877291443035674,-0.15317784249782562,0.9836944341659546,0.0027072131633758545,1.1695336589132477,1.2656358015797902,177.53856169322268,179.7572494192906,1.0,0.004982704629357821,-0.00040789142074277673,0.03769066885677048,-0.00018756414219047742,97.61554227961645,0.8685213088136592,40,1.3333333333333333
1.1708603321147906,0.7912294246695761,-0.19348977506160736,0.9998846054077148,1.2493243227051394,0.9226272848027902,-0.013460325077176094,0.9999760985374451,1.0790190376562254,0.9246327139031573,-0.04454592987895012,0.9999894499778748,1.2224672338977498,1.261434004798144,0.008420675992965698,0.9999871850013733,1.1146340995825623,1.2673309657903524,-0.008635967038571835,0.9999908208847046,1.235742550070179,1.5353962147975055,-0.044007934629917145,0.9701615571975708,1.1439505931285807,1.5448567541580602,-0.037536486983299255,0.9544364213943481,1.2477138051870083,1.819965145158728,0.03217839449644089,0.9776908159255981,1.1724325073340218,1.7912294246695761,0.07535882294178009,0.9796104431152344,1.2862784048419558,1.2428076824998278,-0.10498694330453873,0.7774354219436646,1.045191896862599,1.2799162615469173,-0.13586094975471497,0.9840903878211975,0.0008479654788970947,1.1685506667401562,1.2643824852942482,179.6347035303312,179.43568233938626,1.0,0.0018324162354865798,0.00047110440415332227,-0.025085995870027838,0.007007638411521573,97.66249699848436,0.8716876016966757,41,1.3666666666666667
1.1733731616252738,0.7929053473609641,-0.19452239573001862,0.9998765587806702,1.2511208145631276,0.9240256397863328,-0.012899783439934254,0.9999725818634033,1.081064709449741,0.9243420976037757,-0.04988345876336098,0.999988853931427,1.2249025842643908,1.2628117612235805,0.008764734491705894,0.99998539686203,1.1179200854048033,1.2682652784387798,-0.008979287929832935,0.9999897480010986,1.2354871633490339,1.5386293389912369,-0.04062478989362717,0.9667009115219116,1.1452362161805552,1.5465813559423687,-0.036338068544864655,0.9446306824684143,1.2487195453450184,1.8248024608211464,0.017865801230072975,0.9775805473327637,1.1740951229158147,1.792905347360964,0.06626521795988083,0.9744362831115723,1.2878894733147033,1.2459060695339321,-0.0811624601483345,0.7555572986602783,1.0509635382030205,1.279801841664547,-0.14281538128852844,0.9847081899642944,0.00013366341590881348,1.171411334834597,1.2655385198311802,179.55024522054472,178.92329030013389,1.0,0.012028899412861003,-0.0017090385982419152,0.07740570181786326,-0.01655751994618814,97.3433994878543,0.8675619186808127,42,1.4
1.1743175506613066,0.7932042062941403,-0.19449873268604279,0.9998781681060791,1.2518915923449732,0.9242365119085856,-0.012447849847376347,0.9999711513519287,1.08151358723288,0.9254033429111859,-0.04056356102228165,0.999988317489624,1.2269104131674264,1.2642854224040445,0.00846706610172987,0.9999842643737793,1.119777993692916,1.269053387617476,-0.008684438653290272,0.999988853931427,1.2323393920607923,1.542611986451972,-0.035646602511405945,0.9638829827308655,1.1455014899626632,1.5484385898459518,-0.01711316779255867,0.9362614154815674,1.2488405971086334,1.8247499302533878,0.047911591827869415,0.9768071174621582,1.1741483097041763,1.7932042062941405,0.10471601784229279,0.9691278338432312,1.2883386699284014,1.2426437526549763,-0.09230448305606842,0.7453070282936096,1.0545965822783827,1.2795250130441869,-0.13891610503196716,0.9850518107414246,0.0004927217960357666,1.173344203430171,1.2666694050107603,177.77025239371764,178.58509300019475,1.0,0.013201521683158388,0.006627356953013703,0.00932955805621609,0.06649047726485116,96.74988695790884,0.8709021658575821,43,1.4333333333333333
1.1783066940506737,0.7940495930570934,-0.20390844345092773,0.9998776912689209,1.255052842936345,0.9250103975372755,-0.02430708520114422,0.9999699592590332,1.0841144345643023,0.9263138239115885,-0.04320452734827995,0.9999877214431763,1.230439299745904,1.2671630694730636,0.006308472249656916,0.999983012676239,1.1228030898888903,1.2725368077056962,-0.006521156523376703,0.9999878406524658,1.2309849365126975,1.5478429727161136,-0.03686977177858353,0.9610183238983154,1.1468923952175778,1.5521464832029541,-0.006318909581750631,0.9267604947090149,1.2488567652638283,1.8317577124160895,0.0499534048140049,0.9761025309562683,1.1746339215866433,1.7940495930570934,0.11978058516979218,0.9638146758079529,1.2894172244800932,1.2435018128686235,-0.11523506790399551,0.7340570688247681,1.0571786511246113,1.279482482665651,-0.1520368754863739,0.9851608276367188,0.0005500316619873047,1.176621194817397,1.26984993858938,176.50948684292993,178.38194499872242,1.0,0.018697252655475498,0.017498748270358522,0.0412645476416775,0.08172633196683406,96.97273538475116,0.8743318248676443,44,1.4666666666666666
1.180259334448527,0.7944230285723691,-0.19562426209449768,0.9998741745948792,1.2571896116736885,0.9253882037434648,-0.019034840166568756,0.9999682307243347,1.0860744272022478,0.926719004331142,-0.03412042185664177,0.9999871253967285,1.2323568077147156,1.2687156813564078,0.0046213786117732525,0.9999813437461853,1.1246394571000486,1.2744941166929429,-0.004827192053198814,0.9999867081642151,1.2298906091524577,1.5491153227933192,-0.03712736442685127,0.9574084877967834,1.1477033234480523,1.5552336993352849,-0.0062597342766821384,0.9181950688362122,1.2490037539766656,1.832433004843597,0.055566318333148956,0.9745972156524658,1.1749595860629474,1.7944230285723692,0.12206445634365082,0.958162248134613,1.2902267821816835,1.2443049074808188,-0.11654802411794662,0.7196135520935059,1.0585286635358448,1.2790649554032036,-0.15256822109222412,0.9852216839790344,0.0005614161491394043,1.178498132407382,1.2716048990246753,175.636646038534,178.1955626398573,1.0,0.011026707390127,0.009945237442028892,-0.055442666573754316,-0.05459477858215903,97.20764322244591,0.8790220391601168,45,1.5
1.1865262385016757,0.7970219222228442,-0.2471267282962799,0.9998816847801208,1.2596449423435894,0.9267413274790856,-0.05191149562597275,0.9999696612358093,1.088486811914717,0.9290059471120775,-0.08540703356266022,0.9999867081642151,1.2351931642071075,1.271564216504798,0.004908593371510506,0.9999809265136719,1.1276152047310828,1.2782825715713706,-0.005114938132464886,0.999985933303833,1.2312327157610465,1.5533542842905397,-0.035208526998758316,0.9589029550552368,1.1496332403110079,1.558555769487012,-0.011538198217749596,0.9194924831390381,1.2509104155873876,1.836507808348771,0.05890728905797005,0.9756991267204285,1.1768907606731602,1.797021922222844,0.11636408418416977,0.9588963389396667,1.2929690930333881,1.2471786722831517,-0.14288876950740814,0.7381839752197266,1.06141921871861,1.28314326346245,-0.19407296180725098,0.9853360056877136,0.0009537637233734131,1.1814041844690952,1.2749233940380844,175.21941568714908,177.97107587984064,1.0,0.007331500010263519,0.009347120530182808,-0.029172872839791995,-0.0048293139431868715,97.62965843242435,0.8804597711190959,46,1.5333333333333334
1.185273025876329,0.7921831335851542,-0.2509803771972656,0.9998884201049805,1.2573132139099852,0.9238893345615974,-0.05825623869895935,0.9999710917472839,1.0866787898112231,0.9269846250325786,-0.08701711893081665,0.9999865889549255,1.235782881806539,1.2687303394995664,0.004943509586155415,0.9999804496765137,1.127839258027984,1.2759277243782126,-0.005149515345692635,0.9999852180480957,1.2284746962703441,1.549321077792577,-0.037341129034757614,0.9597405791282654,1.1486240499108267,1.5564133079070526,-0.01356342900544405,0.9182762503623962,1.2476374229856035,1.837545063933038,0.054768554866313934,0.9765148758888245,1.1736450261690687,1.7921831335851544,0.12055853754281998,0.9582327008247375,1.2896605131368999,1.244410512625241,-0.1372307538986206,0.7535728812217712,1.0588061433812732,1.2823036317703171,-0.194840669631958,0.9855897426605225,0.0013071000576019287,1.1818110699172615,1.2723290319388894,174.7042852373764,178.18021958179216,1.0,0.02638184404337362,0.006011430071082242,0.14118795229069864,-0.02451153751975767,97.38733407344934,0.8837765673101244,47,1.5666666666666667
1.1865414898979447,0.7835803416432757,-0.26239147782325745,0.9998692274093628,1.2557495409594073,0.9185407003108805,-0.06531772017478943,0.9999638795852661,1.0846525736104065,0.9226668478772259,-0.08514831960201263,0.9999866485595703,1.2319359998785684,1.2650387840021902,0.0041190083138644695,0.999980092048645,1.124876820271896,1.2713242793173374,-0.004326691385358572,0.9999855756759644,1.2233705684021958,1.548165900140848,-0.037492819130420685,0.9567626714706421,1.1470699369925546,1.5530417197256852,-0.010324492119252682,0.912797212600708,1.2422457469570223,1.8310456554335093,0.08441539853811264,0.9755411148071289,1.1687080378150083,1.7835803416432756,0.14874041080474854,0.9550895690917969,1.2823956448187777,1.23489660000409,-0.24840238690376282,0.6960508227348328,1.0540957791033914,1.280663837804931,-0.18747112154960632,0.9859437346458435,0.001749873161315918,1.178406410075232,1.2681815316597638,174.4497542658219,179.14233036839914,1.0,0.012673100966601403,0.009897540857892566,-0.10565908132072813,0.03039857222635733,97.29155179715247,0.8978469409787847,48,1.6
1.186943253977943,0.7728057519429815,-0.29527172446250916,0.9998536705970764,1.2628632821466357,0.914576116230978,-0.08795864880084991,0.9999591708183289,1.084733868326752,0.9188184204390087,-0.10993219912052155,0.9999867081642151,1.2311021434833347,1.259777486635367,0.004104902036488056,0.9999800324440002,1.1240867859349346,1.2658890519811867,-0.004312918055802584,0.9999859929084778,1.2226039628280154,1.5411073394122508,-0.039518628269433975,0.9558669924736023,1.14700512100176,1.5456144422058022,-0.009630722925066948,0.9090428352355957,1.2365514675053657,1.8306804386183937,0.08386195451021194,0.9758681654930115,1.1634883257404582,1.7728057519429814,0.16275353729724884,0.953709065914154,1.2885460165023037,1.2351974617394028,-0.19775807857513428,0.6377619504928589,1.0493717487403529,1.279532790355147,-0.19016984105110168,0.9854057431221008,0.001807183027267456,1.1775944647091348,1.2628332693082769,175.512219491826,179.46578766399634,1.0,0.03345672479508739,0.0022608212350590895,0.1571682069166702,-0.05726092969808082,98.52541279186673,0.9086692029273196,49,1.6333333333333333
1.1874452736556051,0.764080913647625,-0.3418664336204529,0.9998534321784973,1.2648798651053357,0.9127226334109471,-0.13125985860824585,0.9999601244926453,1.0838787808464472,0.9158758331461617,-0.1479889154434204,0.9999868273735046,1.23173064914466,1.255884749046959,0.004123681224882603,0.9999802708625793,1.123773775996953,1.2615998233276533,-0.0043334634974598885,0.9999862313270569,1.2208670012721161,1.5324179740264594,-0.05785517022013664,0.9582711458206177,1.1430384254683759,1.540713541228301,-0.01949867606163025,0.9119651317596436,1.2323893351991688,1.823896664249532,0.08149825036525726,0.9771803617477417,1.1587296019830593,1.764080913647625,0.15332411229610443,0.9551920294761658,1.302129586544451,1.2649440183098823,-0.18181315064430237,0.6236256957054138,1.0456812655418983,1.2812707299400425,-0.2339901179075241,0.9849818348884583,0.0013476312160491943,1.1777522125708064,1.258742286187306,175.48652473324796,179.93000871438184,1.0,0.030472085449703094,0.0002220614147259982,-0.021906707946127275,-0.015475983019917091,98.54793518495546,0.9238371255421999,50,1.6666666666666667
1.1933644506665735,0.7638207424921111,-0.365811288356781,0.9998664855957031,1.2742590654819674,0.9183867437388854,-0.1516953557729721,0.9999635219573975,1.0907623569339766,0.9200081662528132,-0.17148716747760773,0.9999873638153076,1.2403983714806568,1.2639353485855438,0.00424017570912838,0.9999808073043823,1.1310505805857207,1.2677984312927897,-0.004451334476470947,0.9999860525131226,1.23064450057674,1.5388502758699898,-0.07367552816867828,0.9612966775894165,1.1476475725799515,1.5535594692943504,-0.013712984509766102,0.9134006500244141,1.2371604256445814,1.8328244589490073,0.07918796688318253,0.9784632325172424,1.1602299568640162,1.763820742492111,0.21759700775146484,0.9536382555961609,1.316736457986526,1.2934867134968744,-0.17409972846508026,0.6535211801528931,1.0490616263035086,1.2941258480588458,-0.2612704634666443,0.9852158427238464,0.0006904304027557373,1.1857244760331889,1.2658668899391667,176.6982705827896,179.8994120209388,1.0,0.02736116926644031,0.01873999308457348,-0.024250733258776518,0.1393236847786277,97.61993658578467,0.9427134301856372,51,1.7
1.200183127224982,0.7663945372293894,-0.4042495787143707,0.9998791813850403,1.2865235924291571,0.9232036915658903,-0.18522898852825165,0.9999668598175049,1.0983344266739201,0.9242540999920487,-0.19317935407161713,0.9999878406524658,1.2501820340015681,1.2721977959631723,0.0041262004524469376,0.9999811053276062,1.1385350286006226,1.2736968126596817,-0.004332137759774923,0.9999854564666748,1.2407363024906302,1.5506199350098013,-0.06167914718389511,0.9638775587081909,1.150834038069906,1.5611844805019912,-0.009979793801903725,0.9162549376487732,1.2429251396461092,1.8417576332830918,0.10078413784503937,0.9796390533447266,1.1569267022174017,1.7663945372293894,0.21297654509544373,0.9533548951148987,1.3338179136924369,1.30826123272997,-0.2221425324678421,0.6863488554954529,1.052530615352611,1.3005415990490996,-0.28489622473716736,0.9856365323066711,0.00044527649879455566,1.1943585313010954,1.272947304311427,177.62617818766296,179.2509289527842,1.0,0.02414343909601528,0.010102407437329448,-0.024500603259314385,-0.0639613597133496,96.71414455840466,0.9537351257779026,52,1.7333333333333334
1.2172587873499376,0.7753553260725172,-0.40625500679016113,0.9998906254768372,1.3064422572076806,0.9361057375505893,-0.1786026507616043,0.9999697804450989,1.1127389858317351,0.9335454295460055,-0.19377902150154114,0.9999884366989136,1.2662352860651283,1.2892978172986895,0.004271229729056358,0.9999813437461853,1.1518191144029515,1.289525829848762,-0.004473166074603796,0.9999850988388062,1.2573304293480583,1.57452872371752,-0.038896262645721436,0.9661685228347778,1.1599337455802134,1.582206378224631,-0.009367789141833782,0.9198435544967651,1.2564795047067037,1.8610304731523397,0.13200850784778595,0.98072350025177,1.167998907700477,1.7753553260725172,0.23119226098060608,0.952994167804718,1.359794777332738,1.3236394356803107,-0.23140981793403625,0.7162551283836365,1.063629219182821,1.3166891753245216,-0.28291818499565125,0.9866337180137634,0.0010735392570495605,1.2090272002340399,1.2894118235737257,178.3819879151796,179.19706714723978,1.0,0.011954510813318015,0.019166472806267588,-0.09633721732560235,0.06925475933536812,96.60870657667485,0.9722560419184583,53,1.7666666666666666
1.2295137906885072,0.7813230343224852,-0.3706650733947754,0.999900758266449,1.3226535491967197,0.9458319498068182,-0.15274006128311157,0.9999724626541138,1.124770134858761,0.9425729151065738,-0.16919803619384766,0.9999887943267822,1.2800465539479178,1.304706683647653,0.004770937841385603,0.9999819397926331,1.1625684500266635,1.3047089800564788,-0.004979278892278671,0.999984860420227,1.2726501081716202,1.5920225914959245,-0.06774652004241943,0.9687238931655884,1.1670879261210834,1.6013963887966538,-0.018193889409303665,0.9239623546600342,1.268565370973005,1.877493908954997,0.1089140996336937,0.9819319844245911,1.1788037016100912,1.781323034322485,0.2399413287639618,0.9523330330848694,1.381943667512726,1.3372145034579253,-0.2058102786540985,0.7435834407806396,1.0732343432819744,1.3287117627298732,-0.258658230304718,0.9874378442764282,0.001353442668914795,1.2213075019872908,1.304707831852066,179.3451209567406,177.14721793840968,1.0,0.004548132393901886,0.021466252338244438,-0.056829553532746976,0.015976701205356183,96.77180331872152,0.9975999925286593,54,1.8
1.2262792494221895,0.7758494660875476,-0.351525217294693,0.9999101161956787,1.3225392260748021,0.9401699562566012,-0.14103633165359497,0.9999749064445496,1.1235617774502291,0.9383527111680627,-0.15997430682182312,0.9999890923500061,1.2795507203935472,1.3038272178728432,0.001642146147787571,0.9999825954437256,1.160930204836932,1.3052506119090013,-0.0018605440855026245,0.9999847412109375,1.2703742344332127,1.5897425941961627,-0.08492237329483032,0.9713107347488403,1.1602249549986847,1.6054343135530036,-0.014864640310406685,0.9288517236709595,1.265013189497229,1.8744042089482271,0.10591399669647217,0.9832485914230347,1.1773405698390038,1.7758494660875475,0.26106613874435425,0.9529179334640503,1.389930020877401,1.3284143261493602,-0.19616279006004333,0.7684857845306396,1.0713091041629297,1.3256066509680227,-0.2563800513744354,0.9882188439369202,0.0007560253143310547,1.2202404626152397,1.3045389148909223,179.2406430159266,174.13013122904533,1.0,0.008257838905462486,0.016098544744383277,0.027861880872848407,-0.03994107528153895,97.42922996308575,1.0156221767137505,55,1.8333333333333333
1.2261407135404259,0.7740893711338862,-0.3505444824695587,0.9999182224273682,1.3225023527805504,0.9372622416579621,-0.13739600777626038,0.9999770522117615,1.1235182926628347,0.9365697670170611,-0.15461046993732452,0.9999893307685852,1.280007031479337,1.304285978917883,0.0018761514220386744,0.9999830722808838,1.1606693744834378,1.3060621867585553,-0.002104136161506176,0.9999845027923584,1.2707089458955745,1.5887591745547553,-0.11124563217163086,0.9736748337745667,1.1574760542168891,1.6064510527806506,-0.022267809137701988,0.9333027005195618,1.2640233098984117,1.8736088723859565,0.06740926206111908,0.9843847751617432,1.17703260683787,1.7740893711338863,0.241520956158638,0.9534470438957214,1.3911161527894043,1.3284011736897172,-0.18175862729549408,0.7907179594039917,1.0712585560052028,1.325589871345991,-0.25133347511291504,0.9888896346092224,0.0002880990505218506,1.2203382029813874,1.305174082838219,179.4724660207779,172.73693005611707,1.0,0.0011564536101030386,0.005613009322906242,-0.05856522080087874,-0.08647323143728547,97.45722290596612,1.023982016815982,56,1.8666666666666667
1.2193429071640074,0.7669253074986169,-0.3475285470485687,0.9999244213104248,1.316919484052668,0.926719737718267,-0.13839542865753174,0.9999790191650391,1.1188456262214446,0.9320877859172968,-0.15173037350177765,0.9999891519546509,1.2751935315699912,1.2979652723041901,0.0010170531459152699,0.9999836683273315,1.155852377854825,1.2997689011449736,-0.001254872651770711,0.9999842047691345,1.2676984643922298,1.5720035234342735,-0.1837168037891388,0.9760603904724121,1.150457671531133,1.5946810341128483,-0.03370481729507446,0.9378942251205444,1.2577478560523994,1.8641554713234847,-0.007232191972434521,0.9855165481567383,1.171271893341271,1.7669253074986169,0.2225024700164795,0.9553666710853577,1.3915216044142433,1.319864707878987,-0.17802439630031586,0.8105126023292542,1.066149712883444,1.3193383881129284,-0.24562020599842072,0.9888893961906433,0.0022444427013397217,1.215522954712408,1.2988670867245817,179.6159512001666,172.06174144671482,1.0,0.009314759821965743,0.0011489045369286533,0.062189173365992514,-0.033793592807652165,97.27867460225126,1.0295713114875944,57,1.9
1.2146314385713195,0.7625658573485881,-0.3327938914299011,0.9999302625656128,1.3138571852209628,0.9188959937778457,-0.12681975960731506,0.9999808073043823,1.1160617172364684,0.9289780146994845,-0.12898112833499908,0.9999886155128479,1.2725241809894006,1.2939417454350448,0.0010761608136817813,0.9999843835830688,1.1531580452065084,1.2952376014163214,-0.0013176260981708765,0.9999842643737793,1.2636992341280904,1.5755372734391786,-0.12221221625804901,0.9779130816459656,1.1428682639940762,1.5888113447773147,-0.04088980704545975,0.9413346648216248,1.2525181079962853,1.8571721515975346,0.04314584285020828,0.986345648765564,1.165459656325413,1.762565857348588,0.21494105458259583,0.956889271736145,1.3916167834800381,1.310497505988646,-0.16193917393684387,0.828693687915802,1.0643971666468377,1.314580830295357,-0.22718341648578644,0.9882789254188538,0.004230201244354248,1.2128411130979546,1.294589673425683,179.5215163993325,170.58461642854334,1.0,0.011531138063983917,0.001944438776077163,0.01653209189918158,0.005877525420487374,96.91105434633965,1.03246815590752,58,1.9333333333333333
1.1960006011103752,0.7501602821077035,-0.33315378427505493,0.9999362230300903,1.293928421410835,0.9017227213285323,-0.11290882527828217,0.9999824166297913,1.1032632345726898,0.9140915887364005,-0.12996307015419006,0.9999885559082031,1.2544777545784993,1.2765527495342655,0.0048071094788610935,0.9999850392341614,1.136829917946195,1.2761546678263507,-0.0050336136482656,0.9999845027923584,1.2443387743896757,1.573611114609193,-0.027866875752806664,0.9788526892662048,1.125693494715238,1.564074084335114,-0.03526834771037102,0.9443447589874268,1.2326371311027884,1.8294934189887633,0.16967007517814636,0.98673415184021,1.1445320643971673,1.7501602821077034,0.21745017170906067,0.9581009745597839,1.3745849525953948,1.2798506011243675,-0.148272305727005,0.8454220294952393,1.050575406470108,1.2948617096329058,-0.22746185958385468,0.9883909225463867,0.005268901586532593,1.1956538362623472,1.276353708680308,179.33647468915782,172.0042781786048,1.0,0.007833436947172612,0.009187533313066017,-0.026521817217872383,0.05472572544778733,95.81436165851919,1.0246714607267888,59,1.9666666666666666
1.155688366049559,0.7234798693514743,-0.37563079595565796,0.9999421238899231,1.2496874702481413,0.8614367361886462,-0.14516738057136536,0.9999839663505554,1.066134730480617,0.8799838420360224,-0.15026547014713287,0.9999889135360718,1.2119158628255395,1.233781044712175,0.0046651023440063,0.9999855756759644,1.0985353159971958,1.2333004169587758,-0.004885108210146427,0.999984860420227,1.1991160722786245,1.5207463767645557,-0.00988791324198246,0.979689359664917,1.0879865240308468,1.5113188241632696,-0.013700333423912525,0.9478205442428589,1.1898729812011528,1.768156342230762,0.18678703904151917,0.9870899319648743,1.1038426418785,1.7234798693514743,0.2101099193096161,0.960786759853363,1.3321772031521824,1.2260047202676152,-0.19351497292518616,0.8605629801750183,1.0178532789793922,1.252032998597876,-0.2328604757785797,0.9888604879379272,0.00817456841468811,1.1552255894113677,1.2335407308354756,179.5856157190319,173.55295607198929,1.0,-0.002853128917696965,-0.00041346694572229526,-0.0797760966502219,-0.0711210795030934,95.54954369416923,0.9955364136568268,60,2.0
1.0966962836035479,0.6831086764007932,-0.34084245562553406,0.9999474883079529,1.1863328759572014,0.8089986600178039,-0.13795393705368042,0.99998539686203,1.0130739880794175,0.8352120215472121,-0.10648448765277863,0.9999890923500061,1.1517943558730914,1.1725826604169312,-0.0027819641400128603,0.999986469745636,1.0438677330461263,1.172406113487144,0.002583994995802641,0.9999856352806091,1.1398652868488997,1.4454486060057588,-0.03029707446694374,0.9806472659111023,1.0348115056135623,1.4369715245103845,-0.010549508035182953,0.9515150785446167,1.1321419694485089,1.6831086764007932,0.1500466763973236,0.9875349998474121,1.049868014132498,1.6845087076983334,0.14275866746902466,0.9640982747077942,1.2650728066422792,1.1516278385576695,-0.19110140204429626,0.8741849064826965,0.9717830944163465,1.1828180104614021,-0.17889106273651123,0.9881343245506287,0.01215103268623352,1.0978310444596089,1.1724943869520374,179.35805951422577,174.5587565562506,1.0,-0.004450269386700102,-0.0029183630068555177,-0.013324337974178346,-0.019365662254540915,95.33278174960175,0.9570265348149931,61,2.033333333333333
1.0885899079492434,0.6757289992598318,-0.30775967240333557,0.9999523162841797,1.1769289612290883,0.7950514795186044,-0.10696958005428314,0.9999867081642151,1.0041084320905869,0.825334992577871,-0.07526882737874985,0.9999889135360718,1.144331911269777,1.1644074411443572,-0.006187263410538435,0.9999871850013733,1.036427216108678,1.1651070994810644,0.006001249421387911,0.9999861717224121,1.1327565592809328,1.4378322578402627,-0.03275064378976822,0.9810729622840881,1.0278977100789648,1.4321080942099216,-0.012123762629926205,0.9545477628707886,1.1263793812029983,1.6757289992598319,0.14989179372787476,0.9871488809585571,1.0430844492085107,1.6965817568976727,0.12085799872875214,0.9668496251106262,1.255012365103317,1.1373058080715142,-0.15605813264846802,0.8862693309783936,0.9654092752076356,1.1707948425404537,-0.13196340203285217,0.9840115904808044,0.014124870300292969,1.0903795636892275,1.164757270312711,179.11138041002278,174.88381647778897,1.0,-0.005260929686281547,-0.0039034462750026817,-0.0065009255535975,-0.0077805423265192636,95.41500344439359,0.9378646415464981,62,2.066666666666667
1.077423347035788,0.6678690536788758,-0.29459065198898315,0.9999566078186035,1.1661998908941207,0.7904849609307665,-0.08688421547412872,0.9999878406524658,0.9941742175506338,0.8171466962009657,-0.05880463868379593,0.999988317489624,1.1347783355877825,1.154864312237502,-0.005603746511042118,0.9999880194664001,1.0276656538544997,1.1569494665371456,0.0054319812916219234,0.9999868869781494,1.1236047426581681,1.4301348461465142,-0.021462976932525635,0.9819124341011047,1.0189750815759107,1.4293232697693568,-0.02108343318104744,0.9582915902137756,1.1173897128162904,1.6678690536788758,0.1827199012041092,0.9868831038475037,1.0272513100817482,1.7031096950105353,0.08468921482563019,0.9697996973991394,1.2440890419570918,1.1263525427956658,-0.13452059030532837,0.8972667455673218,0.9571652954072103,1.140676111693595,-0.08433926105499268,0.9777559638023376,0.012537837028503418,1.0812219947211412,1.1559068893873239,179.17309411187918,176.44104187247143,1.0,-0.0021780869670065353,0.005303168267494172,0.02489051825296965,0.07512153368042158,96.04383097217399,0.9214461288686288,63,2.1
1.0738658128432321,0.667316879361555,-0.25356024503707886,0.9999604821205139,1.1636688764779315,0.7895456994740693,-0.0655917078256607,0.9999889135360718,0.9929274091976167,0.8168952881036661,-0.021192019805312157,0.9999876618385315,1.1337498890999271,1.1542896274853094,-0.007953393273055553,0.9999887943267822,1.0260432316822685,1.1575192655828297,0.007797667291015387,0.9999876618385315,1.122389668755018,1.4315958534739792,-0.020505957305431366,0.9825659394264221,1.0174839308089934,1.438659388624442,-0.024270279332995415,0.9617176055908203,1.1166667500462124,1.667316879361555,0.17796272039413452,0.9863846898078918,1.0196092859821104,1.711820659083012,0.05965806916356087,0.9724794626235962,1.2420596656007383,1.121757799560174,-0.1445455402135849,0.9072071313858032,0.9561721645344828,1.1306342382293781,-0.09155600517988205,0.9675365090370178,0.012871146202087402,1.0798965603910977,1.1559044465340695,179.04488756372606,177.81038488364945,1.0,-0.003804408276139314,0.006724688398702536,-0.012420278386602675,0.010876035122310453,96.40685192918876,0.9153774281347425,64,2.1333333333333333
1.0698001719896881,0.6674443956882161,-0.23525802791118622,0.9999637603759766,1.1599137531795396,0.789131563501238,-0.04359623044729233,0.9999898076057434,0.9899736203550803,0.8161406428169994,-0.011498946696519852,0.9999878406524658,1.1333782374608685,1.1542485903727433,-0.006800015922635794,0.9999893307685852,1.0247273004918667,1.1581457402099748,0.006634384393692017,0.9999882578849792,1.1216672882716467,1.4332770733870996,-0.014786286279559135,0.9822800159454346,1.0173141941888049,1.4401823650361159,-0.02579888328909874,0.9644321799278259,1.1163921190153954,1.6674443956882161,0.18944810330867767,0.9841501116752625,1.0158448808249985,1.711956968010336,0.060058824717998505,0.9746134281158447,1.241518890660813,1.1157040589655054,-0.14567174017429352,0.9160913825035095,0.9559442772656616,1.1298328415468233,-0.07483363151550293,0.9679624438285828,0.012714028358459473,1.0790527689763676,1.156197165291359,178.88718503523307,178.80413210490468,1.0,-0.004415019943443887,0.004411633820993563,-0.004672603073795798,-0.017660488843150985,96.21099724390704,0.9160104511513273,65,2.1666666666666665
1.0679685746919951,0.665966978016317,-0.2644920349121094,0.9999666810035706,1.15687129947024,0.7892246515094148,-0.06382305920124054,0.9999905824661255,0.9878265805414159,0.8141192652257817,-0.03310202434659004,0.9999880790710449,1.1312214568938652,1.1537980464426558,-0.0061103785410523415,0.9999896287918091,1.022519195189493,1.1574295670708081,0.005938488058745861,0.9999885559082031,1.1197556062215992,1.431833263065276,-0.007594996597617865,0.9818703532218933,1.0158123988250591,1.438236400286466,-0.025361929088830948,0.9669105410575867,1.114587459079655,1.6659669780163169,0.196612149477005,0.9824549555778503,1.013882734727443,1.7066679224316499,0.07080474495887756,0.976518988609314,1.2387166671828789,1.1123995203652,-0.15031825006008148,0.9242108464241028,0.9543699041172867,1.1276229317013444,-0.059331972151994705,0.9697638154029846,0.011737406253814697,1.0768703260416792,1.155613806756732,178.90303861309096,179.04367953636054,1.0,-0.0033632151388114325,0.009197552024576845,0.007620146181625601,0.034958227779101056,95.93788063739873,0.9225243664494994,66,2.2
1.065316558196417,0.6655932739052083,-0.20288904011249542,0.9999693632125854,1.1561344819642594,0.790048495382027,-0.030551481992006302,0.9999913573265076,0.9856034033833417,0.812677188468317,0.010052706114947796,0.9999881386756897,1.1283820370082303,1.154851237821975,-0.008654534816741943,0.9999895691871643,1.0204613941907392,1.1586093550835739,0.008453444577753544,0.9999882578849792,1.1191690896245257,1.4279742421119659,-0.0515945665538311,0.9816257357597351,1.0142217696082043,1.4400817232547216,-0.041969381272792816,0.9683837294578552,1.1133031917333551,1.6655932739052082,0.06745556741952896,0.9817342758178711,1.0151922585311726,1.7139888269935428,0.010268950834870338,0.9779293537139893,1.2365077714301456,1.1139688864789536,-0.12436230480670929,0.9316074848175049,0.9534706162364566,1.1276331936023045,-0.06207359582185745,0.971548318862915,0.010673582553863525,1.0744217155994849,1.1567302964527746,179.48216393870075,178.5270806803224,1.0,-0.015023663131024581,0.01210944884935414,-0.08793300733354935,0.02198569909441925,96.34481203797954,0.9213396657967002,67,2.2333333333333334
1.0636260360983492,0.6649444818881268,-0.20811660587787628,0.9999716281890869,1.1555816696198709,0.7901877350921201,-0.05740402266383171,0.9999920129776001,0.9797261464036682,0.8119802530673514,-0.023890603333711624,0.9999881982803345,1.1278549263634134,1.156942023976577,-0.00562457088381052,0.9999900460243225,1.0189198164791384,1.1611898621698367,0.005426131654530764,0.9999887943267822,1.1189373847222237,1.4275275859635739,-0.017718805000185966,0.9816203117370605,1.0140505514349958,1.4404419186997808,-0.04699958488345146,0.9706857800483704,1.1122172316731986,1.664944481888127,0.17608866095542908,0.9806932210922241,1.0156449595156547,1.7237095916984904,0.01690775901079178,0.9797672033309937,1.2337510650076164,1.1142843587866074,-0.14490607380867004,0.9381059408187866,0.9527492594773912,1.1288857735071274,-0.12244053930044174,0.9718810319900513,0.010280877351760864,1.0733873714212758,1.1590659430732069,179.73375774698007,178.678552446118,1.0,-0.0063641152211312635,0.018787123580184518,0.06434954908168279,0.049651353583554214,96.55642755632897,0.9231734025388897,68,2.2666666666666666
1.060696188002969,0.665245485287366,-0.268000990152359,0.9999730587005615,1.1551321295447972,0.7909050712019076,-0.06532999873161316,0.9999925494194031,0.9768678492190138,0.8124352169832881,-0.05159395933151245,0.9999872446060181,1.127615590598638,1.1586829972959254,-0.0003075640997849405,0.9999905228614807,1.0172532658224775,1.1637107914221976,0.0001371755060972646,0.9999892711639404,1.1194362449159552,1.431496478837632,-7.534032920375466e-05,0.9820742607116699,1.0103396222789869,1.4468109311765456,-0.04564698785543442,0.9730013608932495,1.1119497298959022,1.6652454852873662,0.22086505591869354,0.9803519248962402,1.01585957772344,1.729873022759127,0.03989831730723381,0.9814901947975159,1.2280840002507893,1.1210370490596413,-0.14751006662845612,0.9439077377319336,0.9524342866359652,1.1288531042251926,-0.1348579227924347,0.9666863083839417,0.010152190923690796,1.0724344282105578,1.1611968943590614,179.88285392814538,177.483871073623,1.0,-0.010953685467673193,0.011686439523432526,-0.03412983505114357,-0.05290649093985646,96.88723328874437,0.9247957292965621,69,2.3
1.0585689181595985,0.6654765461720792,-0.3029032349586487,0.9999740123748779,1.155678639384256,0.7916919554095055,-0.06707300245761871,0.9999930262565613,0.9745257079941437,0.8133000740510049,-0.09180057048797607,0.9999864101409912,1.1278997723317414,1.1595057886027231,0.009605067782104015,0.9999908804893494,1.014986157496646,1.1651742197258013,-0.009768420830368996,0.9999896883964539,1.1201299826624005,1.435770177254375,0.010160291567444801,0.9822496771812439,1.0109430156392585,1.4473271432731354,-0.060272216796875,0.9750407338142395,1.1096309062127705,1.665476546172079,0.23308365046977997,0.9800747036933899,1.0166474982423321,1.7307213762001032,0.03860026225447655,0.9829817414283752,1.2226089077261737,1.1313471792942562,-0.149985209107399,0.9490483999252319,0.9514298649448311,1.1282791350984307,-0.2326352298259735,0.9639101028442383,0.010181665420532227,1.0714429649141937,1.1623400041642622,178.9940200210587,178.02587079080942,1.0,-0.013974330602276925,0.002473386192868856,-0.023927422995719008,-0.07323583027034411,97.19294249796987,0.9275972985349463,70,2.3333333333333335
1.0549555683846654,0.6650035063610348,-0.3312247097492218,0.9999758005142212,1.1539534094174888,0.7927024683162586,-0.081209197640419,0.9999934434890747,0.9703490498925323,0.8134071381010398,-0.11824594438076019,0.9999863505363464,1.1254051541989305,1.1591975189333377,0.014813472516834736,0.999991238117218,1.010740823757038,1.1650051507583454,-0.014966738410294056,0.9999901056289673,1.120187608024254,1.434929933495513,0.03724689409136772,0.9822202920913696,1.013238979502208,1.4461319474521455,-0.07558389753103256,0.976979672908783,1.109278296788922,1.6650035063610347,0.252045601606369,0.9801145195960999,1.0170031946844984,1.73654971544337,0.00405725697055459,0.9844267964363098,1.2163695451546441,1.1405500534302633,-0.16060468554496765,0.9536381363868713,0.9497740345110929,1.1216829976401634,-0.2747487425804138,0.9643270969390869,0.009756296873092651,1.0680729889779843,1.1621013348458415,178.36931103395852,179.76653892758534,1.0,-0.025308585730115334,-0.0015106879936807292,-0.08605852942045562,-0.030248292074170863,97.35357522471632,0.923094282147679,71,2.3666666666666667
1.0448024204524753,0.6590312048418634,-0.39356088638305664,0.9999755024909973,1.1462203477136714,0.7898545373993945,-0.14757415652275085,0.9999938011169434,0.9625933224805098,0.8100695554716347,-0.17206710577011108,0.9999854564666748,1.1192224305250826,1.1551402866272864,0.014729169197380543,0.9999914765357971,1.0039318732571643,1.161460541944616,-0.014860937371850014,0.9999904632568359,1.1165140379319993,1.4344078982256787,0.05359398573637009,0.9816123247146606,1.0101340872508244,1.4414159712559287,-0.06261428445577621,0.9784923791885376,1.1059715352680297,1.6590312048418634,0.2911607623100281,0.9797817468643188,1.0142152777379296,1.733668128457966,0.03555058687925339,0.9856599569320679,1.2066571270948787,1.145201358509345,-0.2202388346195221,0.9563749432563782,0.9468925022509509,1.1215178045978482,-0.314771831035614,0.9514830708503723,0.009554237127304077,1.0615771518911234,1.1583004142859512,177.86849196065498,179.53092206535342,1.0,-0.024291466464053297,-0.0023156673116169458,0.006947436972000643,-0.005975557761597452,97.36481746201747,0.9284411555813211,72,2.4
1.0305725389074862,0.6479619434839591,-0.44042229652404785,0.9999771118164062,1.1329572846324043,0.784674996561294,-0.17970654368400574,0.9999942183494568,0.9481102400279405,0.8043713281322227,-0.20203539729118347,0.9999863505363464,1.1074760349126995,1.148779466077322,0.014503593556582928,0.9999919533729553,0.9925292390225106,1.1544591560651383,-0.014638002030551434,0.9999911189079285,1.1078186527939204,1.4381055473530482,0.04876376688480377,0.982524037361145,1.0013794284457274,1.443284526674963,-0.062041111290454865,0.9803203344345093,1.100023626227568,1.6479619434839592,0.3446309268474579,0.9795120358467102,1.0050461914045128,1.731042583080765,0.06416447460651398,0.9869153499603271,1.1916078286745235,1.146491254662923,-0.2640009820461273,0.959809422492981,0.9325163034750097,1.1661131748914584,-0.3189208507537842,0.953517735004425,0.009371578693389893,1.050002636967605,1.1516193110712303,177.80490139671892,178.97494455535968,1.0,-0.034842718789121055,0.008077648990600003,-0.08302389330753437,0.08042504666574182,96.83199145419307,0.9370523056633643,73,2.433333333333333
1.0231558063791057,0.6392294268764551,-0.44973069429397583,0.9999788403511047,1.1241041638330835,0.7804153602535528,-0.19154904782772064,0.9999946355819702,0.9399722121085372,0.8011771309860332,-0.21664460003376007,0.9999874234199524,1.099486805994789,1.1448219288521868,0.015359193086624146,0.9999922513961792,0.9840539523778284,1.150418706560353,-0.015497393906116486,0.9999916553497314,1.1063764153844724,1.430270824892403,0.05680770426988602,0.9831403493881226,0.9950436458652387,1.4410807503592082,-0.060500603169202805,0.981900691986084,1.0971221074904154,1.6392294268764551,0.3405068814754486,0.9791334271430969,1.0010849749076927,1.7279810234880026,0.0698399692773819,0.9879913330078125,1.183835084812742,1.1443886130191872,-0.27543067932128906,0.9631410837173462,0.9201862446629028,1.1770575807581305,-0.32098522782325745,0.9575198888778687,0.009912759065628052,1.0417703791863087,1.1476203177062698,176.08153001279106,179.04103788518057,1.0,-0.03278826401331766,-0.00014976477327850434,0.013770152532242954,-0.058377812052212215,96.64054428807641,0.9490602401574718,74,2.466666666666667
1.0243949245984165,0.6370200016905483,-0.4442058205604553,0.9999797344207764,1.1258863638498167,0.7817752635220382,-0.19281980395317078,0.9999949932098389,0.9348159024240584,0.8030081741139492,-0.20563697814941406,0.9999880790710449,1.0996554412174453,1.1487058852994305,0.015163744799792767,0.9999925494194031,0.9820038006029622,1.1539172820992853,-0.015282856300473213,0.9999920725822449,1.1107534523187121,1.4338445259107828,0.017612338066101074,0.9839487671852112,0.9961455499447441,1.4474159969695357,-0.040172427892684937,0.9830222129821777,1.1013824301944444,1.6370200016905483,0.29554709792137146,0.9786574840545654,1.005290664729841,1.7307890790581768,0.1058526486158371,0.9888609647750854,1.183720270612949,1.1498692329606823,-0.25016236305236816,0.9660550951957703,0.9155937424668856,1.1887480863932778,-0.31024226546287537,0.9604319334030151,0.010106384754180908,1.0408296209102037,1.151311583699358,175.13031954457037,179.0898590728231,1.0,-0.031157476985785776,0.00100599306976985,0.012946178595085974,0.008640401849161285,96.62523840943155,0.9658600535994228,75,2.5
1.0275768270529455,0.6408703235535798,-0.4552302360534668,0.999981164932251,1.1280477538260045,0.7840491894631787,-0.19429075717926025,0.9999952912330627,0.9341439226267123,0.8054425131206533,-0.21976657211780548,0.9999889135360718,1.102633953448835,1.156641616477085,0.014783347956836224,0.9999927878379822,0.9828212789134494,1.1610929732486643,-0.014922276139259338,0.9999925494194031,1.1186915552421222,1.44323106517352,0.029648516327142715,0.9845914840698242,1.0002327873084635,1.4564675139864434,-0.038818396627902985,0.9842169284820557,1.108527621848131,1.6408703235535798,0.3341209292411804,0.9778442978858948,1.0115335186648575,1.7393842501786676,0.10286755859851837,0.9896886944770813,1.1864390216258591,1.1635314155823304,-0.24890649318695068,0.9683104157447815,0.9097180673049375,1.189376410844098,-0.3189467489719391,0.963750958442688,0.010125547647476196,1.042727616181142,1.1588672948628747,173.8491325847225,178.9138642458303,1.0,-0.02965651595625634,0.007844825035574068,0.012493299367659394,0.0509073135417649,96.0297000419635,0.9749309267440371,76,2.533333333333333
1.0271718288289247,0.6405538629189087,-0.47429877519607544,0.9999825358390808,1.126782874631985,0.7834304517319848,-0.20922930538654327,0.9999955892562866,0.9326722721688372,0.8038002254885412,-0.22644288837909698,0.9999896883964539,1.1003276679552476,1.156623620437822,0.014198869466781616,0.9999929666519165,0.9795332033356489,1.1609139092002838,-0.014345196075737476,0.9999929666519165,1.1188098707996117,1.4438951656463102,0.02639877237379551,0.985140860080719,0.9982979122067976,1.4575687847399148,-0.03552762791514397,0.9852212071418762,1.108935444634076,1.6405538629189087,0.3208375573158264,0.9771504998207092,1.0125255881392046,1.740127069158319,0.10261563956737518,0.990415632724762,1.1863029342283533,1.163125225597149,-0.2593313157558441,0.9703497886657715,0.9086481787553579,1.188461741147541,-0.324398934841156,0.9667099714279175,0.009641945362091064,1.0399304356454482,1.158768764819053,173.44436896672812,179.26319884377244,1.0,-0.021098917111588983,2.6514504695682037e-05,0.06671717300683126,-0.06096670121622753,96.08897877428583,0.9744188662279358,77,2.566666666666667
1.0250727557221306,0.6398349682278198,-0.44225382804870605,0.9999838471412659,1.1248645578152119,0.7841177893615001,-0.18202446401119232,0.9999958276748657,0.9314808419130993,0.8045696933110154,-0.20193961262702942,0.9999904036521912,1.1003482370989683,1.1601401779696272,0.013768324628472328,0.9999931454658508,0.9782763257122364,1.163507552811965,-0.013926872983574867,0.9999933242797852,1.1217169561913882,1.4464553525723212,0.011024502106010914,0.985146164894104,0.9978242829851436,1.460017706757301,-0.04460548609495163,0.9858179092407227,1.111050133084543,1.6398349682278197,0.3133828043937683,0.9732576608657837,1.0142592068672192,1.7425375669325833,0.09669224172830582,0.9907864332199097,1.1861522686506814,1.163351995763499,-0.2428147792816162,0.9723262786865234,0.9039058003034813,1.1896961433395752,-0.3022354245185852,0.9694144129753113,0.009662449359893799,1.0393122814056024,1.1618238653907962,172.57448886727096,179.55742668113663,1.0,-0.020737503891170114,0.006806155123255833,0.003208197304012347,0.05416842838606539,95.31046663344813,0.9854762479752585,78,2.6
1.0277290730660031,0.6391210884661686,-0.46044865250587463,0.9999852776527405,1.1245532251967554,0.7849776945310585,-0.20371219515800476,0.9999960660934448,0.9324923296006132,0.8052402947137862,-0.20433196425437927,0.9999911785125732,1.099603824322138,1.1627379018728805,0.006457285489886999,0.9999934434890747,0.976371774801664,1.165892108433137,-0.006647101137787104,0.9999938011169434,1.1256454695851097,1.4495558663468668,-0.03212033957242966,0.985783040523529,0.9979859610305967,1.4646597677065012,-0.029503997415304184,0.9864270687103271,1.114156798522701,1.6391210884661687,0.3008294999599457,0.9694538116455078,1.0166176549710237,1.747666383447705,0.13285638391971588,0.9911701083183289,1.1861199990668252,1.1687963303724422,-0.23623447120189667,0.9729881286621094,0.89381716716593,1.1913087289205084,-0.3100227415561676,0.9720174670219421,0.009551435708999634,1.037987799561901,1.1643150051530087,171.34386285805132,179.62879890864158,1.0,-0.028330761905682265,-0.0010301031082326367,-0.05821709876095102,-0.06057176126526742,95.24485011985827,0.9915140977240325,79,2.6333333333333333
1.0270689896510503,0.6357010128346775,-0.4663940966129303,0.9999866485595703,1.122118817541069,0.7836959610678313,-0.20154568552970886,0.9999963641166687,0.9283327458378263,0.8021477396197183,-0.21309061348438263,0.9999918937683105,1.0937918740500552,1.1611133661762578,0.006622157990932465,0.9999938011169434,0.9711238223966673,1.163989031986084,-0.006810563616454601,0.9999942183494568,1.1263367890444116,1.447411133649135,-0.05717378854751587,0.9868533611297607,0.9936498081026901,1.4628760610512956,-0.03155403956770897,0.9873098731040955,1.1126683793376093,1.6357010128346774,0.27978071570396423,0.9690253138542175,1.0142656915440866,1.745662366931952,0.132308691740036,0.9917324185371399,1.1791068287813322,1.1659063950764277,-0.2415618598461151,0.9746802449226379,0.8825536185145753,1.189695006805919,-0.3282391428947449,0.9744234085083008,0.008709639310836792,1.0324578482233613,1.162551199081171,169.36278375048826,179.85962189381712,1.0,-0.032218174381755955,-0.0014628259504980967,-0.030666103788213783,-0.00339110145615771,95.63518855343314,0.995908770204797,80,2.6666666666666665
1.0229001396071729,0.6298040917453763,-0.4588024616241455,0.9999879002571106,1.1167026333278043,0.7806106372859073,-0.19952510297298431,0.9999966025352478,0.9220687003559666,0.7955928735286988,-0.20503103733062744,0.9999925494194031,1.085773588480092,1.1571500576285787,0.005886594764888287,0.999994158744812,0.9646647589345354,1.15914582862052,-0.00608537532389164,0.9999946355819702,1.1215178268321706,1.4423642871639908,-0.059019993990659714,0.9877326488494873,0.9890469558678289,1.4608607447521915,-0.02170121856033802,0.9879447817802429,1.1076863393712026,1.6298040917453762,0.27342966198921204,0.9676628112792969,1.0097229723788237,1.7383521098936174,0.15615108609199524,0.992108941078186,1.171307133831618,1.164773862590614,-0.24051138758659363,0.9759580492973328,0.8663211193766095,1.1857677995374,-0.3160693943500519,0.9765519499778748,0.00710374116897583,1.0252191737073137,1.1581479431245494,168.6363966643634,179.64111343784842,1.0,-0.019910959491896644,0.006095582107665507,0.09254988927455428,0.057463176089230836,95.63984872085234,1.002565018356315,81,2.7
1.0141650651759606,0.6219930319398336,-0.4533570408821106,0.9999890327453613,1.1083163075496139,0.7754336255266074,-0.1934206336736679,0.9999968409538269,0.912769019550729,0.7871616043586006,-0.20420435070991516,0.9999931454658508,1.0756907001968214,1.1506166285216728,0.006148089654743671,0.9999944567680359,0.9553636803498182,1.1520568157609898,-0.006357893347740173,0.9999949932098389,1.1132490112440685,1.4324562792725233,-0.05346422642469406,0.9885630011558533,0.9815915616509338,1.4532220570291683,-0.02464270405471325,0.9886088371276855,1.0991304339144377,1.6219930319398337,0.2673300504684448,0.967961311340332,1.0027226278000816,1.7262954103578916,0.16109180450439453,0.9924923777580261,1.1631838221795574,1.159336500497264,-0.22782287001609802,0.9772962927818298,0.8516843014723731,1.1760295685166584,-0.31184184551239014,0.9785336852073669,0.005601316690444946,1.0155271902733198,1.1513367221413313,168.14932301977967,179.44764801187645,1.0,-0.017490407599979663,0.012153429259367835,0.01755744943737605,0.04706427288666648,95.65562922713322,1.0101883707562682,82,2.7333333333333334
0.9793971185620477,0.5981158735024543,-0.4466857314109802,0.999989926815033,1.070029420724066,0.748742365264266,-0.19086194038391113,0.9999969601631165,0.8790832460929818,0.7573124043248078,-0.1999143809080124,0.9999935626983643,1.03769843565036,1.1116201738251954,0.0038203310687094927,0.9999943971633911,0.9209526501787222,1.1128821464789602,-0.004050661809742451,0.9999950528144836,1.0736879725920698,1.3822257664619169,-0.10334722697734833,0.9894372820854187,0.9455303297588888,1.404436750263167,-0.02222796529531479,0.988990306854248,1.0588060218014121,1.5981158735024543,0.157802015542984,0.9697118401527405,0.9681808892539167,1.670206769272888,0.1540430188179016,0.992764413356781,1.1220627475023233,1.124296413794965,-0.2153933048248291,0.9785709977149963,0.8162984497244941,1.1342584425524695,-0.29265475273132324,0.9804301857948303,0.004239201545715332,0.9793255429145411,1.1122511601520777,168.48100049980118,179.94724031519047,1.0,-0.00881448542555991,0.004430105769915001,0.05948596436348013,-0.05382231013768848,95.71070401307672,0.9829949692524793,83,2.7666666666666666
0.9395053769505373,0.5727803378635139,-0.4380515217781067,0.9999906420707703,1.0251125456631665,0.7188911443737339,-0.18866847455501556,0.9999969005584717,0.8431782280426162,0.7183258156497877,-0.1854104995727539,0.9999938011169434,0.9948258812956459,1.066125488992299,-0.0004164033161941916,0.9999940395355225,0.8832681420650338,1.0675120265985922,0.000171705600223504,0.9999948143959045,1.0230747502914768,1.3255086860565424,-0.08482696115970612,0.9900493025779724,0.9072219458726785,1.3465738409576529,-0.02143424190580845,0.9888827800750732,1.0151780620787916,1.572780337863514,0.10678267478942871,0.9719902276992798,0.9350372979425109,1.602879426125757,0.1486271619796753,0.9929569363594055,1.0743435876478535,1.0795487956758796,-0.20389795303344727,0.9792084693908691,0.7786697883891893,1.0816718844337028,-0.2678602635860443,0.9821081161499023,0.00029155611991882324,0.9390470116803398,1.0668187577954455,171.9554008894386,178.71232948156978,1.0,-0.0019632126791004735,0.00014176084422298937,0.049147228730093195,-0.031098543623182495,95.6969538139323,0.9459638925788982,84,2.8
0.9089930668885304,0.5524745329131203,-0.41219624876976013,0.9999904036521912,0.9911456668905763,0.6953431029624433,-0.15184904634952545,0.9999959468841553,0.8151328094068199,0.689900237897212,-0.16190922260284424,0.9999938607215881,0.961355384135606,1.0312400029536617,0.00022855517454445362,0.999993622303009,0.8528881405732776,1.0326006772963083,-0.0004606557486113161,0.999994695186615,0.9829837449668549,1.2998043171197393,-0.04905012622475624,0.9901758432388306,0.8769941338736529,1.3077163740236748,-0.014664286747574806,0.9882471561431885,0.983187326264855,1.5576253298064542,0.1527409553527832,0.9742230176925659,0.9093770317254231,1.5524745329131204,0.17347261309623718,0.9928895235061646,1.0323342664049662,1.0434808176052992,-0.15639260411262512,0.9708806276321411,0.7534154787410984,1.035428791571712,-0.23752978444099426,0.9835413694381714,0.0029018819332122803,0.9071217623544418,1.031920340124985,175.44096258308423,177.47075673338315,1.0,-0.00929720984298416,-0.00023993342737813972,-0.05571109611105552,-0.0028394206737227434,95.78694445901793,0.9139418381306524,85,2.8333333333333335
0.9079038985358735,0.5510826636610632,-0.3631666600704193,0.9999867677688599,0.9891570083631678,0.6929154045479923,-0.10862352699041367,0.9999932646751404,0.8135954029984512,0.6881661951990797,-0.12663093209266663,0.999993622303009,0.9583069634119643,1.0304449091827164,0.0007182637928053737,0.9999929070472717,0.8498809543877855,1.0313073158544062,-0.0009646330145187676,0.9999944567680359,0.9776383811047089,1.3027500669551328,-0.047236405313014984,0.9896582961082458,0.8755124621392307,1.3090741592707154,-0.01713545434176922,0.9863717555999756,0.9821739145481698,1.568392979685941,0.13071148097515106,0.975965678691864,0.9080817943328103,1.551082663661063,0.15785889327526093,0.9922469258308411,1.0262891695900114,1.0415797236078719,-0.12280283123254776,0.9431406259536743,0.7528685208838055,1.0284711421981891,-0.2062269002199173,0.9847331047058105,0.0025356411933898926,0.904093958899875,1.0308761125185613,176.91744691292456,177.60738281882016,1.0,-0.013383184388532232,0.0031771796143663113,-0.031427541919658346,0.026196086776957023,95.67801231631248,0.9045259410173017,86,2.8666666666666667
0.9073287084249406,0.5490427759797639,-0.34644815325737,0.9999831914901733,0.9871476265139313,0.6916102713731045,-0.09064970910549164,0.9999898076057434,0.8129838999399902,0.6875748867875678,-0.11961720883846283,0.9999932050704956,0.957008377508129,1.0306935199471754,0.00201366376131773,0.9999920129776001,0.8494881216983192,1.0308547502391137,-0.002266639145091176,0.9999940395355225,0.9718320867905115,1.3038011323584735,-0.04599297419190407,0.9896062612533569,0.8741799388038496,1.308340779734668,-0.01740943267941475,0.9846245050430298,0.9832029479052216,1.5815316833133783,0.08057362586259842,0.9779541492462158,0.9065655963101232,1.549042775979764,0.15550917387008667,0.9918071627616882,1.0228062812467316,1.0416097919192626,-0.10667137056589127,0.9132296442985535,0.7541978413873031,1.023957862474352,-0.2171914130449295,0.98582524061203,0.00215718150138855,0.903248249603224,1.0307741350931445,179.2376515820225,177.42207609453948,1.0,0.0021658420446984813,0.009440826825574672,0.12556898243786488,0.0506685406388375,95.16527594844494,0.8985599077498592,87,2.9
0.9073763180312943,0.5479564066699364,-0.36904677748680115,0.9999812841415405,0.9866167416018018,0.6911197463978435,-0.10815495252609253,0.9999871850013733,0.8126144388421669,0.687923035150398,-0.13446536660194397,0.999992847442627,0.956132584940166,1.0317231099778303,0.0021259705536067486,0.9999914169311523,0.8492618311685447,1.031430641231876,-0.002384380903095007,0.9999937415122986,0.9688506858475655,1.3078553874080006,-0.04521941766142845,0.989723801612854,0.8730824913390255,1.3090017534754756,-0.019520554691553116,0.9832841157913208,0.9842453493012727,1.5859107164782351,0.07847973704338074,0.9798036217689514,0.9055590008064338,1.5479564066699363,0.14884380996227264,0.9914852976799011,1.0220169357787656,1.041559975925087,-0.12457551807165146,0.8882684111595154,0.7546679683104265,1.021304649038619,-0.2317548245191574,0.9867299795150757,0.0017101466655731201,0.9026972080543553,1.0315768756048531,179.4680931524396,177.1653137631863,1.0,0.0009794549773218643,0.011798764456285067,-0.008839423677568502,0.017645775137984415,94.95757297082173,0.9006060602633011,88,2.933333333333333
0.9063982372997424,0.5464806582111305,-0.324834406375885,0.9999744296073914,0.9843433619149577,0.6893824990633988,-0.06896483898162842,0.9999809265136719,0.8110053150037408,0.686509217601656,-0.10132962465286255,0.9999924302101135,0.9541583428660999,1.0292218483228446,0.0030865385197103024,0.9999904632568359,0.8470567374703872,1.0291055652458119,-0.003363563446328044,0.9999934434890747,0.9644634025139823,1.302760444632691,-0.05245835706591606,0.9878868460655212,0.8712352242117819,1.3058438360519784,-0.024153023958206177,0.9762541651725769,0.9820100296933173,1.583325940575568,0.03582451492547989,0.9808619618415833,0.903325518132267,1.5464806582111306,0.12326518446207047,0.9890490174293518,1.0154716523869713,1.03522943673856,-0.11341607570648193,0.81781405210495,0.7542731251577214,1.0158750857393146,-0.19731405377388,0.9870450496673584,0.001540541648864746,0.9006075401682436,1.0291637067843282,178.57886229962665,177.39732174012224,1.0,-0.0006618590976153658,-0.0009512340576658055,-0.012698509095098323,-0.09857203978395374,95.01356583926201,0.8982634776092239,89,2.966666666666667
0.9071525630539495,0.5457910659686244,-0.31459158658981323,0.9999670386314392,0.9838479397894859,0.6883945524423916,-0.06023644283413887,0.9999744892120361,0.8110580656081485,0.6849786734702327,-0.10157434642314911,0.9999919533729553,0.9541601167081332,1.0282757604735941,0.005965362302958965,0.9999896287918091,0.8466774296315095,1.0283611143819613,-0.006257716566324234,0.9999931454658508,0.9628340965080415,1.301928170351731,-0.053384047001600266,0.9858477711677551,0.8710963159397146,1.3049514546867715,-0.026843199506402016,0.9675076007843018,0.9814248001226518,1.587714171766183,0.023123668506741524,0.9818885922431946,0.9030146767045678,1.5457910659686243,0.12509799003601074,0.9856215715408325,1.015575699053233,1.0315483271217434,-0.09671363979578018,0.7505515217781067,0.7552053242167653,1.0142604931266488,-0.2053823173046112,0.9873234629631042,0.0018319785594940186,0.9004187731698213,1.0283184374277776,178.0935890987137,177.49591063092572,1.0,0.000501627688084984,-0.004247029332030797,0.008906912660863247,-0.02523661571028813,95.03748109235255,0.8935632112973695,90,3.0
0.9086924726477097,0.5455189351922569,-0.21784774959087372,0.9999600052833557,0.9838470864406441,0.6869787134356571,0.01630316860973835,0.9999666213989258,0.8114128185909837,0.6830045376049783,-0.0304575115442276,0.999991774559021,0.9546963514184273,1.027733771837533,0.007476803846657276,0.9999886751174927,0.8466708144090503,1.0280936108079268,-0.007768884301185608,0.999992847442627,0.9618671264041069,1.3042853565264627,-0.057240504771471024,0.9825287461280823,0.8714293580702808,1.3057387147892205,-0.026668261736631393,0.9556258320808411,0.9813391043888074,1.5914208521793622,0.008252113126218319,0.9819455146789551,0.9027409605600152,1.545518935192257,0.12264634668827057,0.978908896446228,1.0138499663748375,1.009743823658012,-0.06616247445344925,0.6837937235832214,0.755256768942763,1.0138919735183856,-0.1515568047761917,0.9873278737068176,0.002131551504135132,0.9006835829137388,1.02791369132273,177.6057533731766,177.6559303091065,1.0,0.0025143624995761257,-0.0025370986431960574,0.015394156973992594,0.013075658443745261,95.08045917483156,0.8899236356079739,91,3.033333333333333
0.9094147986523832,0.5445028018340126,-0.2972155809402466,0.9999566674232483,0.9832416380748898,0.6838466285396084,-0.04210329428315163,0.999961793422699,0.8127905209479386,0.6808289228411013,-0.08097140491008759,0.9999917149543762,0.9546798288330496,1.027566106296162,0.007623661309480667,0.9999880790710449,0.8462707617891068,1.0281029673791366,-0.007915353402495384,0.9999927282333374,0.9610982840602624,1.309675277341669,-0.057025812566280365,0.981274425983429,0.8711310171490688,1.307543714502296,-0.011724723502993584,0.9504079222679138,0.9805878739917959,1.5949831808885895,0.04953060299158096,0.9826204180717468,0.9021887195535546,1.5445028018340126,0.16871313750743866,0.9759998917579651,1.0143959066174904,0.9989848616613718,-0.14288924634456635,0.6311030387878418,0.7571801421593488,1.0139237931578866,-0.18947795033454895,0.9878940582275391,0.001619577407836914,0.9004752953110782,1.0278345368376494,177.39550454798513,177.61682905121367,1.0,0.0027291126097582583,0.004303144384912815,0.00162172375076722,0.05126173058346046,95.03388944602052,0.8895245782862322,92,3.066666666666667
0.9102933733470414,0.543623885637048,-0.2792813181877136,0.9999173283576965,0.9826082124305522,0.6811017198344599,-0.03916196525096893,0.999949038028717,0.8138910022065143,0.67627157973361,-0.07183492183685303,0.9999911189079285,0.9546031274537392,1.0274453870229272,0.0074252597987651825,0.9999865293502808,0.8458125309117763,1.0289793986563478,-0.0077202580869197845,0.9999922513961792,0.9596939829807898,1.3182099160153586,-0.05583805963397026,0.9780620336532593,0.8714565911865652,1.3106899314375553,-0.009715239517390728,0.9417535066604614,0.9793034877301807,1.5968837047257207,0.05783708766102791,0.9823671579360962,0.9017376813486259,1.5436238856370479,0.1676049828529358,0.9712235331535339,1.0121475308790553,0.996594560725287,-0.16204491257667542,0.5763146877288818,0.7595892087661167,1.0132933255408945,-0.17016251385211945,0.988149881362915,0.002595573663711548,0.9002078291827578,1.0282123928396374,176.97795062937692,177.79445585488133,1.0,0.006619697676555506,0.012755644968126149,0.029638737336020002,0.06437608569480546,95.43068631546217,0.8917342052612869,93,3.1
0.9119070324356595,0.5435021505737128,-0.3028944134712219,0.9999027252197266,0.9841172831478265,0.678941847299977,-0.05404486507177353,0.9999409317970276,0.8162272855963555,0.6707065267575959,-0.0790015161037445,0.9999908208847046,0.957240255589814,1.0283377705409529,0.007143284194171429,0.9999855160713196,0.8476698351499495,1.0296986312917558,-0.007438345346599817,0.9999919533729553,0.9597689786639684,1.3202199405642487,-0.05531388521194458,0.9767408967018127,0.8720495850672458,1.3123141038314903,0.0010564683470875025,0.9359994530677795,0.9792826725401782,1.6065352151419467,0.067119300365448,0.982810378074646,0.9016419008459488,1.5435021505737128,0.20432741940021515,0.9677884578704834,1.0112378880315187,0.9978795129673591,-0.18271693587303162,0.5290693640708923,0.7628720938970626,1.0134340770335477,-0.2041110247373581,0.9885807037353516,0.00442543625831604,0.9024550453698817,1.0290182009163542,176.59743029049727,177.6361433574319,1.0,0.017562940843965463,0.006322451027341347,0.08537265606509924,-0.050187358623538784,95.1103484810277,0.8872412125363752,94,3.1333333333333333
0.9146531892838732,0.5420077494027195,-0.30815669894218445,0.9998918771743774,0.9868639309094739,0.6748378889252277,-0.06358664482831955,0.9999313354492188,0.817835211556477,0.6687451289072677,-0.09135080873966217,0.999990701675415,0.9607585323806409,1.0296806558721958,0.006664395332336426,0.9999843835830688,0.8507368584431351,1.0325532563566722,-0.006960959639400244,0.9999916553497314,0.9597442364510175,1.3231473217997682,-0.055202387273311615,0.9740690588951111,0.8738531382863731,1.312636737046912,0.0012343095149844885,0.9272473454475403,0.9788075454127194,1.6087692418556439,0.07109116017818451,0.9826600551605225,0.9013905687884214,1.5420077494027196,0.21121129393577576,0.9620786309242249,1.0107361932583523,0.9930593511122444,-0.2069883793592453,0.4816928803920746,0.7654590052161573,1.023439116191152,-0.20897555351257324,0.988914966583252,0.0032756924629211426,0.9057476954118879,1.031116956114434,175.9835338507372,177.87217744408534,1.0,0.028102543828848105,0.019590058149178028,0.07934223190991277,0.09982032230887139,95.70322732046597,0.8970103119081236,95,3.1666666666666665
0.9381885144062672,0.5509083550072922,-0.38985955715179443,0.9998891949653625,1.010375359185983,0.6870186169056371,-0.10845740139484406,0.9999238848686218,0.8331933330660216,0.6813192384504291,-0.14956802129745483,0.9999904036521912,0.9805644664151343,1.0500915598928475,0.006554090417921543,0.999982476234436,0.8676009153789884,1.0543826456288985,-0.006854495964944363,0.9999908208847046,0.9766553995353852,1.3448409323448214,-0.05870719999074936,0.9703904390335083,0.8908091530454725,1.3347733199700047,0.006991156842559576,0.910012423992157,0.9958751099488504,1.6460553000209959,0.0667596384882927,0.982345700263977,0.9160892254835564,1.5509083550072922,0.26231932640075684,0.9485217928886414,1.0256970561144194,1.012664427000759,-0.23346921801567078,0.43921127915382385,0.7833429176416635,1.0554559528141858,-0.25673025846481323,0.9892276525497437,0.0030118823051452637,0.9240826908970614,1.052237102760873,175.58922215073272,178.06040154991268,1.0,0.01957413807671827,0.024143246397165505,-0.06780378248223032,0.03168098959723065,96.8692833623993,0.9165716450013751,96,3.2
0.9367609752818054,0.5405577841023688,-0.4811384081840515,0.9998978972434998,1.014493198574726,0.6843520157766174,-0.20573528110980988,0.9999289512634277,0.8320202586110302,0.6773689577123905,-0.22875778377056122,0.999990701675415,0.9804012504762118,1.0442474732761131,0.00535831693559885,0.9999824166297913,0.8669620487192703,1.0481345942675302,-0.005656104534864426,0.9999904632568359,0.975409878313874,1.3340751406225488,-0.07201708853244781,0.9720251560211182,0.8868351522757323,1.327375904802456,0.008579215034842491,0.9101824760437012,0.9898999394930865,1.6382765614145172,0.03751606494188309,0.9836416244506836,0.9095817179481434,1.5405577841023688,0.26144295930862427,0.9476727247238159,1.042325034175201,1.0521481074782062,-0.24964025616645813,0.45137539505958557,0.779466082513502,1.0583631759406584,-0.33438265323638916,0.9899170994758606,0.003714621067047119,0.9236816495977411,1.0461910337718217,176.28624235753293,177.98034224117745,1.0,0.04422973834052989,0.006692886719350596,0.19364053141669374,-0.13510438985509649,97.37386696770335,0.9300356154252978,97,3.2333333333333334
0.9392294131545805,0.5369621465403106,-0.5045015215873718,0.9999070763587952,1.0183622614067236,0.6847936394853519,-0.22482934594154358,0.999934732913971,0.8348493801831676,0.6776837582389302,-0.23900866508483887,0.9999911189079285,0.9842314239893257,1.0444246524304648,0.0037060591857880354,0.9999823570251465,0.8696234829630513,1.0481364022960729,-0.003992538899183273,0.9999900460243225,0.9776116977228921,1.327170995378891,-0.0801578015089035,0.9734757542610168,0.8886117483860642,1.3277538460296887,0.009788394905626774,0.9109699726104736,0.9907172066927395,1.6350318124368672,0.037778034806251526,0.9846845269203186,0.9093533854880052,1.5369621465403107,0.26093873381614685,0.9471131563186646,1.0510862991090903,1.0643720434340305,-0.2552359700202942,0.4821111559867859,0.7805317346487226,1.0616309640753276,-0.34931546449661255,0.9905365109443665,0.003780841827392578,0.9269274534761885,1.046280527363269,176.22123611081878,178.22287881360583,1.0,0.021235438751369542,-0.0018355683588170359,-0.16606448296623186,-0.061569337947336926,97.27638818830158,0.9430856560375136,98,3.2666666666666666
0.9355970825851156,0.5292870538808703,-0.5099349617958069,0.9999151825904846,1.0177899431182693,0.6811210569985098,-0.2230260670185089,0.9999396800994873,0.8334011618265588,0.6738886685538986,-0.2421034872531891,0.9999914169311523,0.9830141882417667,1.0386716057627,0.0037600889336317778,0.9999823570251465,0.8699395284967465,1.0422632735883317,-0.0040438249707221985,0.9999897480010986,0.9750357514037878,1.3211237214570575,-0.07061712443828583,0.9747784733772278,0.8846960022809549,1.3202324099052083,0.00734667619690299,0.9130191802978516,0.985531042474981,1.6291120524664218,0.04941815137863159,0.9857820868492126,0.9032544020004621,1.5292870538808703,0.2544853389263153,0.9478957056999207,1.0467015480336936,1.057655705689929,-0.2666008472442627,0.5043464303016663,0.7783725676712548,1.055690918349117,-0.3425394594669342,0.9910003542900085,0.0038667917251586914,0.9264768583692566,1.0404674396755158,176.43028596657132,177.9657756687767,1.0,0.03503484470902966,-0.0014206369617521932,0.10745567335170864,0.003128260617173209,97.37449031545042,0.9484815843471106,99,3.3
0.9378342525641523,0.5248953279023817,-0.514267086982727,0.9999228119850159,1.023892796519693,0.6792502325350276,-0.22893519699573517,0.9999444484710693,0.8363451983529216,0.6734650585238453,-0.2496429681777954,0.9999916553497314,0.9868469598367428,1.038827737126818,0.003489205613732338,0.999982476234436,0.8737381454765426,1.0415152665923497,-0.00375909055583179,0.9999894499778748,0.977321170856828,1.3252747929801802,-0.06946609914302826,0.976416289806366,0.8840477879327342,1.3181303676847143,0.018233370035886765,0.9168026447296143,0.9851486756296662,1.6288329284639975,0.053995758295059204,0.9869275689125061,0.9009113055669863,1.5248953279023818,0.2943652272224426,0.949338972568512,1.0540278431484182,1.0610220823183747,-0.26903122663497925,0.5386322140693665,0.7800985446039702,1.053919994357993,-0.3688403069972992,0.9916419982910156,0.003094971179962158,0.9302925526566427,1.0401715018595838,176.61823923908983,177.4718074895473,1.0,0.03361620958933169,0.002704179342820498,-0.010686078161673126,0.03155042286088951,97.2433264246314,0.9599246759302218,100,3.3333333333333335
0.9391170489249586,0.523249971944303,-0.5358089208602905,0.9999302625656128,1.0296833451636016,0.6791295410199353,-0.2418845146894455,0.9999495148658752,0.8392100295427186,0.6730634398484463,-0.2644996643066406,0.9999919533729553,0.991712277479337,1.0420878896574308,0.003526399377733469,0.9999828338623047,0.8765221851642588,1.0426157544643366,-0.003794123651459813,0.9999889731407166,0.9787444469908838,1.3349993915464218,-0.06814910471439362,0.9781985282897949,0.8827919024714354,1.3171564694766547,0.013480260968208313,0.9219292402267456,0.9852444577119194,1.6360650067904534,0.08105532824993134,0.9880049228668213,0.8981161887358953,1.523249971944303,0.3165375590324402,0.9507694244384766,1.068512207082511,1.0763556610270306,-0.2654491364955902,0.5820901393890381,0.781214517897307,1.056050075311794,-0.3866724967956543,0.9922535419464111,0.0032460391521453857,0.9341172313217979,1.0423518220608838,176.22822180293142,177.05578391394155,1.0,0.03232419924698614,0.01940119166858118,-0.010254643873742484,0.1333589622058829,96.23486102300089,0.9660659360602104,101,3.3666666666666667
0.9464510659510953,0.5231927876631504,-0.540039598941803,0.9999369382858276,1.0385534380676171,0.6792716355114466,-0.2527010142803192,0.999954104423523,0.8469097911952139,0.6748068843243592,-0.25988879799842834,0.9999921917915344,1.0003875290814621,1.0511701722535443,0.0006005240720696747,0.9999833106994629,0.8825144171110647,1.0501910572070787,-0.0008456258219666779,0.9999886751174927,0.9861261456384407,1.3456313032209215,-0.06273476779460907,0.9799405932426453,0.8830135398007134,1.327316414810055,0.04695863276720047,0.9268951416015625,0.9896528392770121,1.6396394592313588,0.1134270653128624,0.9890100359916687,0.9000565966981269,1.5231927876631504,0.38813909888267517,0.9521341323852539,1.0815736410415673,1.0745755191703834,-0.2887202203273773,0.6219305992126465,0.7881911923500148,1.0622894824338796,-0.38857823610305786,0.9928601980209351,0.0023787617683410645,0.9414509730962634,1.0506806147303116,176.53996657001767,175.1304543821299,1.0,0.02522715793855466,0.02927500414960547,-0.056031270423033824,0.07578008856033995,95.38352177858671,0.9939014869514865,102,3.4
0.9495898864721293,0.5200193133050818,-0.5405335426330566,0.9999430775642395,1.043816556552696,0.6788040007188691,-0.25330787897109985,0.9999583959579468,0.8491526864597783,0.6715928371533206,-0.2577945291996002,0.9999924898147583,1.0054940143828757,1.0553368444052245,-0.0008770943386480212,0.9999834895133972,0.8859917623687894,1.0547456322168165,0.0006499408045783639,0.9999880790710449,0.9894316478294135,1.3520130606898084,-0.052770476788282394,0.9814601540565491,0.879898298054217,1.3410559654906924,0.03277849033474922,0.9317649602890015,0.9916196372781533,1.6411526945294044,0.1619085967540741,0.9898358583450317,0.8989172299013494,1.5200193133050819,0.4070175290107727,0.9523272514343262,1.0989490264696624,1.07574963604025,-0.3029395639896393,0.6588140726089478,0.791415576608687,1.0652666313732604,-0.3958125710487366,0.9934642910957336,0.0038349926471710205,0.9457428883758325,1.0550412383110206,176.46740835416801,172.7145608313718,1.0,0.01968659734314624,0.018680057440580194,-0.04282795076940809,-0.08163160276749964,95.527949299975,1.018055279288757,103,3.433333333333333
0.9531175452442021,0.5166553817731782,-0.5309082865715027,0.9999485015869141,1.0485376347461124,0.6749434447473679,-0.24144943058490753,0.9999622702598572,0.8514023348519362,0.6714147669183721,-0.25079089403152466,0.9999926090240479,1.008104160314243,1.0569296719459043,-0.0009635344031266868,0.999984085559845,0.8875121630226176,1.05603308342152,0.000733695924282074,0.9999879002571106,0.9925970351371227,1.3564611993973419,-0.042258188128471375,0.9829279780387878,0.8765373051674349,1.3469972467849263,0.0073613012209534645,0.9367843270301819,0.9918942702634835,1.6421998592004017,0.18689849972724915,0.990626871585846,0.8984938030240525,1.516655381773178,0.3755297362804413,0.9541276097297668,1.1116555387154055,1.0762251582874465,-0.2848373055458069,0.6922590732574463,0.7931679685398095,1.0687797069216007,-0.3779664635658264,0.9939616322517395,0.0018762052059173584,0.9478081616684304,1.056481377683712,177.17728787660866,170.46587644820548,1.0,0.014625199983803358,0.009550102822897168,-0.039672623140823635,-0.07153551064568646,95.61631336872645,1.0323114969582479,104,3.466666666666667
0.9478096762691749,0.5087820513248797,-0.5294618606567383,0.9999534487724304,1.0440153748813243,0.6642678769519537,-0.23741856217384338,0.9999657869338989,0.8485327206186121,0.6664647817092452,-0.2391490489244461,0.9999927878379822,1.0029790558554321,1.0501951925768693,-0.00437313225120306,0.999984860420227,0.8831910116763667,1.0486707551432781,0.0041277240961790085,0.9999881386756897,0.9885839791313535,1.3498330022776364,-0.041274577379226685,0.9842628240585327,0.8709425076628314,1.3395831927488,0.010916529223322868,0.9414621591567993,0.9853538198126089,1.630305660284073,0.1963103711605072,0.9913369417190552,0.892444981616554,1.5087820513248797,0.37025901675224304,0.9569108486175537,1.1150757619793055,1.0669001984552515,-0.2753789722919464,0.7224646210670471,0.7906270370838058,1.0644290285848166,-0.36271771788597107,0.9943960309028625,0.0011759400367736816,0.9430850337658994,1.0494329738600738,177.9093716599871,170.34650138207795,1.0,0.012084540114304432,-2.780718722371106e-05,-0.018487784640287303,-0.07199636353429144,95.34043909932869,1.0394939536838832,105,3.5
0.9384357738029451,0.5013885884617847,-0.5152169466018677,0.9999577403068542,1.0354354243831132,0.6500763687841479,-0.22660687565803528,0.9999688863754272,0.8411171715660191,0.6542208119564833,-0.23518744111061096,0.9999927878379822,0.9952550087090496,1.0393055988825617,-0.00414258660748601,0.9999855756759644,0.8752840069187551,1.0376048906875703,0.0038910459261387587,0.999988317489624,0.9812139733112009,1.3391538750835672,-0.037546705454587936,0.9854617118835449,0.8607468857172357,1.327543351585221,0.009891645051538944,0.9458828568458557,0.9750592917300778,1.6130834862159882,0.20462851226329803,0.9919766187667847,0.8829301414880348,1.5013885884617848,0.35067617893218994,0.9597917199134827,1.1125318083892275,1.0532879017763332,-0.2674236595630646,0.7496197819709778,0.7849038291058236,1.0564644156507026,-0.34456104040145874,0.9947327375411987,0.002241790294647217,0.9352695078139024,1.0384552447850661,178.60607287455272,169.85782890473772,1.0,0.01575032081312221,-0.00022468605319819334,0.029510449588796842,-0.0015344830980354692,95.08163785936125,1.0351863486015647,106,3.533333333333333
0.9233718850338273,0.4910472612639614,-0.4996190667152405,0.9999615550041199,1.0180497500748347,0.6319557631996279,-0.2229093313217163,0.9999717473983765,0.830661063031995,0.6414300799373271,-0.19456295669078827,0.9999927878379822,0.9801794935586893,1.0228565226864057,-0.01122014969587326,0.9999862909317017,0.8619520549598344,1.021089129064806,0.010945566929876804,0.9999885559082031,0.9665962822468929,1.3186534332892976,-0.040582917630672455,0.9864521622657776,0.8466323113463514,1.308245629421501,0.01817445084452629,0.9496210217475891,0.958309828017837,1.5884467801419502,0.19948309659957886,0.9924571514129639,0.8680449690109501,1.4910472612639614,0.34822410345077515,0.9622085690498352,1.1033814623481863,1.0336327098316191,-0.2652188837528229,0.7741812467575073,0.7763334246155854,1.0410645929595295,-0.2934046983718872,0.9950292706489563,0.005205899477005005,0.9210657742592618,1.0219728258756058,179.13001684478786,170.26522124430775,1.0,0.0028819417602481082,-0.002392418708906697,-0.09919795604736452,-0.017062644870837806,94.67705929313178,1.025286903141544,107,3.566666666666667
0.8959514128484023,0.4749106137796771,-0.49547767639160156,0.9999651908874512,0.9900998625353762,0.6116125103072149,-0.20537981390953064,0.9999743700027466,0.8064998685361294,0.6228596063242675,-0.19876745343208313,0.9999929070472717,0.9529775184937688,0.9928598932023835,-0.009623383171856403,0.9999867677688599,0.8381247330256982,0.9908352179997332,0.009324396960437298,0.9999885559082031,0.937479151988289,1.2784542691279932,-0.031039291992783546,0.9871683120727539,0.8218444788990618,1.2685970317853057,0.013271679170429707,0.9529193639755249,0.9290407243225005,1.5443025874563727,0.1961340457201004,0.9928545951843262,0.8417505565830237,1.474910613779677,0.31868305802345276,0.9644739627838135,1.0741714683658976,0.9930369680615172,-0.2639743685722351,0.7964507341384888,0.7584923686473276,1.013082010557641,-0.3070582151412964,0.9952849745750427,0.006367802619934082,0.8955511257597335,0.9918475556010583,178.71181770009196,171.13450168212887,1.0,0.012708660961211208,0.00012120086844227325,0.0763277542242309,0.018813420756261353,94.5514708199193,0.9982170845777015,108,3.6
