nose_x,nose_y,nose_z,nose_visibility,left_shoulder_x,left_shoulder_y,left_shoulder_z,left_shoulder_visibility,right_shoulder_x,right_shoulder_y,right_shoulder_z,right_shoulder_visibility,left_hip_x,left_hip_y,left_hip_z,left_hip_visibility,right_hip_x,right_hip_y,right_hip_z,right_hip_visibility,left_knee_x,left_knee_y,left_knee_z,left_knee_visibility,right_knee_x,right_knee_y,right_knee_z,right_knee_visibility,left_ankle_x,left_ankle_y,left_ankle_z,left_ankle_visibility,right_ankle_x,right_ankle_y,right_ankle_z,right_ankle_visibility,left_wrist_x,left_wrist_y,left_wrist_z,left_wrist_visibility,right_wrist_x,right_wrist_y,right_wrist_z,right_wrist_visibility,trunk_lateral_inclination,center_mass_x,center_mass_y,left_knee_angle,right_knee_angle,person_height,center_mass_velocity_x,center_mass_velocity_y,center_mass_acceleration_x,center_mass_acceleration_y,body_orientation,torso_leg_ratio,frame,timestamp
0.6058812794258206,0.30566806387569895,0.42268556356430054,0.9999871253967285,0.5228428465279941,0.4539204038106083,0.19047047197818756,0.9999986886978149,0.695112671972282,0.4414833754858236,0.0948641449213028,0.9999860525131226,0.5817352335009858,0.7550507536884657,0.04478848725557327,0.9999879002571106,0.6713867301329008,0.7529996857905874,-0.04509605094790459,0.9999799132347107,0.605678863435426,1.044719591027582,0.1618371307849884,0.9834555983543396,0.6863923810136386,1.0572606555150943,0.03340845927596092,0.8665571212768555,0.6047841928383606,1.305668063875699,0.2506813406944275,0.9898104667663574,0.7004027997404065,1.3156956954764956,0.10462218523025513,0.9450648427009583,0.5007233038459159,0.8159193833269585,0.2240515947341919,0.9960852265357971,0.7227853216004244,0.7748919650103961,0.08747811615467072,0.9120504260063171,0.00917401909828186,0.6265609818169433,0.7540252197395266,175.0783116280909,179.7203341550393,1.0,-0.4332843548678452,0.014500038980072455,-2.271390598244899,0.07862951973738662,99.75512972403826,0.8054205509078383,0,0.0
0.5844315336397528,0.28714275494639085,0.2979586124420166,0.9999859929084778,0.5026832842468861,0.4254598274858149,0.058532677590847015,0.9999988079071045,0.6763419913856749,0.4127388054792768,0.04346038028597832,0.9999871850013733,0.5496735441510862,0.7484133354805694,0.0332552008330822,0.9999889135360718,0.6503206325257561,0.7437218374873137,-0.03345441073179245,0.999981701374054,0.5803398065814172,1.03468986131027,0.16626127064228058,0.9810358285903931,0.6730413506300661,1.042797604388309,0.06865458190441132,0.8780451416969299,0.5977623978736171,1.2936784358992903,0.28309860825538635,0.9831190705299377,0.6819270520615867,1.2871427549463907,0.17849032580852509,0.9436673521995544,0.4772013077553595,0.7974265143936893,0.10587368160486221,0.995905339717865,0.7082780204173312,0.7644451087230305,0.04330103471875191,0.9005178213119507,0.009674310684204102,0.5999970883384211,0.7460675864839416,177.73431129948347,177.73826197669385,1.0,-0.05975712969123959,0.11370746072399526,2.7870143304708126,0.7703331675531137,95.60971790257732,0.8413118401773834,1,0.03333333333333333
0.5765684473305213,0.28185614738139214,0.22509142756462097,0.9999858140945435,0.4913956498764999,0.4093001225706175,0.012630688026547432,0.9999988675117493,0.6698914595137893,0.4017798836366798,0.01439813245087862,0.9999879002571106,0.5485512295201779,0.7486891707545392,0.03434479981660843,0.99998939037323,0.6442810165228207,0.7421635445679807,-0.03450308367609978,0.9999828338623047,0.5735804910916951,1.0342540597668557,0.18527908623218536,0.980551540851593,0.6673839103226192,1.0343300484604685,0.07981139421463013,0.8887665271759033,0.5942405970256059,1.2883388842439483,0.3225243091583252,0.978293240070343,0.6785455461020121,1.281856147381392,0.2103148251771927,0.9430133700370789,0.4733190818273719,0.7891912998462375,0.05588176101446152,0.9958886504173279,0.6983850440731509,0.7584426847605743,-0.007885902188718319,0.8881759643554688,0.005769014358520508,0.5964161230214993,0.74542635766126,179.63952483417384,178.0606537875387,1.0,0.012120781151395057,0.043809445359276784,0.5380425292215217,-0.5195970887044937,95.65967114196603,0.8574220631832485,2,0.06666666666666667
0.567445160075521,0.2735633974504468,0.26198646426200867,0.9999814629554749,0.4916519166950572,0.401849667241565,0.031676407903432846,0.9999987483024597,0.6606541945621797,0.3888942690909472,0.007822543382644653,0.999987006187439,0.5395388994772292,0.7504895727061502,0.03124256432056427,0.9999812245368958,0.638379772823472,0.7419617084727628,-0.03137410432100296,0.999974250793457,0.5701128286154226,1.0363800788401198,0.20405063033103943,0.979356586933136,0.6626762773768179,1.0340172327743522,0.10056830942630768,0.8971240520477295,0.5891996539823845,1.2843307611601698,0.35442012548446655,0.9659008383750916,0.6749624759797733,1.2735633974504468,0.23885197937488556,0.9313462376594543,0.4702805599457491,0.7819303178828825,0.0616743341088295,0.9955825209617615,0.6938606989414073,0.7539478227747575,0.012551827356219292,0.8802400827407837,0.010022938251495361,0.5889593361503507,0.7462256405894565,178.29768097572565,178.18053321658803,1.0,-0.01879078928880101,0.05469468791295305,-0.2380341649135505,0.08695102649840097,92.88965494421826,0.8852805846733535,3,0.1
0.570165409401072,0.27260479159275314,0.28632161021232605,0.9999628067016602,0.49109309768691034,0.39971482379806306,0.059563834220170975,0.9999982714653015,0.6591712342557848,0.3904493131622516,0.007837328128516674,0.9999856948852539,0.541559415634953,0.7516819534519752,0.03645911440253258,0.9999731183052063,0.6386003398221969,0.7403061096437507,-0.036595094949007034,0.9999672174453735,0.5697375641982093,1.0348507577812325,0.21201050281524658,0.977726399898529,0.6620268486540741,1.0364401722760739,0.10074666887521744,0.9049839973449707,0.5908464433479846,1.2804088637614477,0.3422502875328064,0.9574066996574402,0.6774459182340664,1.2726047915927532,0.21660467982292175,0.9270621538162231,0.4682927545247009,0.7810980254574059,0.0982687696814537,0.9922181963920593,0.6962893674361068,0.753343792670514,0.006340706255286932,0.8660629391670227,0.00716787576675415,0.590079877728575,0.7459940315478629,179.23043201106495,179.21238849832557,1.0,0.008357759011931486,-0.0020830097979579517,0.20834463990689517,-0.4357323293129755,91.4735487048342,0.8900457583848068,4,0.13333333333333333
0.5756677916431397,0.27591006683629693,0.26519083976745605,0.999954879283905,0.4945532981834088,0.4011425508528114,0.04132039099931717,0.9999980926513672,0.6660577830772314,0.390791309780519,0.0029394105076789856,0.999985933303833,0.5429357196899761,0.7603162867998202,0.03277215361595154,0.9999725818634033,0.6437400941455783,0.7464054086321918,-0.032903991639614105,0.9999674558639526,0.5716053489152856,1.0363284641868358,0.20542113482952118,0.9772202372550964,0.6673579791065776,1.0373901498520388,0.10106275975704193,0.9122483134269714,0.595006741645725,1.2888350607439336,0.3195449709892273,0.9533103704452515,0.6830561705304834,1.2759100668362968,0.20826506614685059,0.9239546060562134,0.47435602929794213,0.7854358317708192,0.07895012199878693,0.990768551826477,0.7010185406082049,0.7565977463488877,0.007625744678080082,0.8718037605285645,0.007944107055664062,0.5933379069177772,0.753360847716006,179.36474256463777,179.12523044456498,1.0,-0.011113469229256967,0.010447571979590602,-0.1473670345125253,0.09463778157194302,89.81471447243598,0.8997988144707475,5,0.16666666666666666
0.5729193343826872,0.2740011229419391,0.24573588371276855,0.9999499320983887,0.4937132242223693,0.3976056651635149,0.008616002276539803,0.9999979734420776,0.6628795855510572,0.38509550986165875,-0.005234879441559315,0.9999858736991882,0.5433131679320695,0.7580815612538819,0.025364017114043236,0.9999732971191406,0.641708991148482,0.7457281162267742,-0.025492850691080093,0.9999685287475586,0.5698198458836305,1.0379594549609679,0.1997707486152649,0.9769004583358765,0.664464569293092,1.0362808088665272,0.11070698499679565,0.9182020425796509,0.5933056420459434,1.2901919377691848,0.31806886196136475,0.9514486193656921,0.6799886784663943,1.2740011229419392,0.21393375098705292,0.9229302406311035,0.47136832840064297,0.7856048240601089,0.05309975892305374,0.9869837760925293,0.6972524303735552,0.7564871338697038,-0.0027401470579206944,0.8556979894638062,0.009633034467697144,0.5925110795402757,0.7519048387403281,179.90933803182165,179.25817941428153,1.0,0.008619904008829043,0.007894275888246987,0.14791745237974419,-0.01891382441214007,90.67850374074634,0.8990243633406021,6,0.2
0.5649181823707944,0.2708302969967166,0.25366562604904175,0.9999330043792725,0.4873878445082586,0.39384820996872416,0.012252879329025745,0.9999976754188538,0.6553021973507658,0.3812888556126611,-0.005716447718441486,0.9999850988388062,0.5367953054523674,0.7537126361103922,0.024332914501428604,0.9999715685844421,0.6351552604275731,0.7408722885506033,-0.024457046762108803,0.9999672174453735,0.5645459889465027,1.0313623424598541,0.2007535994052887,0.9772239923477173,0.6575055579084438,1.0287212514861213,0.11036026477813721,0.9243273735046387,0.5892196896105253,1.2838644593889554,0.3161018490791321,0.9505429267883301,0.672827194963511,1.2708302969967167,0.20581316947937012,0.9231117367744446,0.46548718977800657,0.7774278343302987,0.0546998493373394,0.9851491451263428,0.6921418006003127,0.7544102162939057,-0.011035892181098461,0.85340815782547,0.009771943092346191,0.5859752829399703,0.7472924623304977,179.87336795867887,179.1812039311443,1.0,-0.0030719301616486455,0.02366718354946128,-0.08687290675936285,0.11870736439310126,90.3799418851021,0.8965353492721603,7,0.23333333333333334
0.5690583172498828,0.2709113652135094,0.2275000363588333,0.999910831451416,0.48912813829070667,0.39706929198289875,0.0017441802192479372,0.9999967813491821,0.6583455380507569,0.3803035174376762,-0.04142649844288826,0.9999842047691345,0.539087618180452,0.7561746325468826,0.02912389673292637,0.9999592900276184,0.6376755735320372,0.7420925826386365,-0.029270028695464134,0.9999573230743408,0.5697051400485319,1.029797626215291,0.18955597281455994,0.9755219221115112,0.6595799937312498,1.027208259530105,0.10285460948944092,0.9276777505874634,0.5925194322610798,1.2839741955023733,0.28872448205947876,0.9454324245452881,0.6751936788243652,1.2709113652135093,0.1766936331987381,0.9169555306434631,0.4670871969327324,0.7795009944098198,0.04667110741138458,0.9811599850654602,0.6984070417552193,0.757748546243756,-0.05947872996330261,0.8605387806892395,0.01300010085105896,0.5883815958562446,0.7491336075927595,178.74433798258528,179.27264204402326,1.0,0.0029246504223996396,-0.005434690832009376,0.044844873703620586,-0.21786047499347874,89.79127465305355,0.9025927949004382,8,0.26666666666666666
0.566847064615697,0.2661099185949998,0.21655526757240295,0.9998753070831299,0.48836604899697683,0.3922293621955738,-0.008360655978322029,0.999995768070221,0.6592464050081983,0.38090632634552396,-0.0591142401099205,0.999983012676239,0.5373996029311466,0.7536873164541912,0.030477434396743774,0.9999484419822693,0.6362815678758058,0.7396506719637809,-0.030629554763436317,0.9999480843544006,0.5692249611890434,1.0273941775158837,0.17703314125537872,0.9731324315071106,0.6582806768738957,1.024829484552577,0.10154688358306885,0.9290123581886292,0.5923750994200973,1.2832608331122826,0.2599111795425415,0.9405436515808105,0.6758261949308897,1.2661099185949998,0.17588965594768524,0.9090386629104614,0.4673618838247228,0.7774295516988244,0.04016397148370743,0.9756953716278076,0.6975858272763332,0.7572067720822749,-0.07494240999221802,0.8666064739227295,0.008801400661468506,0.5868405854034763,0.746668994208986,178.53759031708157,179.7479906784629,1.0,-0.0007518673718139672,-0.004781030542786003,-0.02791710658632519,0.004871823030856102,89.64593921230743,0.9072797457349915,9,0.3
0.5671591376401235,0.2674935988006333,0.22096481919288635,0.9998592138290405,0.4881998599688023,0.39230993745194104,-0.0012503316393122077,0.9999948740005493,0.6594659876876454,0.3830819266673734,-0.05495843291282654,0.9999828338623047,0.5369648580304709,0.7552783616449339,0.0320284441113472,0.999932587146759,0.635237208495175,0.7405500270272225,-0.03217466548085213,0.999936580657959,0.5690580635179707,1.0244035408205556,0.1885613352060318,0.9702737927436829,0.6568786127079173,1.0253909746254761,0.10078917443752289,0.9310676455497742,0.5908343647317261,1.2770554471435789,0.26847535371780396,0.9305524826049805,0.6744455995324284,1.2674935988006333,0.17593710124492645,0.9000086784362793,0.46996760826890305,0.7751258193816384,0.049238115549087524,0.971994936466217,0.6971252056500189,0.7563127760276322,-0.06599070131778717,0.8763387203216553,0.0071884989738464355,0.5861010332628229,0.7479141943360782,178.1257878403666,179.80529056416339,1.0,0.004164980813212815,0.022450646765935597,0.03856169208531114,0.21356120888791777,89.12827073189747,0.9133226284051603,10,0.3333333333333333
0.5678629854628904,0.27017205210887113,0.2076319456100464,0.999839723110199,0.48932724155428237,0.39247533917479516,-0.009571760892868042,0.999993622303009,0.6604630876576076,0.3845722479135978,-0.0621291808784008,0.9999825358390808,0.5371230040912478,0.7570867652337142,0.03032594546675682,0.9999139308929443,0.6348471372550504,0.7416189256956647,-0.03047620877623558,0.9999241232872009,0.568579269638967,1.0261140813270353,0.18908128142356873,0.9676586985588074,0.656356493640656,1.0264761220802796,0.10225386917591095,0.9318329691886902,0.5908783350620282,1.280533098893599,0.27544793486595154,0.9227210879325867,0.6734725512278397,1.270172052108871,0.18739080429077148,0.889815628528595,0.47338452930526304,0.7736585385803787,0.034632984548807144,0.9671461582183838,0.6969397637687907,0.7571353074377493,-0.07168848812580109,0.8862125277519226,0.006162136793136597,0.5859850706731491,0.7493528454646895,178.3399242991232,179.69942135564042,1.0,0.0033845822269703897,0.016828137408245333,-0.006122183539734273,-0.04416369869837302,88.47394167739137,0.9081448038224506,11,0.36666666666666664
0.5680371051361334,0.2726282032503373,0.21554064750671387,0.999826967716217,0.4887332246938939,0.39400415219401314,-0.011795705184340477,0.9999933838844299,0.661342070441016,0.38241124795391573,-0.05801120400428772,0.999983012676239,0.5396755100395747,0.7591239226764438,0.028219792991876602,0.9999126195907593,0.6370623619868419,0.7443082909277643,-0.02837095595896244,0.9999241232872009,0.5702704746762309,1.0305423106961598,0.18305717408657074,0.965567946434021,0.6579555221633838,1.0293542080359104,0.10510114580392838,0.9326045513153076,0.5933062864401168,1.2847471107825505,0.26573053002357483,0.9159674048423767,0.6748870381507477,1.2726282032503373,0.18192198872566223,0.8824346661567688,0.4742345888138905,0.7745688743219369,0.04163949191570282,0.9620236754417419,0.6974048500214732,0.758877693703795,-0.06232527643442154,0.8940771818161011,0.009022235870361328,0.5883689360132083,0.7517161068021041,178.74657323776472,179.789140676806,1.0,0.009892687636854943,0.007382418149003001,0.0499894452120998,-0.07286654447292681,89.29257418935457,0.9065437414822886,12,0.4
0.5677070818867582,0.2742751728529538,0.2148595154285431,0.999813973903656,0.4895492033173021,0.3946433887589721,-0.04007141664624214,0.9999927282333374,0.6626451585320013,0.382086646950478,-0.09224739670753479,0.9999820590019226,0.5408047595362998,0.7615176753175413,0.02963513694703579,0.9998961091041565,0.6385993543477928,0.7468479778049117,-0.029794935137033463,0.9999097585678101,0.570388172557819,1.0316516966683296,0.19531813263893127,0.9645180106163025,0.6594620682541084,1.0293420995164926,0.1086382046341896,0.9340294599533081,0.5921161702125456,1.2835040477890123,0.27847710251808167,0.9137224555015564,0.6758877286280506,1.2742751728529538,0.18740712106227875,0.8795429468154907,0.4730991833414695,0.7757998441714349,0.007822385989129543,0.9612454771995544,0.6998571932724764,0.7606220859226839,-0.10703754425048828,0.900193989276886,0.009755074977874756,0.5897020569420464,0.7541828265612266,178.68108090125955,179.6128836553186,1.0,0.0023978047687660095,0.009346860827397826,-0.06182558255968299,0.01605940728845964,89.4221875381251,0.9123326847053885,13,0.43333333333333335
0.5673344852370319,0.2741358089357896,0.20493340492248535,0.9997990727424622,0.4911716040768958,0.39458541701120603,-0.039449356496334076,0.999991774559021,0.6634542504822528,0.3818956895192193,-0.10113503783941269,0.9999815821647644,0.5411296512431262,0.7608852683850508,0.033568158745765686,0.9998816847801208,0.6391718478577831,0.7464174827497878,-0.033730410039424896,0.9998993873596191,0.5691059059718241,1.0312892999085974,0.2027597874403,0.9628990888595581,0.6599922089101684,1.0300928782544476,0.10792189836502075,0.9355970621109009,0.5907717117256861,1.2816910981168388,0.2919101119041443,0.9111946821212769,0.676055888437364,1.2741358089357895,0.19014015793800354,0.8765316009521484,0.475630131294654,0.7756507015059761,0.00773199275135994,0.9588231444358826,0.700092515115307,0.7604808084992745,-0.12155129015445709,0.9072485566139221,0.009857118129730225,0.5901507495504547,0.7536513755674193,179.03829441729485,179.56825904925975,1.0,0.002720122481542042,-0.004588657742579699,0.0023503241011280916,-0.10172342067288215,89.37202492714788,0.9125791655425225,14,0.4666666666666667
0.568602413191442,0.2741800274432886,0.19546812772750854,0.9997841119766235,0.4927024404319675,0.3953765184212062,-0.03826924413442612,0.9999908208847046,0.6648359492295897,0.38252821454666336,-0.09016482532024384,0.9999814033508301,0.5417916070802171,0.7610160679546563,0.0333661325275898,0.9998675584793091,0.639970670016507,0.7467912410122538,-0.03353403881192207,0.9998895525932312,0.5692353949107202,1.0324845427250469,0.19361579418182373,0.9604856967926025,0.6609091046814783,1.0295516979841186,0.10403233766555786,0.934851884841919,0.5914914054289002,1.2833288655696866,0.2605348825454712,0.9061595797538757,0.6766117210142385,1.2741800274432886,0.18288901448249817,0.867816686630249,0.4776230516865499,0.7761766003251928,0.005427288822829723,0.9573760032653809,0.700927159042062,0.7614337291315579,-0.11333484947681427,0.9146022796630859,0.009971052408218384,0.5908811385483621,0.7539036544834551,179.29761902123613,179.43773189439443,1.0,0.001365112016293936,-0.003326164162513528,-0.010113667170324563,0.0094373193395159,89.40253605785475,0.911922328954801,15,0.5
0.5682413726292139,0.2741541776499439,0.1920444667339325,0.9997679591178894,0.49258462102012585,0.3956848366442738,-0.03675264120101929,0.9999896287918091,0.6648665122724473,0.3818529875362096,-0.09025423973798752,0.9999810457229614,0.5422359495093769,0.7606138409616913,0.033250026404857635,0.999843180179596,0.6401334715030841,0.7465794644039863,-0.033420052379369736,0.9998729825019836,0.5695000457837224,1.0329014366987765,0.18829591572284698,0.9554530382156372,0.6609312434092897,1.0288702418649698,0.10317651927471161,0.9311740398406982,0.591551153090265,1.2838669701864733,0.2540969252586365,0.8940992951393127,0.6767401352206736,1.2741541776499439,0.18018685281276703,0.8518993258476257,0.4795698323113806,0.7760106120697106,0.008760903961956501,0.9504258036613464,0.7016702888832879,0.7629228996546953,-0.11242382228374481,0.9194029569625854,0.010734617710113525,0.5911847105062304,0.7535966526828388,179.3034475876095,179.4740389323168,1.0,0.0024653523686400925,-0.002225054770299149,0.008510567715482647,0.008516358863964402,89.58973123966315,0.9105077202741843,16,0.5333333333333333
0.568770915936531,0.27418631527140397,0.17449036240577698,0.9997571110725403,0.49333486015148603,0.39523893400129895,-0.044567499309778214,0.9999887943267822,0.6657236507713735,0.3824039346849647,-0.10844848304986954,0.9999808073043823,0.5420737175203286,0.7612842949945694,0.03439199924468994,0.9998293519020081,0.6409500202408491,0.7471940727673663,-0.0345623753964901,0.9998631477355957,0.5703640790411741,1.0332338806227996,0.19050748646259308,0.9523946642875671,0.6617561790720866,1.029467020064709,0.10318247228860855,0.9296477437019348,0.5918621886810066,1.2838792397053047,0.25750333070755005,0.8897224068641663,0.6774971949329962,1.274186315271404,0.18225060403347015,0.8442761898040771,0.48089031824220196,0.7768716807059544,-0.003858548356220126,0.9486383199691772,0.7022245749455331,0.7634626444120042,-0.1306806057691574,0.9248434901237488,0.009949356317520142,0.5915118688805888,0.7542391838809679,178.96331858133604,179.4647396576206,1.0,-0.0026952906196548777,-0.0017645684029306684,-0.038267724383264506,0.0034320100880043205,89.47406360407231,0.912687123218442,17,0.5666666666666667
0.5684378314075691,0.2742280568951562,0.18166792392730713,0.9997519254684448,0.493854631235995,0.3948621986148206,-0.037644870579242706,0.9999881386756897,0.6656935068264244,0.3821294626606999,-0.09703594446182251,0.9999809861183167,0.5418583344328224,0.7609815131391947,0.03427743911743164,0.9998137950897217,0.6407683149832011,0.7465619292278451,-0.034442879259586334,0.9998533725738525,0.5696505223258,1.0352780367585623,0.1904057413339615,0.950137197971344,0.6613572041171324,1.029686587614623,0.10319171845912933,0.9288787245750427,0.5918167587637599,1.2831810608284966,0.26670897006988525,0.8831573128700256,0.6770104185453073,1.2742280568951563,0.1879492998123169,0.835784375667572,0.4814095169976135,0.7762908570950391,0.010173944756388664,0.9466036558151245,0.7015028330700579,0.7626593705164766,-0.11496277898550034,0.9305978417396545,0.009876430034637451,0.5913133247080117,0.75377172118352,179.32395036794233,179.50329235730365,1.0,0.0013802518226216788,0.00013031166657266486,0.03097971634612199,0.014401190514347458,89.17529249481443,0.9115026746603111,18,0.6
0.5684417169035691,0.2742930074786832,0.1959356963634491,0.9997418522834778,0.49386178479746534,0.3948691012487209,-0.024183696135878563,0.9999875426292419,0.6658765286967068,0.38208028074721767,-0.09156903624534607,0.999981701374054,0.5419045494948055,0.7608146053876123,0.034349799156188965,0.9998125433921814,0.6406151323570717,0.7462001383195932,-0.034512512385845184,0.9998553395271301,0.5692175802075239,1.0357197079841176,0.18917742371559143,0.9488074779510498,0.6612080599910827,1.0290555257494556,0.09680748730897903,0.9302018880844116,0.591973330980766,1.2829830144661,0.252923846244812,0.8798249959945679,0.6767335452052236,1.2742930074786831,0.17003411054611206,0.8324927687644958,0.48154706244080736,0.7759402719296989,0.024648215621709824,0.9428969621658325,0.7016727053624825,0.762321933303409,-0.11246941238641739,0.9365091919898987,0.009923577308654785,0.5912598409259385,0.7535073718536027,179.58417763750668,179.45844476355623,1.0,0.0012843830863821242,9.766254869462762e-05,-0.0007484203066289674,-0.000255861632252341,89.05756782253509,0.9105331263191672,19,0.6333333333333333
0.5684768828787334,0.27437606926816677,0.192766472697258,0.9997397661209106,0.4938350285521554,0.394713507078238,-0.024856852367520332,0.999987006187439,0.6659295866211331,0.3813931488728501,-0.09488140046596527,0.9999820590019226,0.5420737186801943,0.7611529246782456,0.034537579864263535,0.9998072981834412,0.6406140321469662,0.7463778375844081,-0.03470395877957344,0.9998536705970764,0.5691303242695221,1.0352862575200386,0.18952727317810059,0.9478240609169006,0.661209954873912,1.0287566054088404,0.09835193306207657,0.9307696223258972,0.5918668666160457,1.2830502963623214,0.2593696713447571,0.8776819705963135,0.6765945519439248,1.2743760692681667,0.17120899260044098,0.8301642537117004,0.4819117200527438,0.7758021313725176,0.021597130224108696,0.9405437707901001,0.7020631751406871,0.762101751070089,-0.11389967054128647,0.9416223764419556,0.010337531566619873,0.5913438754135802,0.7537653811313269,179.60640886311563,179.41248271779162,1.0,0.0012941643180450276,0.002797885053442875,7.586535506014888e-05,0.020551072116197538,88.97201268943715,0.9112135230422679,20,0.6666666666666666
0.5680795751472187,0.27423407900281155,0.19102415442466736,0.9997411370277405,0.49368103883492126,0.39439127143194375,-0.025229480117559433,0.999986469745636,0.6655805921192085,0.38116263637044795,-0.09444700926542282,0.9999824166297913,0.5417667892839024,0.7618038096348135,0.034785620868206024,0.9997978210449219,0.6403362454878881,0.7470091739064496,-0.03495173901319504,0.9998491406440735,0.5682247499848744,1.0353755859889862,0.19365538656711578,0.9468895196914673,0.6606790998070486,1.0283901595246645,0.09858958423137665,0.9315493702888489,0.5914502686214065,1.2821118856795726,0.27616509795188904,0.8751134872436523,0.6759442493327195,1.2742340790028115,0.17988790571689606,0.8276035785675049,0.4818368975277807,0.7747918166355862,0.0205613374710083,0.9401248693466187,0.7022504363397787,0.7611505995962498,-0.11380060017108917,0.9466258883476257,0.01027601957321167,0.5910515173858953,0.7544064917706316,179.8533907659206,179.4180078667022,1.0,0.00197335323741052,0.010087269391319991,0.0050820017266737984,0.05446453132175026,88.92029910189851,0.9147871415788796,21,0.7
0.5683434865353083,0.27429265446296974,0.17231126129627228,0.9997476935386658,0.4937289272382088,0.39428583227267516,-0.034836094826459885,0.9999863505363464,0.6659465551086062,0.3809413041405813,-0.11501850187778473,0.9999828934669495,0.542104803825953,0.762307229756294,0.03723716363310814,0.9997965693473816,0.6409926747422527,0.7472697038718079,-0.037405263632535934,0.9998494982719421,0.5684741274880692,1.0355588247349532,0.2036440670490265,0.945821225643158,0.6612017248290115,1.0285826592633722,0.1042267307639122,0.9328547716140747,0.5918081214460403,1.2823485651064002,0.2977222204208374,0.8756411671638489,0.6761528987323836,1.2742926544629698,0.2006339281797409,0.8296002149581909,0.4818875760146895,0.7752000027018575,0.019777433946728706,0.9405642747879028,0.7032422444023576,0.7621642308755692,-0.13102871179580688,0.9508945345878601,0.010362476110458374,0.5915487392841029,0.754788466814051,179.8891759087234,179.37311592632335,1.0,0.0021323254580917507,0.0008868199722451902,0.0011494917183397567,-0.06683724260520962,88.84199009777996,0.9158604413699581,22,0.7333333333333333
0.568817927827467,0.27486449668325913,0.1742115020751953,0.9997467994689941,0.49362066260163756,0.3945688152396887,-0.03535473719239235,0.9999861121177673,0.666833305671105,0.38125884157653656,-0.10918222367763519,0.999983549118042,0.5424692905103093,0.7632795016897257,0.035488780587911606,0.999803364276886,0.6417506665240161,0.747923700789875,-0.03566129505634308,0.9998561143875122,0.5689631641267723,1.0361129943016834,0.2013586014509201,0.9441014528274536,0.6617594052792435,1.0287319795815122,0.10417366027832031,0.9324976801872253,0.5923493572775329,1.2829491893379814,0.28855013847351074,0.8742015361785889,0.6763862597397989,1.2748644966832592,0.1994040608406067,0.8274747729301453,0.48229211604987066,0.7760029234661537,0.014820987358689308,0.9359091520309448,0.7038475177073463,0.7625398026952201,-0.11996829509735107,0.9547626972198486,0.010329365730285645,0.5921099785171627,0.7556016012398004,179.86586689023648,179.3252315687491,1.0,0.0014925979622750075,0.0026223465817315906,-0.004743027995196732,0.012837432710747313,88.75463989603286,0.9167464863570745,23,0.7666666666666667
0.5686159564549307,0.2731363384195197,0.18550941348075867,0.9997251033782959,0.4931146143642678,0.3930334209906244,-0.036260999739170074,0.9999850988388062,0.6668734583274181,0.37959615640591055,-0.08929925411939621,0.9999828338623047,0.5419069245373379,0.7612671075592721,0.03047761879861355,0.9997857213020325,0.6418379238812746,0.7464522845054626,-0.030658623203635216,0.999843180179596,0.5683526183017217,1.0350295548751012,0.1870865821838379,0.9430846571922302,0.66104657432099,1.0273396665788426,0.10549205541610718,0.9287378191947937,0.5917258929808856,1.2822336629042665,0.26816526055336,0.8706823587417603,0.6751779301609652,1.2731363384195196,0.20544937252998352,0.8166691064834595,0.481160189814417,0.776138617736653,0.012172093614935875,0.9332075119018555,0.7029950457640173,0.7611820385199743,-0.10921645164489746,0.9575821161270142,0.010441213846206665,0.5918724242093062,0.7538596960323674,179.88358585335763,179.378314941543,1.0,0.003966967340666649,-0.006280023755003529,0.019521220082969713,-0.07015528377994232,89.11522301379213,0.9159071213798106,24,0.8
0.56859016519929,0.27289986078433603,0.1876727193593979,0.9997297525405884,0.4931468028275088,0.39300352224871704,-0.03396659344434738,0.9999849200248718,0.6670010634354122,0.3792211216657009,-0.08985407650470734,0.9999831914901733,0.5418901938416003,0.7611260841866108,0.030888453125953674,0.9997790455818176,0.6423721278452534,0.746288224628115,-0.031068390235304832,0.999839186668396,0.5679623659445729,1.034613018380663,0.19459745287895203,0.940111517906189,0.66143289705676,1.0271410146188527,0.10552070289850235,0.9249931573867798,0.5911826167981379,1.281863688295887,0.2784327268600464,0.861896276473999,0.6748696648328149,1.272899860784336,0.20435412228107452,0.8046707510948181,0.48118997084267257,0.7740930091632767,0.020252447575330734,0.9321178793907166,0.703317549575759,0.7609450804310512,-0.11750571429729462,0.9604893922805786,0.010710984468460083,0.5921311608434269,0.7537071544073628,179.91944040002025,179.24694215871563,1.0,0.0026569577426564213,-0.00031258326384193193,-0.010040753485906174,0.045751695574154864,89.14271329978905,0.91644868184605,25,0.8333333333333334
0.5685632863323264,0.27291214733907715,0.18572914600372314,0.9997360706329346,0.4925253951446471,0.3925521046774427,-0.03259965032339096,0.999984622001648,0.6669660976812782,0.378824647124358,-0.10207339376211166,0.9999836683273315,0.5416859658314295,0.7603889576671926,0.034987688064575195,0.999775767326355,0.6421666070565313,0.7457990958481898,-0.035173866897821426,0.9998394846916199,0.5670780430616257,1.0328011927343936,0.20000779628753662,0.9374169111251831,0.6614786421894977,1.0269345278263793,0.10494472086429596,0.9259545803070068,0.5905305925758695,1.2804168128802063,0.2881801724433899,0.860115647315979,0.6747544992871323,1.2729121473390772,0.203095942735672,0.8061389327049255,0.4798222631279309,0.7739569095406482,0.01948908343911171,0.9313664436340332,0.7038096857983505,0.7611903203364834,-0.12416666746139526,0.9636175632476807,0.010669827461242676,0.5919262864439804,0.7530940267576912,179.9147190885094,179.1597139303549,1.0,-0.0009171907410565772,-0.0038762841860498125,-0.027474700559961436,-0.027397680054290087,89.35069246087434,0.915448120335101,26,0.8666666666666667
0.569184783640506,0.27330947378306225,0.1855286806821823,0.9997406601905823,0.4916322293167475,0.39324259634809783,-0.02531057968735695,0.9999847412109375,0.667681379347864,0.3791455523877752,-0.1010933518409729,0.9999841451644897,0.5418781102003004,0.7615652549396025,0.03701382502913475,0.9997820258140564,0.6429765188569723,0.7468652882051677,-0.03719470277428627,0.9998447895050049,0.567891325396757,1.0341046238790244,0.19988006353378296,0.9365339279174805,0.6626278698556792,1.0280884497384644,0.10557033866643906,0.9277303814888,0.5920756927617804,1.2820252860912522,0.2855607569217682,0.8609335422515869,0.6752623730520548,1.2733094737830621,0.20252163708209991,0.8090168833732605,0.47945625303652184,0.7750397189390871,0.031093787401914597,0.9292668104171753,0.705438074323631,0.7628666221295732,-0.12367995828390121,0.9660032391548157,0.01094275712966919,0.5924273145286363,0.7542152715723851,179.88071708115555,178.95221306572054,1.0,-0.002054672782170865,0.0010080774268429243,-0.008507310062917852,0.03660714205039764,89.49525453340651,0.9169482884053205,27,0.9
0.5702184339709834,0.2738732174117786,0.1714187115430832,0.9997483491897583,0.49170039691190853,0.394397923464878,-0.030199820175766945,0.9999845623970032,0.6690257595284332,0.3801906670434599,-0.12041661888360977,0.9999843239784241,0.5413492458400625,0.763001602384191,0.040720172226428986,0.9997866749763489,0.6440550850266831,0.748231887243452,-0.040889840573072433,0.9998487830162048,0.5686086834248104,1.0350487522884986,0.22633051872253418,0.9352278113365173,0.6641551947546013,1.0295339487900608,0.11458347737789154,0.9290992617607117,0.5940326484168136,1.2766702782322341,0.3349652886390686,0.8619405031204224,0.6766238374982827,1.2738732174117786,0.23114030063152313,0.8114781975746155,0.4794463208989323,0.7766070872145098,0.02965438924729824,0.92563396692276,0.7072244075849301,0.7636665361430599,-0.1407192498445511,0.9676046967506409,0.011007189750671387,0.5927021654333727,0.7556167448138216,179.7153150993687,178.8342153235992,1.0,-0.006637452068987623,-0.000351358796394444,-0.03526447758790051,-0.010484761847018137,89.48787746997202,0.9249451823793873,28,0.9333333333333333
0.5736808287050262,0.27876821560568976,0.16646142303943634,0.9997426271438599,0.4940612720004587,0.3972887331649482,-0.03467695787549019,0.9999839663505554,0.6730624833507781,0.38353162632840887,-0.12325737625360489,0.9999845027923584,0.5443599319764577,0.7687393251240612,0.0410212017595768,0.9997903108596802,0.6474376921221285,0.7538059103052006,-0.04118913412094116,0.9998525977134705,0.5717812670090058,1.0418098037778116,0.2185278683900833,0.935601532459259,0.6687961029980006,1.0348432091482056,0.11417914927005768,0.9317153096199036,0.597806674773811,1.285247506967978,0.316040575504303,0.8660790324211121,0.6810570123344576,1.2787682156056899,0.22537389397621155,0.8174193501472473,0.4815998995981896,0.7823823460304821,0.010583125054836273,0.9234863519668579,0.7124818037682141,0.7681312796240536,-0.1368173509836197,0.9699968099594116,0.010594308376312256,0.5958988120492931,0.7612726177146308,179.63214191421974,178.5315165262623,1.0,-0.00293959117431199,0.008141257212769988,0.02811699298394653,0.06389629620200439,89.46821255341942,0.9243380780826017,29,0.9666666666666667
0.5765893487706586,0.28115844115686595,0.16859114170074463,0.9997443556785583,0.4939144014122683,0.40057194726066725,-0.03464304655790329,0.9999842047691345,0.6749684782381458,0.3867304346050457,-0.11822400987148285,0.9999849200248718,0.5449270407466236,0.7733585760244026,0.04056473821401596,0.9997987747192383,0.648970062226734,0.7581708772661659,-0.040732838213443756,0.9998587369918823,0.5744325961320146,1.0475957941164888,0.20477192103862762,0.9376164078712463,0.6733699819090806,1.0379180808553732,0.11352057754993439,0.9346646666526794,0.6007625898650985,1.2949327047942152,0.27371707558631897,0.8721364736557007,0.6853995049671023,1.281158441156866,0.2083994597196579,0.8254496455192566,0.48326019662267183,0.7881143097179013,0.004161726217716932,0.926557719707489,0.718519938176799,0.7704052978535447,-0.13906143605709076,0.9725785851478577,0.010605782270431519,0.5969485514866788,0.7657647266452843,179.93556976624146,177.8464745379427,1.0,-0.01554112212865011,0.005159995887749844,-0.09991752820184195,-0.023992455551893558,89.48693491842492,0.9250797651769767,30,1.0
0.5860513655610753,0.2866621139594725,0.15774700045585632,0.999755322933197,0.4999204244986259,0.407551436319018,-0.050006330013275146,0.9999849200248718,0.6858022715059169,0.3956424732231898,-0.12350279092788696,0.9999856948852539,0.5520829268063154,0.7855850867325517,0.03976874798536301,0.9998149871826172,0.6590362756340369,0.7695578492543054,-0.03993799537420273,0.9998699426651001,0.5835180374629203,1.0632739706024177,0.18369540572166443,0.9397271275520325,0.6853976127824075,1.0431982479392317,0.11246653646230698,0.936598002910614,0.6096897377891344,1.31645794951746,0.2431294471025467,0.879673957824707,0.6973821380064971,1.2866621139594725,0.2082783728837967,0.8333929777145386,0.48999042998330555,0.8011262118063789,-0.010618283413350582,0.9272311329841614,0.731893034551742,0.7790260883882361,-0.14653164148330688,0.9747230410575867,0.008975952863693237,0.6055596012201762,0.7775714679934285,179.44318196363693,177.3154659552202,1.0,-0.009362611211082802,-0.006540361477537437,0.04629588430910766,-0.0847725177722493,89.33377159104013,0.9337019065658182,31,1.0333333333333334
0.5862824771694224,0.2879971839055843,0.15901117026805878,0.9997564554214478,0.4995678735923574,0.41094660395785015,-0.051331885159015656,0.9999849796295166,0.6880889289796184,0.3998359224280923,-0.12412216514348984,0.9999861717224121,0.5527571408285695,0.7869800391813937,0.03891494870185852,0.9998261332511902,0.6605361767038482,0.7705120744098977,-0.03908558562397957,0.9998777508735657,0.584749606461449,1.0670587943507417,0.17898617684841156,0.9408131241798401,0.6887682102861753,1.039845365010146,0.1123480424284935,0.9369526505470276,0.6093992889905693,1.3233607974819728,0.23538100719451904,0.8845648169517517,0.7005105154068757,1.2879971839055844,0.20441916584968567,0.8374736905097961,0.491405536639083,0.8045971109058785,-0.005228377413004637,0.9255622625350952,0.7372826527682471,0.7783978377535566,-0.141788512468338,0.9767382740974426,0.008337557315826416,0.6066466587662088,0.7787460567956457,178.97702667715745,176.72515931012256,1.0,-0.012047399237397817,-0.01715666427684224,-0.020158296470220955,-0.0807344676973218,89.36372730566774,0.9282372526788193,32,1.0666666666666667
0.5840842392243122,0.28867758472984184,0.16020572185516357,0.9997715950012207,0.4977299196342328,0.41146373231935474,-0.050167880952358246,0.9999856948852539,0.6834615898562686,0.40334064952852205,-0.1213575229048729,0.9999870657920837,0.5511394269648986,0.7850935719245634,0.03792961686849594,0.9998381733894348,0.6575690254795484,0.7683946079388935,-0.03811074420809746,0.9998863339424133,0.5835893578572164,1.0629816164085955,0.15128514170646667,0.9415686726570129,0.6878348069575949,1.0364424578148042,0.06777612864971161,0.9386277794837952,0.6068804732393803,1.3215463224150719,0.17236952483654022,0.8890256881713867,0.6982856606606755,1.288677584729842,0.11532684415578842,0.8431711792945862,0.4901366220818628,0.8051574277639593,0.002994578331708908,0.9268971085548401,0.7372294171573074,0.7751895984242171,-0.1335030496120453,0.9786814451217651,0.006103515625,0.6043542262222235,0.7767440899317284,178.48676685736248,175.93048939951493,1.0,-0.011471397309016938,-0.007574842416397982,0.0042598564436413,0.07266115849799286,89.21808993471087,0.9206912188215745,33,1.1
0.5846871151083141,0.2907179920693373,0.15784518420696259,0.9997875094413757,0.4981580839184371,0.4132925329723774,-0.05294905975461006,0.999986469745636,0.6830083914621765,0.4063675651875029,-0.12236950546503067,0.9999879002571106,0.5520163965038062,0.7857492013011598,0.03719092905521393,0.9998505115509033,0.6579495575131026,0.7685276341860054,-0.03737936168909073,0.9998950362205505,0.5845358137587295,1.0640942443269594,0.1492251604795456,0.942810595035553,0.6892179864357764,1.0367165294101388,0.062019623816013336,0.9399160146713257,0.6072113831870419,1.324111992328978,0.17118729650974274,0.8943849205970764,0.6987146399913153,1.2907179920693372,0.11344502121210098,0.8497193455696106,0.4906742907391552,0.8079984880198204,0.005464139394462109,0.9263524413108826,0.7387231362357373,0.7761013656248381,-0.13227185606956482,0.9803755283355713,0.005192875862121582,0.6049829770084544,0.7771384177435826,178.3202963534502,175.49103632241957,1.0,-0.004475127372274875,-0.008934662498880338,0.053996929215280876,-0.010343968946827235,88.99430142402979,0.9143563388537638,34,1.1333333333333333
0.5844127499170088,0.29197929670861,0.15729591250419617,0.9998018145561218,0.49921130982311074,0.4141768279022474,-0.047603487968444824,0.999987006187439,0.6833047601997524,0.4070249881661624,-0.12685909867286682,0.9999887347221375,0.5533209322813747,0.7852551080657884,0.03931628540158272,0.9998617172241211,0.6586710217047617,0.7681294690534941,-0.039508987218141556,0.9999032616615295,0.5857998330019991,1.0643835242711661,0.15954136848449707,0.9401443004608154,0.6903495826145244,1.035877726238381,0.07347878068685532,0.9400846362113953,0.6087120543044203,1.3267724718950091,0.19797083735466003,0.8955941200256348,0.6981479471652259,1.29197929670861,0.14247719943523407,0.8532034158706665,0.49174092727501917,0.8096605535627269,0.019054600968956947,0.9207011461257935,0.7401377683722196,0.7767952832723005,-0.13353246450424194,0.9818838834762573,0.00535157322883606,0.6059959769930682,0.7766922885596412,178.35350812848094,174.9965676212582,1.0,-0.0021287969899910827,-0.016067630900044042,0.017976048396308477,-0.054280857559690324,89.06304625841388,0.9072548739264203,35,1.1666666666666667
0.5837825256208307,0.29265277289645214,0.21398285031318665,0.9998143315315247,0.49923103528228274,0.4155730628850175,0.006761311087757349,0.9999875426292419,0.6827047096247318,0.4078359335960171,-0.08455152809619904,0.9999895691871643,0.5546685863357819,0.7852841938117217,0.03956926614046097,0.9998721480369568,0.6594633834778897,0.7673569921720779,-0.03977348655462265,0.9999108910560608,0.5874494060534683,1.0664436012006369,0.13622821867465973,0.9407079815864563,0.6916146610470786,1.0359950932356872,0.05380712077021599,0.9429842829704285,0.6129211340484684,1.3299858876936486,0.13534200191497803,0.8993796706199646,0.6989286227299524,1.292652772896452,0.09076179563999176,0.8595604300498962,0.4928782121354259,0.8113954832995394,0.06934496760368347,0.9165245890617371,0.7417154542538195,0.7780816025298565,-0.08298147469758987,0.9833698272705078,0.005776494741439819,0.6070659849068357,0.7763205929918997,178.87038849285418,174.80747418847275,1.0,-0.002239415459089899,-0.01597695816745146,-0.0007956330243881868,0.0009544885629693246,88.82027217503422,0.9013478462033303,36,1.2
0.5901657038130715,0.29825369017549896,0.19242385029792786,0.9998286962509155,0.505399903002094,0.4239590404076854,-0.009048235602676868,0.9999880194664001,0.6894437717234052,0.41264203885363376,-0.10313606262207031,0.9999902844429016,0.5615242070873773,0.7941619900588865,0.04097859188914299,0.9998811483383179,0.666609420499338,0.7753139117157419,-0.04118504375219345,0.9999174475669861,0.5945945367113475,1.0782502036818633,0.14845119416713715,0.9398801326751709,0.698609192915516,1.0460256760779096,0.07295140624046326,0.942216694355011,0.620411682646968,1.343456072079417,0.17541666328907013,0.9004783034324646,0.7050035224576984,1.298253690175499,0.16627749800682068,0.8595926761627197,0.5002374032233337,0.8213348195246553,0.04925868660211563,0.9158994555473328,0.7507578112934108,0.7873244539544022,-0.13942644000053406,0.9847609400749207,0.008346468210220337,0.6140668137933576,0.7847379508873142,178.92024470716933,174.7107901215051,1.0,-0.0035677620527029457,-0.008612271608006922,-0.009839992184649428,0.057199175089673385,88.45218466830363,0.9047978274874063,37,1.2333333333333334
0.5894366725888457,0.29940683341553304,0.20193305611610413,0.9998317360877991,0.5046981428153868,0.42721041632743606,0.006285148207098246,0.9999874830245972,0.6894114233866034,0.41408216999599995,-0.09592348337173462,0.9999908804893494,0.5624431312280782,0.7972280120617632,0.04094850644469261,0.9998876452445984,0.6673660116202318,0.7764011831483656,-0.041158463805913925,0.9999228715896606,0.5972125830079948,1.0822415425061607,0.1527535766363144,0.9356549382209778,0.7004809073370911,1.0470903200295307,0.08669556677341461,0.9388858675956726,0.6230555380819617,1.3487561933014984,0.18825969099998474,0.897267758846283,0.7068299852766743,1.299406833415533,0.1911545693874359,0.8535766005516052,0.5044235600231066,0.8217740421769798,0.08078125864267349,0.8897519707679749,0.7536765359936436,0.7908162117526669,-0.0892149955034256,0.9858590364456177,0.009643703699111938,0.614904571424155,0.7868145976050643,178.5831721674473,174.46678556907335,1.0,-0.012548814575267676,-0.008239900368917228,-0.06949092062668322,0.003152864099201478,87.64295858581498,0.9045193826307975,38,1.2666666666666666
0.5896556873350773,0.299390469574198,0.2098291665315628,0.9998407363891602,0.5051635363864297,0.4272851648395242,0.010528523474931717,0.9999874830245972,0.688035082693346,0.41356139096952294,-0.08877789229154587,0.9999915361404419,0.5627412451085916,0.7963730318982036,0.04024695232510567,0.9998955130577087,0.6666083075216882,0.7753578956747493,-0.040478579699993134,0.9999288320541382,0.5973906278906268,1.0811731267663103,0.13327519595623016,0.9361774325370789,0.6999286602065365,1.0471973091645306,0.08049923181533813,0.9395552277565002,0.6228012466698407,1.3492221178480954,0.1543094962835312,0.9004340767860413,0.7067048143920469,1.299390469574198,0.18472078442573547,0.856112003326416,0.509798989473662,0.8218810106139984,0.08444185554981232,0.8728630542755127,0.7536527579332672,0.792138868953911,-0.0974995568394661,0.9870463609695435,0.010077983140945435,0.6146747763151399,0.7858654637864765,178.47873011818794,174.55100896630628,1.0,-0.003218064523269327,-0.009090993766214268,0.0708658751756635,-0.006441458683276333,87.42858874784937,0.9007924984836583,39,1.3
0.5922600241224579,0.30022138687134126,0.2072506844997406,0.999844491481781,0.5071179876771963,0.42816224170819994,0.005789644084870815,0.9999875426292419,0.6896233169770521,0.4143089088227536,-0.08630869537591934,0.9999920725822449,0.5639547296829619,0.7980792153279521,0.03802718594670296,0.9999022483825684,0.6678220091523491,0.777132173387263,-0.038273684680461884,0.9999338388442993,0.5986367208097559,1.0835030057910005,0.14055874943733215,0.9367294907569885,0.7003398275054745,1.0499351472053111,0.10108138620853424,0.9390721917152405,0.6243644145513291,1.3521669829123235,0.16782191395759583,0.9031654000282288,0.707792591758754,1.3002213868713413,0.1962287575006485,0.8573342561721802,0.5142611893336408,0.8229284865666832,0.08319694548845291,0.855207085609436,0.7538002143513578,0.7938573378413759,-0.08085813373327255,0.9879695177078247,0.010152071714401245,0.6158883694176555,0.7876056943576076,178.54198031999857,174.90806848767585,1.0,-0.00045815563775124837,0.0008296537988981979,0.020757812124893575,0.07457658952857792,87.33305720078351,0.9020810561337709,40,1.3333333333333333
0.5929042538563222,0.3001553934499445,0.2415877878665924,0.9998382925987244,0.5083761749225537,0.4280537348855217,0.024473516270518303,0.9999870657920837,0.689510524551903,0.4142556954890667,-0.054381370544433594,0.9999924898147583,0.5636560744456404,0.7971895920180766,0.032576221972703934,0.9999048113822937,0.6668640826388434,0.7764671328720779,-0.0328192375600338,0.9999365210533142,0.5982376143914171,1.0847517416256387,0.13583043217658997,0.9360939860343933,0.6987660594110452,1.0499108366758616,0.10249614715576172,0.9340477585792542,0.6246353390832683,1.3520582240702712,0.15144595503807068,0.8989545702934265,0.7068207611241201,1.3001553934499446,0.1892198920249939,0.8430014252662659,0.5166571199727126,0.8152735344734272,0.11811220645904541,0.8183000683784485,0.7508549403272531,0.7943201583809024,-0.04193529859185219,0.9885140061378479,0.010118424892425537,0.6152600785422419,0.7868283624450773,178.7826065167368,175.18909239580057,1.0,-0.0016132342323143124,-0.0018621689241157657,-0.008879756697027124,-0.0206836910213986,87.1639429197603,0.8994712653436606,41,1.3666666666666667
0.6026753755809713,0.3043536872229847,0.2511773705482483,0.9997996687889099,0.5169443905813589,0.4328501903602275,0.04361175745725632,0.9999844431877136,0.6978901772281377,0.4189112777574244,-0.029881257563829422,0.999992847442627,0.5700491688914473,0.8043860324739744,0.027014076709747314,0.9999080896377563,0.6733502832860375,0.7852540836598615,-0.027249440550804138,0.9999402761459351,0.6050060420271258,1.0959603452976787,0.13910487294197083,0.9360477924346924,0.7052009437415392,1.0612616587779051,0.10992300510406494,0.9313713908195496,0.6313822584777643,1.3615339260583452,0.19081279635429382,0.8977547883987427,0.714876324829834,1.3043536872229846,0.23138532042503357,0.8367971777915955,0.5304012068765264,0.8078500567870817,0.17494024336338043,0.7489100098609924,0.7573590788927387,0.8051879645417138,0.02799786627292633,0.988787055015564,0.010107487440109253,0.6216997260887424,0.7948200580669179,178.83533149220568,175.69655519666992,1.0,-0.003926474753667269,-0.006880975287219923,-0.01751383621056898,-0.03813929429895059,87.64175857484858,0.9079836043065892,42,1.4
0.6155472240040156,0.3082876208479493,0.2402937114238739,0.9997718930244446,0.5272106720086166,0.4383368898171885,0.047658465802669525,0.9999819397926331,0.7075775298408381,0.4237066908567857,-0.03712143003940582,0.999993085861206,0.5765396383976353,0.8129089085892697,0.026859376579523087,0.999910295009613,0.679503603622988,0.794637177838849,-0.02709699235856533,0.9999430775642395,0.6123092905045987,1.108626835502721,0.14167310297489166,0.9372060298919678,0.7125514307688294,1.0740144257180297,0.1293695867061615,0.9268813133239746,0.6392284275060945,1.3735980317774925,0.203718900680542,0.8967767357826233,0.7232582818051159,1.3082876208479493,0.2675497233867645,0.8280372619628906,0.5421245165380397,0.8024189287473558,0.21294350922107697,0.6850861310958862,0.7623529734606163,0.8206924057765655,0.03169767186045647,0.9886534810066223,0.010486632585525513,0.6280216210103117,0.8037730432140594,178.90401358927787,175.87050653939,1.0,-0.007038388880715393,-0.0023250440438140722,-0.023500695676816466,0.035532983294424114,87.43953905687472,0.9181942191120849,43,1.4333333333333333
0.6279230758268748,0.3121266590746114,0.23157241940498352,0.9997446537017822,0.5366360801604338,0.443820541528487,0.04287932068109512,0.9999785423278809,0.7191318088136618,0.4317807186648429,-0.04771925508975983,0.9999931454658508,0.5832081421645996,0.8249492666073333,0.02670322358608246,0.9999108910560608,0.6869241270264335,0.8087840448708276,-0.026945214718580246,0.9999448657035828,0.6217661310318071,1.1231069214499292,0.16067996621131897,0.9394886493682861,0.7207073346465662,1.088661996347924,0.16172093152999878,0.9206464290618896,0.6485539854301329,1.390887289764035,0.25072529911994934,0.8963039517402649,0.7322455859311908,1.3121266590746115,0.34234973788261414,0.814240038394928,0.5542394996711936,0.7954127039694776,0.2507433593273163,0.6253692507743835,0.7682751303243066,0.8357290561186144,0.02578800916671753,0.9881814122200012,0.008523046970367432,0.6350661345955165,0.8168666557390803,178.34403224001207,176.07305482951026,1.0,-0.006405623747455341,0.023302667908657728,0.005569906564405334,0.1982036281634556,88.1078544122589,0.9391494916453237,44,1.4666666666666666
0.6309479394667764,0.3133405975024992,0.23600062727928162,0.9997298121452332,0.5384429172567406,0.44574851426088596,0.051571547985076904,0.9999760985374451,0.7213537345441464,0.4355121177007282,-0.03583962842822075,0.9999933242797852,0.5844128977220725,0.8281995291817241,0.023717772215604782,0.9999130964279175,0.6879375012173952,0.8126886223868897,-0.023983024060726166,0.9999473094940186,0.6237656510061588,1.126226387783517,0.1552247852087021,0.9420318007469177,0.7221994693750441,1.0920344402908275,0.16586512327194214,0.9165118932723999,0.6509744827434409,1.3945682830318846,0.23128804564476013,0.8972086310386658,0.7341021382871835,1.3133405975024992,0.337656170129776,0.8061445355415344,0.5581709336116095,0.7945594745250871,0.25901827216148376,0.5717148780822754,0.7688309530844452,0.8393723624467989,0.03574364259839058,0.988164484500885,0.007227987051010132,0.6361751994697338,0.8204440757843069,178.26771686720318,176.08616834187802,1.0,-0.003652799000236795,0.01076360532713683,0.01990672864227584,-0.09056721195112057,88.33283683993798,0.9452909342006193,45,1.5
0.6347584116472647,0.3154606021398896,0.23456797003746033,0.9997074604034424,0.541084923832327,0.4477313053600118,0.06581733375787735,0.9999721646308899,0.7225913487970353,0.4403492243442953,-0.04264727234840393,0.9999933838844299,0.5848215873205719,0.8320218014564993,0.027255693450570107,0.99991375207901,0.6874862585836604,0.8175771709072793,-0.02754354476928711,0.999949038028717,0.6266772129793469,1.1268693710872069,0.17291702330112457,0.9432032704353333,0.7221039006913385,1.0955529208074628,0.16565892100334167,0.9117074012756348,0.6524089151564095,1.3902623055307157,0.255086213350296,0.8961763381958008,0.7345666420788753,1.3154606021398896,0.3402184844017029,0.796522319316864,0.5679997709306424,0.7907762249994911,0.2885361313819885,0.5194650292396545,0.7663731588824896,0.8433179953153965,0.04670793563127518,0.9869694709777832,0.00520932674407959,0.6361539229521161,0.8247994861818894,177.50015952000214,176.14486307983768,1.0,-0.003118219520692601,0.02905355782153089,0.004051161727738621,0.13797424250151988,88.48419336390272,0.9589094086878607,46,1.5333333333333334
0.6382013135627262,0.31899196680116926,0.23117363452911377,0.9997166395187378,0.5451158304199676,0.45075240246521425,0.05760658532381058,0.9999712705612183,0.7287188634005066,0.44772825113178266,-0.04723607748746872,0.999993622303009,0.5889100046751958,0.8368113243509384,0.028400754556059837,0.9999183416366577,0.6904722884972181,0.8233067957466553,-0.028695542365312576,0.9999523162841797,0.6300303121215345,1.1290554842841518,0.17735452950000763,0.9438749551773071,0.7248940617252645,1.1012267782510883,0.15374477207660675,0.9091992974281311,0.6550999126175815,1.3886097014267584,0.2577037513256073,0.898068904876709,0.7376184651342115,1.3189919668011694,0.31079038977622986,0.7958358526229858,0.5715527279668967,0.7999472283217506,0.2605723738670349,0.47762244939804077,0.7678497158952905,0.8470089295625105,0.018847612664103508,0.986677885055542,0.002125263214111328,0.639691146586207,0.8300590600487968,177.5076807896312,176.28367923355898,1.0,0.006846568329857755,0.013973996823270387,0.07552162004738724,-0.1150479739401607,88.89784171436474,0.9701391238295803,47,1.5666666666666667
0.6455849885807684,0.32896835323250734,0.23789116740226746,0.9996989965438843,0.554718789920507,0.4625313733745265,0.06152712553739548,0.9999687075614929,0.7368292879841283,0.4527103602720293,-0.03609156608581543,0.9999934434890747,0.5967539777961449,0.84238113127008,0.028351420536637306,0.9999169111251831,0.6952597241717509,0.8286325411960527,-0.02863859012722969,0.999951958656311,0.6351399128583669,1.1364444586189528,0.1405588686466217,0.9458300471305847,0.7294389896068832,1.1086964921379083,0.1446816623210907,0.906348466873169,0.6591324884899362,1.3983009973090208,0.16953489184379578,0.8997782468795776,0.7423987597475896,1.3289683532325074,0.2772172689437866,0.7881754636764526,0.5733072061279645,0.8078442583570575,0.23410125076770782,0.446466326713562,0.7720812904643257,0.8522876610605205,0.01124727912247181,0.9862879514694214,0.00685545802116394,0.6460068509839478,0.8355068362330663,177.7979757645552,176.40911290014375,1.0,0.014954634584421823,-0.0012744852054154684,0.060679315239398575,-0.11548451153633134,88.36928296848079,0.9540043995453474,48,1.6
0.6531112697382578,0.32972056498947183,0.20190683007240295,0.9997220039367676,0.5624640038580185,0.46144532690512274,0.054802972823381424,0.9999693632125854,0.7396400650306835,0.451467900272406,-0.06526745855808258,0.999993622303009,0.6054349289582275,0.8406000816040538,0.03458482027053833,0.9999198913574219,0.6998901707046907,0.8278419823334562,-0.03485199064016342,0.9999539256095886,0.6359499304010595,1.130808892077359,0.14329832792282104,0.9471511244773865,0.7288526132153857,1.1083570264383824,0.12355399131774902,0.906182587146759,0.6567477013237024,1.397167629436367,0.17878742516040802,0.9009111523628235,0.7412663440615986,1.3297205649894719,0.24315252900123596,0.7878351807594299,0.5725530771912574,0.8082878967809403,0.2089899778366089,0.4267330467700958,0.7715148780640556,0.851318420826747,-0.03454381227493286,0.9860804677009583,0.00696989893913269,0.6526625498314591,0.834221031968755,178.46219454129306,177.31494634687016,1.0,0.057314877693530726,-0.005259674590798108,0.33998380787894283,-0.03198437514563853,88.77353560710023,0.9496486139203809,49,1.6333333333333333
0.6592518190027076,0.3349046142558369,0.17371568083763123,0.9997454881668091,0.5695594699629247,0.4632654590310391,0.054658908396959305,0.9999703168869019,0.7480424102808093,0.4527314756949281,-0.08087517321109772,0.9999937415122986,0.6150769949136725,0.8430317296376397,0.03717542439699173,0.9999240040779114,0.7085970606834022,0.830846179701915,-0.037440307438373566,0.9999561309814453,0.6411021453299378,1.1283852987874514,0.14055584371089935,0.9487187266349792,0.7317795927755996,1.1122043658206313,0.11715187877416611,0.9045543670654297,0.6584119885645159,1.39624906715545,0.17994913458824158,0.9034022688865662,0.7440233869436517,1.334904614255837,0.24756816029548645,0.7875142097473145,0.5764746877525634,0.8133778778940932,0.1879705935716629,0.415478378534317,0.7748267057428363,0.85445744930134,-0.05484229326248169,0.9857779741287231,0.007330417633056641,0.6618370277985374,0.8369389546697774,178.48627636814143,178.43663481899196,1.0,0.0487145005107016,-0.003656302265170884,-0.06455180076859408,0.011881291619984446,89.41093280671143,0.9470611165581713,50,1.6666666666666667
0.667796680267326,0.34369714773883114,0.15459510684013367,0.999768078327179,0.5770590437491464,0.46968461721058535,0.021181877702474594,0.999971866607666,0.7585173428869671,0.45857089252118827,-0.10281427949666977,0.9999939203262329,0.626825437239441,0.8480266550520397,0.03906718268990517,0.9999279975891113,0.7191440588554854,0.8356373461955849,-0.039319224655628204,0.9999582171440125,0.6471405658511872,1.1283000985261573,0.1413450986146927,0.9502187371253967,0.7366345411942301,1.1162267454358954,0.09991499036550522,0.9052296280860901,0.6619029894309479,1.3997365168440095,0.18675902485847473,0.9057261347770691,0.7483890951748893,1.343697147738831,0.21091501414775848,0.7900969982147217,0.5790888462961791,0.8278813085066372,0.1331316977739334,0.43307384848594666,0.7821864535365376,0.8595902742146233,-0.09491294622421265,0.9860684871673584,0.007688194513320923,0.6729847480474631,0.8418320006238124,178.96730494012664,179.39122801374455,1.0,0.057166285488127876,-0.000609765522521075,0.06465114286730145,0.024302085874022706,89.85003902881996,0.9384028969797948,51,1.7
0.6717374827783553,0.3471399869086011,0.14100530743598938,0.9997891187667847,0.5824565965296667,0.47149900838021924,0.0022605168633162975,0.9999735951423645,0.7649949154655505,0.4611075943918312,-0.1145079955458641,0.9999940991401672,0.6354542293926857,0.85048880597684,0.03966369852423668,0.9999319911003113,0.7274037319970852,0.837998767164314,-0.039907731115818024,0.9999602437019348,0.6512522239099738,1.1246267342922387,0.15531454980373383,0.9523406028747559,0.7398599826518117,1.1166685429464012,0.10090623050928116,0.9068253636360168,0.6611516788642132,1.3938284806387915,0.20399753749370575,0.9095761775970459,0.7503480515110403,1.3471399869086012,0.2173767387866974,0.795282781124115,0.5799297003243167,0.8331564315877191,0.08077329397201538,0.46462658047676086,0.7887586194098233,0.8619307205797772,-0.1415780484676361,0.9865434765815735,0.00716748833656311,0.6814289806948854,0.844243786570577,178.80782193120857,179.95379581228576,1.0,0.04867677851691388,-0.00043789107865417566,-0.06513583935787456,0.0013066202143294694,90.22509852858232,0.9438019323722315,52,1.7333333333333334
0.67923005121219,0.3501743171937571,0.1552252620458603,0.9998074173927307,0.5889701416852008,0.47390046849515066,-0.004099161829799414,0.9999751448631287,0.774857144195843,0.46627706712582345,-0.10004695504903793,0.999994158744812,0.6450073044219784,0.8537108452797677,0.03476404398679733,0.999936044216156,0.7377515872668287,0.8413338809236593,-0.03501220792531967,0.9999622106552124,0.6580391038581496,1.1254038028547277,0.1439409852027893,0.9541182518005371,0.7439514793843327,1.1170893843159797,0.10563816875219345,0.9046692252159119,0.6622704560420477,1.3980164102261083,0.18954670429229736,0.9125325083732605,0.7533850264327733,1.350174317193757,0.22693614661693573,0.7956885695457458,0.5828921146624294,0.8382247374992671,0.09256680309772491,0.4912407398223877,0.796748870074347,0.8660488509833058,-0.11617346107959747,0.9864862561225891,0.00523686408996582,0.6913794458444035,0.8475223631017135,178.14314684475022,178.97033813666422,1.0,0.05202317530313949,-0.0012258009584529797,0.022844989807121973,-0.005705553404281902,90.7915045614208,0.9443182868579066,53,1.7666666666666666
0.6834107104050616,0.3502965781623961,0.13178597390651703,0.9998231530189514,0.5956849291864216,0.47469623412642203,-0.024749495089054108,0.999976396560669,0.7819636570361267,0.4701421977378813,-0.11081544309854507,0.999994158744812,0.6496738055537447,0.8557804832342478,0.034623682498931885,0.9999399781227112,0.7406201945568054,0.8438617772805875,-0.034862034022808075,0.9999642372131348,0.6609365608327386,1.125981365573362,0.17824479937553406,0.9540011882781982,0.7476633904504315,1.116713425748606,0.11423982679843903,0.9007918834686279,0.6609926621633969,1.3857865408732768,0.2697713077068329,0.9137076735496521,0.755156440735011,1.3502965781623961,0.26390451192855835,0.7955215573310852,0.5854231695103446,0.8410700185051762,0.03599730134010315,0.5193477272987366,0.8045220455832445,0.8699215846912428,-0.15993650257587433,0.986126720905304,0.0031207799911499023,0.6951470000552751,0.8498211302574177,177.62549993935838,179.64131798033708,1.0,0.015341606679653692,0.001735028368389925,-0.27088709832878805,0.02181195226680325,90.5973548225516,0.9638863533535247,54,1.8
0.688026676581439,0.34915532694260837,0.1362772285938263,0.9998343586921692,0.598303532294027,0.47401458646957184,-0.03465767949819565,0.9999775290489197,0.7862910824755625,0.47119700786313584,-0.1072692722082138,0.9999940991401672,0.6535505736464509,0.85382070761077,0.031123971566557884,0.9999432563781738,0.7458478289061499,0.8423590940840818,-0.03135376796126366,0.9999659061431885,0.6598210923374133,1.1200895960893669,0.17181363701820374,0.9555561542510986,0.7485647626404497,1.111959558049558,0.1122388020157814,0.9011750221252441,0.6575602531898332,1.378661692947959,0.24200448393821716,0.9178195595741272,0.7541644747882966,1.3491553269426084,0.24148595333099365,0.8024401664733887,0.5854807587702482,0.8412008744592917,0.04128000885248184,0.5440495014190674,0.8116326533404661,0.8687753975456161,-0.1578909158706665,0.9860996007919312,0.0019331276416778564,0.6996992012763004,0.8480899008474259,178.1500022032623,179.22499991183932,1.0,0.041268996554329626,-0.00551123962413292,0.19900343655564703,-0.05556305524391241,91.19742654137539,0.9674603722608732,55,1.8333333333333333
0.68844804904846,0.3486194192160485,0.1449500024318695,0.9998469948768616,0.5998324416662129,0.4732208257050172,-0.01894094981253147,0.99997878074646,0.7857741372784995,0.47160653731450386,-0.10733169317245483,0.999994158744812,0.654762785623548,0.8525572397461356,0.03294084966182709,0.9999467134475708,0.7468257996944933,0.8417072526834066,-0.033158399164676666,0.9999677538871765,0.6601331693505381,1.118333433791353,0.17776426672935486,0.9564054608345032,0.7491661206590605,1.1106035852812512,0.10992863029241562,0.9022350311279297,0.6571798989123901,1.3758763099217528,0.2543933093547821,0.9207016229629517,0.7529582463116189,1.3486194192160486,0.24125048518180847,0.8080352544784546,0.5864349810264573,0.8387219456509596,0.05113758519291878,0.5702334642410278,0.8127899287365928,0.8681189503118717,-0.14779852330684662,0.9861843585968018,0.0011082589626312256,0.7007942926590206,0.8471322462147711,178.1854275520845,179.58588438710595,1.0,0.011639423863892648,-0.0031730303536892674,-0.2238843880720434,0.01765695442717332,91.51799642096118,0.9680294871363939,56,1.8666666666666667
0.6935985825991473,0.34626679118097314,0.15960872173309326,0.9998573660850525,0.6058481865600367,0.4713233890853289,-0.02537563070654869,0.9999799728393555,0.7916369190550863,0.47308023655985254,-0.08002877235412598,0.999994158744812,0.6580977948533654,0.8495635392303464,0.024638766422867775,0.9999493360519409,0.7515443521562659,0.8393457410063433,-0.024853374809026718,0.9999690651893616,0.6586197238199898,1.1129352991343568,0.16065603494644165,0.957798957824707,0.7499501877787519,1.1078400905306522,0.10996951907873154,0.9011895656585693,0.6543556070538178,1.3747955576033553,0.21945807337760925,0.923570454120636,0.7506426848819746,1.3462667911809731,0.22528639435768127,0.8109599947929382,0.5875961395366066,0.8370029311118318,0.050310950726270676,0.5935786962509155,0.8158841089807785,0.8663321590256517,-0.12871097028255463,0.9858303666114807,0.0012085139751434326,0.7048210735048156,0.8444546401183449,178.9535373936596,179.49340281026554,1.0,0.0405625124520565,-0.007548757934045644,0.2170648984390281,-0.032860287137972094,91.62484427744226,0.9655695522505221,57,1.9
0.6934713420457708,0.34595443609906146,0.14611807465553284,0.9998618364334106,0.6092567686000175,0.4710321377969236,-0.04806879535317421,0.9999807476997375,0.7943224876516,0.4764505567698497,-0.08958132565021515,0.9999938607215881,0.6614608740045947,0.8487468241146738,0.02178739756345749,0.9999516010284424,0.7554813524480142,0.8389540873361778,-0.022004978731274605,0.9999700784683228,0.6580062090319213,1.0993538887646306,0.17850306630134583,0.9594604969024658,0.7511793298983485,1.1051125589269686,0.13217848539352417,0.901591956615448,0.6506071426196756,1.3571287096611477,0.26699158549308777,0.9273428320884705,0.7488175404837731,1.3459544360990614,0.2629700303077698,0.8179364204406738,0.5876524857580187,0.8364059502937412,0.01644621230661869,0.6223020553588867,0.8205619836414765,0.8647147626197834,-0.14776013791561127,0.9859054684638977,0.003727942705154419,0.7084711132263044,0.8438504557254258,179.14563900897477,179.63583350081615,1.0,0.02814704691852024,-0.0033563477787277615,-0.09243642936318168,0.031221937864174827,91.92279927316375,0.9810027328470025,58,1.9333333333333333
0.6978169058165523,0.3451752758676182,0.13400280475616455,0.9998718500137329,0.6107925550451929,0.47095505524283304,-0.06227979063987732,0.9999819993972778,0.7981546374804823,0.4765658669879157,-0.10039421170949936,0.9999939203262329,0.664570100925302,0.8464283679869455,0.020156852900981903,0.9999548196792603,0.7600590775916459,0.837791291664961,-0.02038196288049221,0.9999718070030212,0.6574492541551521,1.0888130095458524,0.1763368546962738,0.9613807797431946,0.7547194821548896,1.1012507529274012,0.12907011806964874,0.9037458300590515,0.650200271649492,1.3453683891566326,0.25426343083381653,0.932239294052124,0.7486932039327014,1.345175275867618,0.2579343914985657,0.8284211754798889,0.588264620653462,0.8363536416344973,-0.020307425409555435,0.6531535387039185,0.825131844870856,0.8600757335045275,-0.17576149106025696,0.9864557385444641,0.0038601458072662354,0.712314589258474,0.8421098298259533,179.9356958057577,179.74583499779567,1.0,0.02957050448849042,-0.013779379071836819,0.011029579947429233,-0.08082972695177552,92.98241532070357,0.9877177856961553,59,1.9666666666666666
0.7176718593889123,0.3544689576000779,0.13910123705863953,0.9998815655708313,0.6287483972200657,0.4824791940915191,-0.07090466469526291,0.9999833106994629,0.8195868971312041,0.4876469182582788,-0.09927885234355927,0.9999940991401672,0.6863878138359042,0.8607639693961389,0.013724018819630146,0.9999583959579468,0.7837275818818361,0.8537580876735879,-0.013965817168354988,0.9999738335609436,0.6733741393690234,1.1007269781560427,0.12287237495183945,0.9647014737129211,0.7740720517114107,1.120331359150728,0.07946693897247314,0.9113625288009644,0.6664874940453911,1.354468957600078,0.140424907207489,0.9384128451347351,0.7671110777803393,1.3782005066326635,0.1350937783718109,0.843904972076416,0.6036836814093947,0.8556706625873943,-0.04763968661427498,0.6829397082328796,0.8495551266437439,0.8721660221525875,-0.18304120004177094,0.9870243072509766,0.0034706294536590576,0.7350576978588702,0.8572610285348633,178.4504217383586,179.4718795835529,1.0,0.040242111308830146,-0.0404813355454849,0.07465614183543341,-0.1978232974284593,94.54686865155979,0.9876130470264052,60,2.0
0.7274513553027604,0.359663610147609,0.12564752995967865,0.9998912215232849,0.6442959313785919,0.49244395272871333,-0.09610156714916229,0.9999846816062927,0.8358591575431853,0.4954647929266187,-0.0908995196223259,0.9999942779541016,0.6980752495569349,0.8694895726389785,0.0049203913658857346,0.9999620318412781,0.799387424198774,0.8674381509672241,-0.005142379552125931,0.9999759793281555,0.684256976017717,1.104600628841031,0.13609273731708527,0.9672896265983582,0.7886631979237159,1.135025629915682,0.09155388176441193,0.917500913143158,0.6819588244307361,1.359663610147609,0.16033238172531128,0.9437272548675537,0.7798969336523411,1.4022236635098317,0.1782396286725998,0.8577587008476257,0.6146923108809561,0.8682036902946871,-0.0813070684671402,0.7117846608161926,0.8703096000354714,0.8755780730808597,-0.1675398051738739,0.9870489835739136,0.0019959211349487305,0.7487313368778544,0.8684638618031013,177.15263094860003,179.58405158790242,1.0,0.011995049771539954,-0.022269478360986562,-0.22095673509738553,0.1442878907221001,96.95754546273932,0.9930861088705404,61,2.033333333333333
0.7261305579205756,0.3577611866150248,0.1278848797082901,0.9998984932899475,0.6497583964503778,0.4933563930872538,-0.09826364368200302,0.9999858140945435,0.8373070407979232,0.493433957823464,-0.07740505039691925,0.9999942183494568,0.6993517275616025,0.8648149526040657,-9.107474761549383e-05,0.9999651312828064,0.8001496065383237,0.8665272426620668,-0.00013234696234576404,0.999977707862854,0.6844273969477577,1.0983021354487856,0.13403895497322083,0.9694650769233704,0.7891260286182742,1.1314277375738158,0.09724584221839905,0.9221146702766418,0.6860661832505021,1.3577611866150248,0.18044790625572205,0.9482612013816833,0.7808327835592359,1.4034391003790114,0.1727338582277298,0.8694504499435425,0.6177556104369557,0.8685181160134722,-0.0836603194475174,0.737474799156189,0.8726421775376946,0.8684529598301752,-0.16209527850151062,0.986071765422821,5.123019218444824e-05,0.7497506670499631,0.8656710976330663,175.9807861741004,179.36339345400816,1.0,0.005991049987769057,-0.02464194487696858,-0.04774899430854091,-0.018791795873396425,98.57778379407708,0.9869374333174992,62,2.066666666666667
0.7320228746249798,0.3610079061915371,0.13141372799873352,0.9999048113822937,0.6578871592470557,0.49839695554384394,-0.09753090888261795,0.9999868869781494,0.8444540935723036,0.4968150024300004,-0.0758262425661087,0.999994158744812,0.7052313836350806,0.8710358776594698,0.0004136349889449775,0.9999678730964661,0.8073173048692863,0.873439994744124,-0.0006259425426833332,0.9999791979789734,0.6905216691403749,1.1068463271140394,0.145551398396492,0.971121072769165,0.7967006538907995,1.1415415738357357,0.09826739132404327,0.9261782169342041,0.6963649612182232,1.3610079061915372,0.19860729575157166,0.9521621465682983,0.7890572333890996,1.4168529545533135,0.16815975308418274,0.8798174858093262,0.6258113821175967,0.8764689528042687,-0.09777781367301941,0.7618774771690369,0.8816028108920199,0.8648693291748901,-0.15624448657035828,0.9855892658233643,0.0010355114936828613,0.7562743442521835,0.8722379362017969,175.11352420529693,179.32259258252626,1.0,-0.0017265178833411295,-0.008936768273831365,-0.05589021794446802,0.11454379864955908,98.58976701602793,0.9901966280941289,63,2.1
0.7465131268304532,0.37074837236487473,0.13322141766548157,0.9999107718467712,0.6742611041804548,0.5094941160075663,-0.0831444263458252,0.9999879002571106,0.8630324740528034,0.5070998089816287,-0.06520355492830276,0.9999942183494568,0.7184483845527895,0.8902443411957934,0.002266715979203582,0.9999704360961914,0.8225738031230625,0.891769736357089,-0.002480224007740617,0.9999806880950928,0.7049372303795722,1.1274199541730685,0.1856551170349121,0.972137451171875,0.8134370505357802,1.1668145299653039,0.11642817407846451,0.9301185607910156,0.7133945369322172,1.3707483723648748,0.266116738319397,0.9553422331809998,0.8060778183948637,1.446882957065165,0.17594021558761597,0.889423668384552,0.6409520723034332,0.8948517634406623,-0.06020196154713631,0.7824810743331909,0.8996590637691968,0.8791505497530483,-0.10089874267578125,0.9846848845481873,0.0015350878238677979,0.770511093837926,0.8910070387764412,174.74894809855218,179.60257198016507,1.0,-0.012465909611826058,0.0037755457485166392,-0.08270115870334094,0.09967226056058048,97.45904519736139,1.0055791573362356,64,2.1333333333333333
0.755390223361263,0.38310012121129994,0.13402020931243896,0.9999167919158936,0.6868337313247858,0.516151084584935,-0.07833777368068695,0.999988853931427,0.8739519640761721,0.5145713994124774,-0.054561011493206024,0.9999942183494568,0.7274140850626564,0.9017628548745354,0.0023596868850290775,0.9999726414680481,0.8314457147140242,0.9027687378643426,-0.002558801556006074,0.9999819397926331,0.713983490965427,1.144348255530792,0.20076584815979004,0.9730470776557922,0.8235420660520419,1.1812942464650469,0.12017027288675308,0.9336817264556885,0.724091819829973,1.3831001212112999,0.2977740168571472,0.9578452110290527,0.8159406810408466,1.4647203409556566,0.1889626681804657,0.8974951505661011,0.6505842077876273,0.9076041093364414,-0.05583963915705681,0.8016870617866516,0.9100204305572553,0.8860038331585578,-0.0975007712841034,0.9837061762809753,0.0010005533695220947,0.7794298998883403,0.902265796369439,174.40673554912985,179.91085193678774,1.0,-0.004014317924674273,0.0027604769425561095,0.06738657721295921,-0.008311801312233623,96.56145991859874,0.9961493612083733,65,2.1666666666666665
0.7622569131891038,0.3915697565316463,0.1534479856491089,0.9999206066131592,0.6950731397820246,0.520789460459167,-0.07658350467681885,0.9999896287918091,0.881381026189588,0.5191783990242569,-0.03688829019665718,0.9999940395355225,0.7343686435494646,0.910374529647141,0.0008957162499427795,0.9999745488166809,0.8382707826652106,0.9109528082631552,-0.0010937257902696729,0.9999828934669495,0.7210398437052485,1.1538917379344813,0.19117552042007446,0.9739346504211426,0.8312001159026073,1.1905404538295445,0.11954313516616821,0.9369006752967834,0.7316562414695892,1.3915697565316463,0.2756757140159607,0.9601597785949707,0.8234101616989028,1.477756629355431,0.18497756123542786,0.9047801494598389,0.6590395926905488,0.9158400696896949,-0.05763887241482735,0.8192249536514282,0.9177293030795497,0.8919641895507096,-0.0854516476392746,0.9819784760475159,0.001011282205581665,0.7863197131073376,0.910663668955148,174.3095298629743,179.8950693685207,1.0,-0.0011907413409674075,0.0018003194160146575,0.021529551041616284,-0.007416115953268642,96.07854248823395,0.9915595148404321,66,2.2
0.768704193357561,0.4039953779949423,0.18096032738685608,0.999923586845398,0.7054804769282833,0.5289721466792489,-0.051253605633974075,0.9999903440475464,0.8911024000849272,0.5251996067789088,-0.01502873282879591,0.9999938607215881,0.7446778370726405,0.91968648952183,0.0012987273512408137,0.999976396560669,0.8478358789507348,0.921649616758347,-0.0014947649324312806,0.9999839067459106,0.7311037835160815,1.1659420385578594,0.19221171736717224,0.9745475053787231,0.8409466800174178,1.2044941337475301,0.11358664184808731,0.9400041103363037,0.7408848819556144,1.4039953779949423,0.2790265679359436,0.9621133208274841,0.832466535256719,1.4951632028448725,0.17388147115707397,0.9115145206451416,0.6707066378996248,0.9266599432553048,-0.05196452885866165,0.8345250487327576,0.9264156331563294,0.897205156835699,-0.06540268659591675,0.977951169013977,0.002340555191040039,0.7962568580116876,0.9206680531400885,174.49210872974194,179.72416267272317,1.0,0.005210891949878288,-0.005255602066248679,0.048156882584186135,-0.05312187311262746,96.8190995316473,0.9780853967517511,67,2.2333333333333334
0.766233548872355,0.40564596054002505,0.17069849371910095,0.9999250173568726,0.7058164268184804,0.5286804022478568,-0.05297498777508736,0.9999908804893494,0.8891519357796854,0.5222665042155228,-0.030083443969488144,0.9999938607215881,0.7455351272464157,0.9177251072284013,0.001736208563670516,0.9999778270721436,0.8462656586460011,0.9201637926478613,-0.0019379984587430954,0.9999847412109375,0.730906227817108,1.1649924243070928,0.2045501172542572,0.9747381806373596,0.8394932376018704,1.2022710485762234,0.12303261458873749,0.9425268769264221,0.7394659887020172,1.405645960540025,0.29365992546081543,0.9638120532035828,0.8308229848738393,1.492740196750293,0.17750318348407745,0.9176266193389893,0.6732990706312393,0.9279157737560579,-0.018422851338982582,0.8427831530570984,0.920221148656704,0.8978882726048615,-0.04371277242898941,0.9755904078483582,0.003985881805419922,0.7959003929462084,0.9189444499381313,174.57711324501892,179.6654878791422,1.0,0.007433814037738495,-0.0015851556287498063,0.017322861555936916,0.02842561837952347,97.21615466715703,0.9694467093329011,68,2.2666666666666666
0.7654830591598347,0.40669640059037837,0.16587841510772705,0.9999293684959412,0.7058004475350013,0.5293824782934582,-0.05449727922677994,0.9999914765357971,0.8896735900886154,0.5223774219522896,-0.02920580469071865,0.9999936819076538,0.7469364546562463,0.916512252405671,0.002324684988707304,0.9999794960021973,0.8468403458764265,0.9205126735834657,-0.002526426687836647,0.9999856948852539,0.731796370326623,1.163327239309134,0.21365514397621155,0.9761222004890442,0.8400564846646842,1.2027719603474736,0.1233365535736084,0.9464987516403198,0.7398939645548362,1.4066964005903784,0.31468072533607483,0.9663271307945251,0.8311337159831502,1.493788155439946,0.18258295953273773,0.9244340062141418,0.6778590730268353,0.929904612060025,-0.013520215637981892,0.8523025512695312,0.9158242390892347,0.8995346983601997,-0.045036278665065765,0.9657009840011597,0.004350036382675171,0.7968884002663364,0.9185124629945683,174.58407723477646,179.62060994858035,1.0,0.0031436570288415596,-0.008751838401067951,-0.033817875562287554,-0.05641102708742231,98.3584825252865,0.9641359801791862,69,2.3
0.7756605405817696,0.4196942477014291,0.1631193608045578,0.999931275844574,0.7158816933296934,0.5384535496340129,-0.056745745241642,0.9999920129776001,0.8992577716923159,0.5325928335060841,-0.02522772178053856,0.9999932050704956,0.7587976897642891,0.9292479125436895,0.0016700942069292068,0.9999808669090271,0.858253772967954,0.9332218285091866,-0.0018653994193300605,0.9999864101409912,0.7444256992416803,1.1786414688594307,0.22172565758228302,0.9768353700637817,0.8514941172968227,1.2200962993850046,0.132090762257576,0.9492477178573608,0.7499005231944886,1.4196942477014292,0.3302150368690491,0.9683091044425964,0.8418154375938462,1.5131290898587362,0.2159564048051834,0.9300049543380737,0.6917164666850476,0.9437330974557482,-0.012766753323376179,0.8600190281867981,0.9235057902797394,0.9088794407272927,-0.030996602028608322,0.9500512480735779,0.0035906434059143066,0.8085257313661215,0.931234870526438,175.40073476339285,179.4580631074984,1.0,0.006095347067796645,0.0018416676635039312,0.021821834044124227,0.08035923452053714,98.55507867961053,0.9575343878197372,70,2.3333333333333335
0.7808068300778769,0.4346642278941269,0.19196294248104095,0.9999340176582336,0.7199030693687865,0.5432787452961878,-0.041413843631744385,0.9999925494194031,0.9016944252351061,0.5363225925682533,-0.0023368673864752054,0.9999929666519165,0.7637778618516188,0.933890864994137,0.0011668824590742588,0.9999819993972778,0.8638598256850895,0.9383270387316085,-0.0013533222954720259,0.9999869465827942,0.7500788641138754,1.1920584302530282,0.20491954684257507,0.9781321883201599,0.8572085032017214,1.228299489912494,0.10578612238168716,0.9524574279785156,0.7528378593973067,1.4346642278941268,0.2728496789932251,0.9701632261276245,0.8474357190139934,1.5232572499894963,0.1499588042497635,0.9349830746650696,0.7015682034779344,0.9515802252972181,-0.013947960920631886,0.8687902688980103,0.9252507271609184,0.9139225007421209,-0.027414049953222275,0.9403143525123596,0.004233509302139282,0.8138188437683541,0.9361089518628727,176.31103651928396,179.41633031729947,1.0,-0.0004819132286213473,-0.0061398072112607395,-0.030236293325583755,-0.03652213844646246,98.94677910747755,0.925425973922364,71,2.3666666666666667
0.781537473930804,0.4413590185291654,0.21494939923286438,0.9999271035194397,0.7209481482150606,0.5482739333764602,-0.033751826733350754,0.9999929070472717,0.8998382716932457,0.5430177511336028,0.005733562633395195,0.9999914169311523,0.766145031551576,0.937014328441653,0.0009763643029145896,0.9999829530715942,0.8663886967019611,0.9408626599566495,-0.0011561638675630093,0.9999872446060181,0.7543708691299726,1.199515821493934,0.20222684741020203,0.9789959788322449,0.8593719769219897,1.2316109102564752,0.10500101745128632,0.9547867774963379,0.7531890933960721,1.4413590185291654,0.26958781480789185,0.9715541005134583,0.8495901218630131,1.5282931750340352,0.13840030133724213,0.9393377304077148,0.7077578873785203,0.9576281458605423,-0.0027478921692818403,0.8668283224105835,0.9212529984392726,0.9172373567007327,-0.013213224709033966,0.8806434869766235,0.0031907856464385986,0.8162668641267685,0.9389384941991513,177.71176954976482,179.49406460592687,1.0,0.0028367880714190424,0.0033660948227407063,0.025030941432557435,0.07178857798442005,98.8302088571977,0.9133809983729715,72,2.4
0.7688838762317315,0.44769658154507386,0.1982307732105255,0.9999231696128845,0.7265536600641099,0.5586441029757429,-0.039516814053058624,0.9999932050704956,0.8986945652428473,0.5517669492698202,0.005816166754812002,0.9999895095825195,0.7727806180689456,0.9462120200488462,-9.667901395005174e-07,0.9999841451644897,0.8728494752628291,0.9489237269551578,-0.00018201328930445015,0.999987781047821,0.7605255031311036,1.2098984827997878,0.2002420425415039,0.9788042306900024,0.8661130859217662,1.241206200583625,0.11628931760787964,0.9549266695976257,0.7601728247734192,1.4476965815450737,0.28240248560905457,0.9722006916999817,0.8573850021238436,1.5365606349062055,0.15285158157348633,0.9424620270729065,0.71432473729968,0.9684867553506922,-0.017054755240678787,0.8637771010398865,0.920323854093651,0.9258917457172702,-0.02753937803208828,0.8114562630653381,0.004139453172683716,0.8228150466658873,0.947567873502002,177.4240065030575,179.62762494115483,1.0,-0.0031405343062612624,0.004543689108824311,-0.04461697058317138,0.008540824540382817,98.35403485918341,0.9229525789322202,73,2.433333333333333
0.7804572773113042,0.46672441093582034,0.20282995700836182,0.9999163746833801,0.7351715561656836,0.5776087920592954,-0.033393606543540955,0.9999933838844299,0.9092260895952171,0.5765902473117238,0.009764887392520905,0.9999874830245972,0.7870972629781354,0.9641090717013536,0.00017712952103465796,0.9999850988388062,0.8864417182370202,0.9660665661085124,-0.00036264825030229986,0.9999881386756897,0.7758274459197279,1.2323180873935908,0.18951615691184998,0.9788539409637451,0.8807907696330515,1.2594023084794896,0.0949031189084053,0.9559571146965027,0.7755248029996352,1.4667244109358204,0.2518492341041565,0.9730868935585022,0.8737851913187483,1.5567306171333017,0.11151721328496933,0.9457347989082336,0.727851279654971,0.9897830776605945,-0.017658507451415062,0.8642107844352722,0.9328150875969667,0.9438397638900995,-0.02056322805583477,0.7557836174964905,0.0006017982959747314,0.8367694906075779,0.965087818904933,177.66789108001439,179.75389487070638,1.0,-0.01052168520213927,-0.0017060430081959502,-0.0525820044597543,-0.04549129321383438,98.78059721114015,0.9172589023224432,74,2.466666666666667
0.7829171896114653,0.47529556134237694,0.16889704763889313,0.9999169707298279,0.7364707550177059,0.5862019853403159,-0.046042971312999725,0.999993622303009,0.9102602861155858,0.5833847096238464,0.00014818727504462004,0.9999861717224121,0.7888134884773753,0.9706166546108829,0.0011304959189146757,0.9999861121177673,0.8858680656859625,0.9714579022286258,-0.001301146810874343,0.9999886751174927,0.7809393843720687,1.2405807736330006,0.1851329505443573,0.9790346622467041,0.885171629645103,1.2616152137052277,0.08759431540966034,0.9573426842689514,0.7826811853304857,1.4752955613423768,0.258043110370636,0.9740964770317078,0.8801412044890776,1.5591295829030538,0.11400077491998672,0.9491138458251953,0.7317796621787602,0.9963997161043168,-0.06249731034040451,0.8689457178115845,0.9320255879822233,0.9503923875823971,-0.07842718064785004,0.7101826071739197,0.0016535818576812744,0.837340777081669,0.9710372784197543,177.90413487835434,179.16884636730288,1.0,-0.03874354427900184,-0.0035702625985895068,-0.21877760739193144,-0.014399370312224066,98.25044767506506,0.9130570366943589,75,2.5
0.7900367860443721,0.480560613648734,0.15363457798957825,0.9999226927757263,0.7363635959080878,0.5936723420577832,-0.04902653768658638,0.9999940395355225,0.9131828994842323,0.5949593446614047,-0.03995942696928978,0.9999867677688599,0.7877629842583229,0.9796117938563618,0.008331136777997017,0.9999870657920837,0.8873021830041897,0.978766682095421,-0.00848356168717146,0.9999893307685852,0.7862922995137053,1.2448069641874044,0.18521109223365784,0.9798359870910645,0.8908632942980225,1.2663196160301569,0.08333569765090942,0.9598414897918701,0.7901861460699107,1.480560613648734,0.26036906242370605,0.9754883646965027,0.8883079079432782,1.5591317619874336,0.12425700575113297,0.9526005983352661,0.733312047824671,1.0036217248658408,-0.09396786242723465,0.8798878788948059,0.9387985530696376,0.9578695777003845,-0.13477809727191925,0.7280710935592651,0.0007498562335968018,0.8375325836312563,0.9791892379758913,178.73601489916874,178.79046376580027,1.0,-0.0448333582408403,0.007295029501356553,-0.04339103657925151,0.08143399642914753,97.09956396357758,0.9264311932681307,76,2.533333333333333
0.7918826248105905,0.4764595117062744,0.156316876411438,0.9999293684959412,0.7343511655743007,0.5963826487720798,-0.04341896250844002,0.9999944567680359,0.9129297782086697,0.5943742310011345,-0.0378689281642437,0.9999876618385315,0.785264497250873,0.9792807533185384,0.011201529763638973,0.9999879598617554,0.8857503401022708,0.977430936568951,-0.01135171391069889,0.9999900460243225,0.7852647018313584,1.2392994816390805,0.18527713418006897,0.9803698658943176,0.8900349714996368,1.2634902034333004,0.08594723790884018,0.9622912406921387,0.7912318031412003,1.4764595117062744,0.27093708515167236,0.9764800667762756,0.888457553666448,1.5599006291207944,0.13469070196151733,0.9557552337646484,0.731400450087297,1.003310572560939,-0.06726749986410141,0.8891080617904663,0.9413713756201538,0.9586476861665796,-0.10854802280664444,0.7477597594261169,0.0011703073978424072,0.8355074186765719,0.9783558449437447,178.55874992195226,178.83697073643424,1.0,-0.014067342708928367,-0.005286158612923323,0.22375604011657596,-0.09150960578741818,96.51947260966628,0.9332127243819984,77,2.566666666666667
0.7848320309885013,0.47187902126923775,0.15292778611183167,0.9999354481697083,0.7261346060986399,0.5934144442029582,-0.0421561673283577,0.9999947547912598,0.9033203959845616,0.5927624821165124,-0.041042156517505646,0.9999886155128479,0.776888303208171,0.9757724021091435,0.012602150440216064,0.9999886155128479,0.8766470614427778,0.9731187019326343,-0.012748075649142265,0.9999906420707703,0.7796263707532162,1.2352426137540615,0.19291037321090698,0.9798106551170349,0.8855978482652876,1.2567527264772211,0.0896279513835907,0.963876485824585,0.7914803426578635,1.4718790212692379,0.2874993681907654,0.9768292903900146,0.885698110935142,1.5514312343282264,0.16338562965393066,0.95784991979599,0.7215870215272308,0.9993258761953699,-0.04924212396144867,0.8976973295211792,0.9385920696100077,0.9615532399362109,-0.0993151143193245,0.7710215449333191,0.0003813803195953369,0.8267676823254745,0.9744455520208889,177.73683778645955,178.2119816273821,1.0,-0.03933964713885931,-0.0007907870007375535,-0.18132964253451586,0.03203787110695946,96.0373900216813,0.9385339956820926,78,2.6
0.7838023361411687,0.4687663446501872,0.1562054306268692,0.9999402165412903,0.7191214964433026,0.5904647887867499,-0.03248824179172516,0.9999949932098389,0.9004632511836193,0.5889747660436293,-0.04879448190331459,0.9999894499778748,0.7681463066955608,0.9722235142782801,0.01770171709358692,0.9999891519546509,0.8707767455096199,0.9684290672395677,-0.01785443164408207,0.9999911189079285,0.7738393990795099,1.2298081936575598,0.19724297523498535,0.9791516065597534,0.8817175940999913,1.2455525794257327,0.08934583514928818,0.9655969142913818,0.7908079261511762,1.468766344650187,0.2856028378009796,0.9772769808769226,0.884397939002451,1.5388870393868113,0.1619882881641388,0.9600551128387451,0.7111674977915997,0.9948431390909293,-0.05140841007232666,0.9059152603149414,0.9362131333244097,0.9587626824329554,-0.11092577129602432,0.7930067181587219,0.0008744895458221436,0.8194615261025904,0.970326290758924,177.20435396648207,178.2626601028735,1.0,-0.03123542623689406,-0.006288805870167621,0.05419785247026782,-0.03738066407899566,95.20040404236012,0.9419560093930055,79,2.6333333333333333
0.7834145936412615,0.46549374159855744,0.14778617024421692,0.9999447464942932,0.713990701757223,0.5899125760784097,-0.03341846168041229,0.9999952912330627,0.8972245134127287,0.586879654361795,-0.07023561000823975,0.9999902844429016,0.7622195761513573,0.9691948246530826,0.02270640805363655,0.9999896883964539,0.8665648781592175,0.9642534571348432,-0.02286450006067753,0.9999915957450867,0.7718607075357375,1.2265044377055196,0.20158728957176208,0.9787128567695618,0.8794167122102562,1.236711102103498,0.08036869019269943,0.9673739075660706,0.7899035729712732,1.4654937415985574,0.2837960124015808,0.9779589772224426,0.8833925775971772,1.523107341319096,0.14734628796577454,0.9623242020606995,0.7037409481640531,0.9930626902673116,-0.050839412957429886,0.9136548638343811,0.9341839917759455,0.9571342096121045,-0.12881992757320404,0.8131137490272522,0.0017830431461334229,0.8143922271552874,0.966724140893963,177.8283684278276,178.09470990589398,1.0,-0.02193704512667851,-0.011651720296603689,0.05516923754222864,-0.032065840957125356,94.53547243680944,0.9510260182743865,80,2.6666666666666665
0.7899095422915439,0.46833801446982165,0.14528247714042664,0.9999485611915588,0.7147864310321835,0.5963129978798902,-0.02913181483745575,0.9999955296516418,0.9002980492957815,0.5902877615720038,-0.07227547466754913,0.9999910593032837,0.7617818135332062,0.9759754095668834,0.02641841396689415,0.9999903440475464,0.8683477286388258,0.9696401574553413,-0.026586884632706642,0.9999921321868896,0.7755037667430879,1.2281426728479834,0.20266132056713104,0.978905439376831,0.8858588717151029,1.2370010552284216,0.060055166482925415,0.9696463346481323,0.7955530556807281,1.4683380144698217,0.27239102125167847,0.9792330265045166,0.8897896882410598,1.5151784912159039,0.10422976315021515,0.9652178287506104,0.69969841642191,0.9960006939859539,-0.03450661897659302,0.9203379154205322,0.9405077629846953,0.9641278006697465,-0.11761629581451416,0.831234872341156,0.0035158395767211914,0.815064771086016,0.9728077835111123,178.34327805423544,177.06226243084052,1.0,-0.03903724426468118,-0.008388240929162091,-0.12160577965271317,0.024060910550059777,93.65411427167133,0.9719265076300488,81,2.7
0.7976005402807506,0.472157314810443,0.13140150904655457,0.99994957447052,0.7182870621893989,0.6061858682068778,-0.03893151134252548,0.9999957084655762,0.9096208076129195,0.5951734005543424,-0.08603309839963913,0.999991774559021,0.7636682535162888,0.9814227461824786,0.026389505714178085,0.9999908804893494,0.8738716402295966,0.9719468024282532,-0.026570558547973633,0.9999926090240479,0.7805496558710171,1.2332989558297187,0.201928973197937,0.9779562950134277,0.8929247633694435,1.2365744748891305,0.045413535088300705,0.9713861346244812,0.8027446917787389,1.472157314810443,0.2673026919364929,0.9800190329551697,0.8958448237149518,1.498850944656274,0.091872438788414,0.967602014541626,0.697209896514917,1.0051164199451925,-0.021880533546209335,0.925943911075592,0.9495523879959695,0.973039054479821,-0.1133902296423912,0.8477248549461365,0.006367117166519165,0.8187699468729427,0.9766847743053658,178.52562279839026,176.51970257533014,1.0,-0.02885900550146546,-0.038552331890783026,0.07940393939134313,-0.22667757981674916,91.98132326605743,0.9906530219892647,82,2.7333333333333334
0.7974548880737465,0.46789982850961015,0.11963413655757904,0.999945878982544,0.716845852468393,0.6049947670855917,-0.05110906437039375,0.9999958276748657,0.9088508433405458,0.594607970372132,-0.09524140506982803,0.9999922513961792,0.759195931299567,0.9782664807952505,0.025535279884934425,0.999991238117218,0.8703457226888185,0.9672101265781047,-0.025729909539222717,0.9999929070472717,0.77896843424833,1.2322038405892601,0.19806750118732452,0.9780681133270264,0.8921038685853779,1.2252470577543322,0.03889293223619461,0.972979724407196,0.802243079461679,1.46789982850961,0.2449280023574829,0.9813165664672852,0.8869387548600364,1.4691600144545285,0.09327888488769531,0.9698816537857056,0.6906276478201719,1.0029177992969955,-0.026244256645441055,0.9313777089118958,0.9483582394367721,0.9719986270876917,-0.13325469195842743,0.8626204133033752,0.006008327007293701,0.8147708269941928,0.9727383036866776,178.81268485145984,173.9669997548683,1.0,-0.026751290389188845,-0.025781693599872514,0.015572872985534683,0.09485484699924168,90.79222523905773,1.0170046601344804,83,2.7666666666666666
0.8237931658466745,0.4830166667810607,0.10433937609195709,0.9999428391456604,0.738201654924787,0.6253400494852509,-0.06141359359025955,0.9999958276748657,0.934756628879932,0.6135021320648475,-0.10917337238788605,0.9999925494194031,0.7820216889971748,1.0086109955199583,0.024705108255147934,0.9999915361404419,0.8949271898112079,0.9954668581675538,-0.024901825934648514,0.999993085861206,0.8024460737343327,1.2739763585365675,0.18298840522766113,0.97883540391922,0.9214806457844931,1.250246146637899,0.052122779190540314,0.9737129211425781,0.8280643188015169,1.5179253545589018,0.2330332100391388,0.982598602771759,0.9150849034974824,1.4830166667810607,0.1311182677745819,0.9713413119316101,0.7062927504368122,1.0347355005730074,-0.02338618040084839,0.936299204826355,0.9786987186966788,1.0035782977224792,-0.1478918492794037,0.8760018944740295,0.00663071870803833,0.8384744394041913,1.002038926843756,178.40627968326513,172.47613705725198,1.0,-0.02074754521938864,-0.01775955750019825,0.048161826629319116,0.062070354689294775,89.88208407739036,1.0394331926232114,84,2.8
0.849580131190504,0.5105350409517669,0.11747239530086517,0.999942421913147,0.7589805372660611,0.6536494741284608,-0.02695218101143837,0.9999958276748657,0.9613864442725869,0.6356529863507706,-0.09162279218435287,0.999992847442627,0.8103560345741307,1.043529189801713,0.025636369362473488,0.9999918341636658,0.9216436331752167,1.0287216578976857,-0.02586434781551361,0.9999932050704956,0.8290644801619408,1.320707918770999,0.08227082341909409,0.9801672101020813,0.9560884022640446,1.2818236790762947,-0.02743242308497429,0.9755595326423645,0.8541743177190408,1.5743730243336123,0.028379416093230247,0.9839398860931396,0.945285736387989,1.510535040951767,-0.033118799328804016,0.9733556509017944,0.719224993935654,1.0549193021700078,0.017797868698835373,0.9416393637657166,1.012010133534668,1.0355728118651624,-0.1398782730102539,0.8881072998046875,0.009730726480484009,0.8659998338746737,1.0361254238496993,178.2081909888288,169.5459737072078,1.0,-0.019476672903523173,-0.01433501653445562,0.015128156168045574,0.03048236440137463,89.92771364576026,1.0362478698731536,85,2.8333333333333335
0.8560563940661675,0.5201707024904457,0.14214912056922913,0.9999403953552246,0.7649363149727233,0.6640333885831392,-0.009763290174305439,0.9999957084655762,0.9667651923664838,0.6429175924016992,-0.09129664301872253,0.9999932050704956,0.81690476101757,1.0513509525766906,0.027471955865621567,0.9999919533729553,0.9264152782888951,1.0372865836516227,-0.02772815153002739,0.9999933242797852,0.8365384171534046,1.3329578949317873,0.09003967046737671,0.9807640314102173,0.9649469151938375,1.2875091966372718,-0.0227813757956028,0.976682186126709,0.8607034175479931,1.5898788910833954,0.04605511575937271,0.984855592250824,0.9505368433598207,1.5201707024904458,-0.016498012468218803,0.9744959473609924,0.7249148631506449,1.056654511264459,0.04593018442392349,0.9445642232894897,1.0193363939015472,1.044964792083003,-0.12419066578149796,0.8990716934204102,0.01131528615951538,0.8716600196532326,1.0443187681141568,178.61499914487194,167.70168713259713,1.0,-0.016125530945614017,-0.008636093125102481,0.026446529766193525,0.043704142534531545,90.3236353578548,1.024508854784107,86,2.8666666666666667
0.8616317328787227,0.5335892691698126,0.13173550367355347,0.9999381303787231,0.7710056903389867,0.6681705085127787,-0.01785275712609291,0.9999954104423523,0.9707083109091358,0.652199758493282,-0.09480715543031693,0.9999935030937195,0.8216204329306598,1.058526777668987,0.031171957030892372,0.9999920129776001,0.9297851884575935,1.0450554077591072,-0.03141923248767853,0.9999933838844299,0.8421766642524205,1.3410782168140025,0.10568134486675262,0.9812057614326477,0.9713697139333947,1.290426972210156,-0.007568360771983862,0.9774999618530273,0.8670611832507942,1.599781189471812,0.08535771071910858,0.9855579137802124,0.9560116602654716,1.5335892691698128,0.023170212283730507,0.9751894474029541,0.7301897785520335,1.0526162509309553,0.031869418919086456,0.9470226168632507,1.0223100634312037,1.0521638947064749,-0.13793934881687164,0.9089531898498535,0.008501708507537842,0.8757028106941266,1.0517910927140472,178.66671077734787,166.7671690123149,1.0,-0.012797698222882832,0.003879243457099307,0.025104567051134462,0.09188690493403992,90.28857888931032,1.00436201281265,87,2.9
0.8606133865776479,0.5336147963147839,0.13300205767154694,0.9999391436576843,0.7710106171876135,0.6698781320815255,-0.016626672819256783,0.999995231628418,0.9663047111604004,0.65446822948866,-0.089493028819561,0.9999938607215881,0.8214113469865052,1.057478370428835,0.030539173632860184,0.9999918341636658,0.9274883649173331,1.0438229253890192,-0.030777553096413612,0.9999932646751404,0.8412597415519182,1.3381116453678228,0.11032734811306,0.9814866781234741,0.9697354814403243,1.286317165142712,0.0025932532735168934,0.9778551459312439,0.8676454706744491,1.5971161317081297,0.0949615091085434,0.9860042929649353,0.9549047337430254,1.533614796314784,0.03666533902287483,0.9753589630126953,0.7272438688732052,1.04704966947757,0.04410797357559204,0.9490521550178528,1.018780918352631,1.0505676399927109,-0.1354885995388031,0.9178846478462219,0.008215934038162231,0.8744498559519192,1.0506506479089273,178.22876895384047,166.6851867492916,1.0,0.0007758737230066959,0.0035175057107433645,0.09615565008059299,-0.0025235126936540603,90.07333390113945,1.0023033785576891,88,2.933333333333333
0.8625856303593143,0.5301161331548915,0.14623264968395233,0.9999416470527649,0.769542670167304,0.6675394274908392,-0.007234248332679272,0.9999951124191284,0.9627391183840188,0.653360764127946,-0.0823763981461525,0.999994158744812,0.8199442173078512,1.0537970032323574,0.029732203111052513,0.9999913573265076,0.9248892068807393,1.03902417828239,-0.029964078217744827,0.999992847442627,0.8440038012508295,1.3300387448911,0.10228754580020905,0.9823961853981018,0.9672948406392469,1.27953043608348,0.010539266280829906,0.9781747460365295,0.8683771440116159,1.5942019155408118,0.07953470945358276,0.9866183400154114,0.9533532394942531,1.5301161331548916,0.046094052493572235,0.9753578901290894,0.7280768068198952,1.0368531346011942,0.057393819093704224,0.9511990547180176,1.0155491060997335,1.048438281520922,-0.13960996270179749,0.9258861541748047,0.007575511932373047,0.8724167120942952,1.0464105907573735,179.7061379832106,166.81605863415004,1.0,-0.001325396910523807,-0.014580575319512354,-0.0151734165228235,-0.13073584321379972,89.42161823533472,0.9984658836021427,89,2.966666666666667
0.8600899209530023,0.5250359506278045,0.18368744850158691,0.9999459981918335,0.7671301412726522,0.6632565166060832,0.061156440526247025,0.9999948740005493,0.9488952949061067,0.6497661544811791,-0.060561638325452805,0.9999945759773254,0.8161075456373248,1.043046549405483,0.03934129327535629,0.9999908804893494,0.9186150464473235,1.0276178492647874,-0.039552703499794006,0.9999926090240479,0.8423537231091524,1.3182913243589913,0.10535961389541626,0.9830946326255798,0.9620092850263416,1.271666245023501,0.013259844854474068,0.9786158204078674,0.8661560900807336,1.5847546036776161,0.08351092040538788,0.9867854714393616,0.9500166438091687,1.5250359506278044,0.04978565126657486,0.9747735261917114,0.7250883786266861,1.022249333138046,0.13802796602249146,0.9501346349716187,1.0079076956535247,1.0422484232764782,-0.13696199655532837,0.9331473708152771,0.007246732711791992,0.8673612960423241,1.0353321993351352,179.65749875508402,167.20767952930396,1.0,-0.0025101906665935853,-0.03763523924952742,-0.008229677419027137,-0.15972338203502298,88.78875660902521,0.9792567436290074,90,3.0
0.8675018706705051,0.5286116476888095,0.20055940747261047,0.999949038028717,0.7708482397310915,0.6713778219545122,0.07739076018333435,0.9999945759773254,0.9497647384599269,0.6528953187828691,-0.04814479500055313,0.9999949336051941,0.8198529538764806,1.0468594186240223,0.041075337678194046,0.999989926815033,0.9225522353049986,1.0301579386353215,-0.04128896817564964,0.9999921321868896,0.8483184023275988,1.324232913660547,0.09488130360841751,0.9837449193000793,0.9660211576594973,1.2771484016980061,0.015222325921058655,0.9785436391830444,0.8714493615205167,1.5918168542537348,0.057698387652635574,0.9867273569107056,0.9581067867313049,1.5286116476888096,0.04921945556998253,0.9733262658119202,0.7401447283307268,1.0227132550446816,0.1449887454509735,0.944433867931366,1.009701411457808,1.0462107709391129,-0.12811926007270813,0.939688503742218,0.009886205196380615,0.8712025945907397,1.0385086786296718,179.0811151693005,168.21579499463215,1.0,0.001028721133624702,-0.009194800595271078,0.0262628255225851,0.21161247464601274,88.19886823965429,0.9739961532377519,91,3.033333333333333
0.870803953610383,0.5304242238609217,0.19245792925357819,0.999951958656311,0.7743707497835707,0.6706482203191373,0.0400034561753273,0.9999945163726807,0.9519743586228282,0.6553408371099102,-0.056247688829898834,0.999995231628418,0.8242445257886729,1.047340267767188,0.038894493132829666,0.9999890923500061,0.9233544094913935,1.0313614435713705,-0.03910711035132408,0.9999916553497314,0.8497858109940436,1.3212248804553048,0.10232988744974136,0.9833723902702332,0.9641669645461548,1.2792724138849627,0.026575008407235146,0.9766840934753418,0.8728354972926684,1.5895361094029714,0.08574280142784119,0.9858492612838745,0.964350875174952,1.5304242238609216,0.06794337928295135,0.970493733882904,0.7422047808069531,1.010053335196961,0.11193052679300308,0.9426818490028381,1.0084355904294693,1.0466099753793825,-0.12815234065055847,0.9455066919326782,0.008185744285583496,0.8737994676400331,1.0393508556692792,179.58228078635557,170.69344092604126,1.0,0.01718085303844376,0.004164981917443258,0.11694431630579907,0.09674590326216054,88.3834522361786,0.9739373579022469,92,3.066666666666667
0.8810844863568745,0.5317319830815678,0.17548015713691711,0.9999560117721558,0.7813512157851555,0.6656507483397142,0.027641907334327698,0.999994695186615,0.9540980996587393,0.6597748185523005,-0.06700025498867035,0.9999955296516418,0.8263256282005386,1.0477762755077298,0.03774084523320198,0.9999887347221375,0.9237537250307686,1.033371503900656,-0.03796036168932915,0.9999914169311523,0.849897802403263,1.319748535825573,0.11348100751638412,0.9836222529411316,0.9625133885931361,1.2821722862058942,0.07315351814031601,0.9747415781021118,0.8729050551826886,1.590271868016874,0.12636743485927582,0.9854104518890381,0.9672152696242743,1.5317319830815677,0.1471180021762848,0.9671690464019775,0.7458518634881373,1.0009999566302676,0.08964871615171432,0.9431418180465698,1.0055808706702318,1.050509572056692,-0.14421716332435608,0.9507026672363281,0.0031413733959198,0.8750396766156535,1.0405738897041927,179.90763024876634,172.22466300711807,1.0,0.00752837110766549,0.007075800670288519,-0.07196049575599255,0.021682204225259873,88.30229971639756,0.9741645570375614,93,3.1
0.8827128954858428,0.535337031460142,0.17774538695812225,0.9999599456787109,0.7867199193948358,0.6664232463685229,0.030028093606233597,0.9999949336051941,0.9570159780525185,0.6636622178930954,-0.05225515365600586,0.9999958276748657,0.8297157819013704,1.0518490261698696,0.033076342195272446,0.9999883770942688,0.9265894274977995,1.04073844875272,-0.03327241539955139,0.9999909400939941,0.8521236489475307,1.3231047286277908,0.11899620294570923,0.9843053817749023,0.9590943312765017,1.2913458917728222,0.092481330037117,0.9733248353004456,0.8747495610056879,1.59345541024186,0.13452957570552826,0.9854085445404053,0.9703206334028873,1.535337031460142,0.17887352406978607,0.9635195136070251,0.7535576411819112,1.002829893613694,0.08084027469158173,0.9459959864616394,1.0035738381730688,1.053642870866416,-0.1466585099697113,0.9552057385444641,0.0014732778072357178,0.8781526046995849,1.0462937374612948,179.93837114288405,175.24412432152437,1.0,0.009051545283508882,0.02344344438191059,0.009479902726916758,0.10275508166381768,89.8225206814401,0.9826446630978484,94,3.1333333333333333
0.8887544218481882,0.5480092850014007,0.17413665354251862,0.9999630451202393,0.7967496301343059,0.6722732909811893,0.025627028197050095,0.9999950528144836,0.9655320364924767,0.6752455049528923,-0.05185975879430771,0.9999960660934448,0.839684737884523,1.0608107906468673,0.029083002358675003,0.9999875426292419,0.9358048854648061,1.0510350186446094,-0.02927432581782341,0.9999902248382568,0.8585437074971178,1.334495807250353,0.12884610891342163,0.9838325381278992,0.9636388872075035,1.3061105050303141,0.11351480334997177,0.9677520394325256,0.8817642628798426,1.605410864127321,0.15615585446357727,0.9840066432952881,0.9798820652793595,1.5480092850014007,0.2153908759355545,0.954047441482544,0.7683781230952444,1.0125148192620141,0.07636232674121857,0.9453496932983398,1.0084429322924071,1.0651777255688049,-0.14337852597236633,0.9590628743171692,0.0015731453895568848,0.8877448116746646,1.0559229046457383,179.0429437371496,177.614054942656,1.0,0.019061258241205057,0.008626732458429865,0.07775854486649572,-0.11745051358712973,90.49862853771927,0.9719594769169371,95,3.1666666666666665
0.8851161445798279,0.5443907108581917,0.1731896549463272,0.9999656081199646,0.7995023329266553,0.6690900098745427,0.024092819541692734,0.9999951124191284,0.9649519400383914,0.6723178976394826,-0.04133591800928116,0.9999962449073792,0.8403310469338798,1.0564428276101507,0.023155858740210533,0.9999868869781494,0.9346218169136088,1.0475789747335407,-0.023336196318268776,0.9999896287918091,0.856013407916045,1.3304879339643747,0.12340719997882843,0.9833539128303528,0.9574005022243819,1.314379531982372,0.10933288186788559,0.9609667062759399,0.878821165712382,1.5973245231354687,0.1464443802833557,0.9823079705238342,0.9763158021755424,1.5443907108581918,0.2038591355085373,0.9427582621574402,0.7725498377048137,1.0061882862128957,0.08026831597089767,0.9445875883102417,1.0028519098097413,1.0651338170590834,-0.13188178837299347,0.9624242782592773,0.0017140209674835205,0.8874764319237444,1.0520109011718457,178.38974520246404,179.82130264033785,1.0,0.02054794925696659,-0.0038778730045118115,0.012204804081405358,-0.09834181224002343,90.6466756753531,0.9754617256421444,96,3.2
0.8863794472960187,0.5477473875408932,0.17188529670238495,0.9999677538871765,0.8089324521336195,0.6754052773571881,0.020198503509163857,0.9999949336051941,0.9794771567109938,0.6795212729315074,-0.03919573873281479,0.9999963641166687,0.8502328824706208,1.0586142895503041,0.020907338708639145,0.9999861121177673,0.9422972769691679,1.0500764934212283,-0.021089036017656326,0.9999890327453613,0.8592324789857487,1.3318694283589412,0.12739822268486023,0.9808071851730347,0.9564788001737656,1.3192445975906189,0.11606168746948242,0.9477258920669556,0.880483169619698,1.593600139462367,0.16233810782432556,0.9783627390861511,0.977934185572112,1.5477473875408934,0.217152401804924,0.9251575469970703,0.7878914049287012,1.0118179172588897,0.07888220250606537,0.9380311369895935,1.0048650434484319,1.0669728090560562,-0.12312539666891098,0.9649218916893005,0.002181321382522583,0.8962650797198943,1.0543453914857663,177.24451018687807,177.65183584416855,1.0,0.0547543308443521,0.0020702342806641536,0.2655806386597619,0.046295365143900494,90.85302363122211,0.9793465143157043,97,3.2333333333333334
0.8865158691980485,0.5485306441868802,0.17157110571861267,0.9999699592590332,0.812677547758473,0.6762704075321063,0.01547968853265047,0.9999949932098389,0.98509635347416,0.6816626106958255,-0.0365385040640831,0.9999964833259583,0.8535284752330563,1.0591407409974352,0.019192222505807877,0.9999856948852539,0.9459404222053841,1.0515673201806204,-0.019373778253793716,0.9999885559082031,0.860338444556044,1.32942608486086,0.1332692950963974,0.9786657691001892,0.955778375955109,1.3206143548345448,0.12611982226371765,0.934661865234375,0.8807681275006187,1.5900870231191744,0.17592766880989075,0.9753539562225342,0.9780573655798532,1.5485306441868802,0.23487022519111633,0.9096687436103821,0.7932171011109398,1.0142645772627144,0.07576320320367813,0.9360159635543823,1.0055802110402479,1.0681854837779636,-0.12459264695644379,0.9670045971870422,0.0028565824031829834,0.8997344487192203,1.0553540305890279,176.96181011798072,176.51117147667614,1.0,0.024171921495955272,0.004708886395172122,-0.2363116062422673,0.02036913369191448,91.40513728614583,0.9848155929913768,98,3.2666666666666666
0.8934911085592467,0.5529156179746101,0.17088547348976135,0.999971866607666,0.8203978650154071,0.6788746278060628,0.015588472597301006,0.9999949932098389,0.9906177205527835,0.6848810503744804,-0.028733540326356888,0.999996542930603,0.8616818367100371,1.0623059143409133,0.016802143305540085,0.999984860420227,0.953487190431186,1.0541845494773758,-0.01698899269104004,0.999987781047821,0.8650018009839356,1.3309029647921755,0.10128489881753922,0.9790079593658447,0.960065806485123,1.3232036737814001,0.1060931533575058,0.9310410022735596,0.8833817171337369,1.5961729938224558,0.11091383546590805,0.9750543236732483,0.9814837397685482,1.55291561797461,0.19522711634635925,0.904473066329956,0.7995085967342911,1.0188282425897133,0.06946258991956711,0.9367445707321167,1.0098819254607188,1.0699498773185552,-0.11755398660898209,0.9695299863815308,0.0031706392765045166,0.9075845135706115,1.0582452319091447,176.74461127879295,176.07408014475192,1.0,0.036046841132966946,-0.006853078414502041,0.09169846683565461,-0.0900670995034288,91.08996201714595,0.9779986629004069,99,3.3
0.8983993434075437,0.555867218511057,0.16134312748908997,0.9999733567237854,0.8261627276124383,0.6815975912100016,0.018762651830911636,0.9999948143959045,0.998610718809521,0.6890944061303116,-0.031624309718608856,0.9999966025352478,0.8659027197195034,1.0662843909988813,0.01825164631009102,0.9999846816062927,0.9576453103189783,1.058837608106435,-0.01844499632716179,0.9999877214431763,0.8701124360753019,1.333136869326599,0.10302422940731049,0.9785120487213135,0.9652573178923427,1.3248296262131563,0.1039353758096695,0.9272409081459045,0.8865451524886118,1.5976777886410298,0.13794393837451935,0.9742599725723267,0.9848670397442983,1.5558672185110571,0.19692781567573547,0.900755763053894,0.806567171113785,1.0226059207210505,0.08773606270551682,0.9318066239356995,1.0162931593525755,1.0780259956897662,-0.10531343519687653,0.9717137217521667,0.003943115472793579,0.9117740150192408,1.0625609995526581,177.34926722115824,176.7877582316136,1.0,0.0070492272719857455,0.0037920254742671144,-0.22656578877613223,0.08299340774018103,91.2574597196498,0.9846538259440413,100,3.3333333333333335
0.9047345676504497,0.5583986838853622,0.15611526370048523,0.9999746680259705,0.835950973681297,0.6853612161342335,0.014510616660118103,0.9999947547912598,1.0076519790295513,0.6917625854003561,-0.03383202105760574,0.9999967217445374,0.8755684311405934,1.069088212148271,0.018703363835811615,0.9999843835830688,0.9686075182797973,1.06243880641868,-0.018899772316217422,0.9999875426292419,0.8802943434409854,1.3326048176282415,0.09723855555057526,0.9788079857826233,0.9723079510871866,1.3224066613944436,0.09378965944051743,0.9259746074676514,0.8916883511011127,1.6009607837428024,0.1079682931303978,0.9744079113006592,0.9907069802748618,1.558398683885362,0.16946712136268616,0.9000405073165894,0.81647945602236,1.038416135897315,0.07171963900327682,0.9324995875358582,1.0287440243753803,1.0838568946415976,-0.12732723355293274,0.9741422533988953,0.0033480823040008545,0.9220879747101953,1.0657635092834754,178.59619757207662,176.35747835383765,1.0,0.04005534638098634,-0.021526321623437178,0.25501496199329393,-0.196017828613815,91.80663442718206,0.9871434172186498,101,3.3666666666666667
0.9098884347549966,0.5579774425406185,0.1529678851366043,0.9999757409095764,0.8394657558428075,0.6856165459899911,0.0006467780913226306,0.9999947547912598,1.0114106246583285,0.6917443041067043,-0.03728514164686203,0.9999968409538269,0.8812833574143297,1.0659115176282983,0.014632748439908028,0.9999836683273315,0.9744933714228976,1.0605351732358321,-0.01483108289539814,0.9999870657920837,0.8834096365290466,1.3275609240467952,0.08643870055675507,0.9789640307426453,0.9762339974041657,1.3185150040215425,0.09280167520046234,0.9226568341255188,0.8910187335882961,1.6000554711246633,0.0957188755273819,0.9739215970039368,0.9911171532255302,1.5579774425406185,0.16263070702552795,0.8972406983375549,0.8184130618652946,1.046141750155022,0.05618663877248764,0.9338092803955078,1.0356490893917858,1.0848663178384865,-0.12730422616004944,0.9762832522392273,0.00320395827293396,0.9278883644186137,1.0632233454320652,178.8660975167382,176.8300835905171,1.0,0.03786756709140021,-0.019794819799346337,-0.015130379817110441,0.011952591802699334,92.9739314159949,0.9798494525604146,102,3.4
0.9174158844421078,0.5555605357938557,0.1412162035703659,0.9999763369560242,0.8459710437511012,0.6876325869340932,-0.01747051253914833,0.999994695186615,1.0181864708701225,0.6911325446846482,-0.04690928012132645,0.9999969005584717,0.8862124681714177,1.060174415313989,0.012135743163526058,0.9999832510948181,0.9833380537607324,1.05628163491517,-0.0123358853161335,0.9999866485595703,0.8899409388204024,1.3221258914547154,0.06895230710506439,0.9795769453048706,0.9823587127674621,1.3121666853235032,0.0856134295463562,0.9202613830566406,0.8919114552252502,1.596071407622303,0.06551051884889603,0.9743649363517761,0.9939810262830424,1.5555605357938556,0.15361595153808594,0.8964027166366577,0.8206224629608434,1.0544392389519988,0.02261459268629551,0.9363706111907959,1.0502907893808564,1.0851530418971567,-0.1465473175048828,0.9783137440681458,0.0018244683742523193,0.934775260966075,1.0582280251145795,179.5966659550818,177.04685730523298,1.0,0.032748643544861275,-0.06590751986134978,-0.0420054675503299,-0.36963451973408973,93.86992379217395,0.9716273839570977,103,3.433333333333333
0.9355917213729839,0.5587344066319859,0.14365869760513306,0.9999768733978271,0.8477898064043408,0.6901139318830872,-0.021325042471289635,0.9999948143959045,1.0270354204123173,0.6936683186306082,-0.044880494475364685,0.9999969005584717,0.8916907925059915,1.0589667507272094,0.008489402942359447,0.9999820590019226,0.9911862632699271,1.0555306107836622,-0.008680647239089012,0.9999853372573853,0.8922197552176688,1.3198786098685944,0.060862332582473755,0.9804425239562988,0.9861282075804901,1.314299375381004,0.08182959258556366,0.9183804988861084,0.8911139816200052,1.5981087608461824,0.04886249825358391,0.9748134613037109,0.994758850638776,1.558734406631986,0.1504041701555252,0.8935607671737671,0.8228925583554559,1.0662682905512848,0.012399508617818356,0.9397022128105164,1.0605473430498322,1.086328122518341,-0.12304317951202393,0.9801672697067261,0.0018507838249206543,0.9414385278879592,1.0572486807554358,179.6561307497386,176.85801353945217,1.0,0.04090130167272261,-0.015677639089626893,0.059025428068709064,0.36582953228328224,94.80947276747322,0.9565820881491125,104,3.466666666666667
0.9472105683766487,0.5622298347452946,0.13007095456123352,0.999976634979248,0.854308029276832,0.6936402897691194,-0.025891268625855446,0.9999947547912598,1.0331440928555333,0.6983068788952852,-0.05915457010269165,0.9999969005584717,0.8971178379247227,1.059984991384463,0.010305755771696568,0.9999814629554749,0.9981693524666908,1.0574915044139328,-0.010497203096747398,0.999984860420227,0.8940129886262531,1.3124489134116615,0.07605452835559845,0.9808655381202698,0.9900916882984219,1.3124437542358982,0.07992982119321823,0.9171749949455261,0.8911061370287401,1.5934509881455325,0.07662120461463928,0.9750998020172119,0.9953914229390827,1.5622298347452948,0.15058864653110504,0.8937503099441528,0.8290222209712813,1.0748474302747428,0.0038653698284178972,0.9400356411933899,1.0715219402261336,1.088262548390919,-0.13676981627941132,0.9817438125610352,0.0024261176586151123,0.9476435951957067,1.058738247899198,179.88808141224635,176.96983460784648,1.0,0.03515353194788677,-0.0012182106724028155,-0.043169096306773035,0.1075854913245749,95.25165328532483,0.9564378733796163,105,3.5
0.9570426863790881,0.5663026381244758,0.13111630082130432,0.9999759793281555,0.8602208759883351,0.6968586129059631,-0.028785845264792442,0.9999947547912598,1.0385446886002228,0.7046846338698385,-0.05703981965780258,0.9999969005584717,0.9042281470990673,1.063017269663565,0.00859068427234888,0.9999808669090271,1.0058953538921476,1.0599988429555787,-0.008770899847149849,0.9999842643737793,0.8983912199286941,1.3119483105629022,0.08369116485118866,0.9817314147949219,0.9951737919212447,1.3169059069530613,0.09900219738483429,0.9176052808761597,0.8930046438615548,1.5842677347936989,0.10286237299442291,0.9760919213294983,0.9975388964266573,1.5663026381244758,0.18708458542823792,0.8960791826248169,0.8329056079828941,1.0802061009791848,0.008669009432196617,0.9412062764167786,1.0796815818348393,1.0916318859151903,-0.13550828397274017,0.9832149744033813,0.0040597617626190186,0.9550617504956074,1.0615080563095718,179.7899598423808,177.06691181745913,1.0,0.03432406124912201,0.0028594455150000022,-0.00583120111945685,0.026242298655354303,95.1527272675752,0.9636817514529399,106,3.533333333333333
0.959773860814832,0.5707563809285956,0.12156407535076141,0.9999760985374451,0.8678724562132375,0.7047861164986045,-0.042144253849983215,0.9999948740005493,1.0471605096934682,0.711006818057334,-0.056802887469530106,0.9999969601631165,0.9159202659598188,1.0713167489987727,0.006269978825002909,0.9999809861183167,1.0178944724289483,1.0677913782382389,-0.006434713490307331,0.9999844431877136,0.9036839002381152,1.3163399650736582,0.09354277700185776,0.981661319732666,1.0036874920074457,1.3267529728542633,0.0992305725812912,0.9178550839424133,0.8999382805627614,1.5707563809285956,0.1296023428440094,0.9767797589302063,1.0042545404215464,1.577220871661686,0.19041123986244202,0.9001855850219727,0.8408013312566236,1.0858339750030206,-0.03963647037744522,0.9446701407432556,1.0916013964290179,1.0987137937650007,-0.1345258355140686,0.9846928119659424,0.003205329179763794,0.9669073691943835,1.0695540636185057,177.98451613160103,176.73010963229672,1.0,0.035677591173061365,0.005756327821928758,0.0074250790445937525,0.019051748700538895,95.48821653517305,0.9884966647371174,107,3.566666666666667
0.9914016829679433,0.5860217361834902,0.12495533376932144,0.9999759793281555,0.8975618239877767,0.7254677617590404,-0.06182645633816719,0.9999951124191284,1.0799693301931992,0.7314542287335095,-0.03646369278430939,0.9999970197677612,0.9432046860462652,1.1005960993910275,-0.01037702988833189,0.9999815821647644,1.0495294341256762,1.0965082960544836,0.010141274891793728,0.9999847412109375,0.9275404735222936,1.3360416722704438,0.042384084314107895,0.9825918674468994,1.033363360672641,1.3498712303947216,0.09872773289680481,0.9194753170013428,0.9288542661058793,1.58602173618349,0.01387216616421938,0.9780246615409851,1.0314943859207226,1.617379018828632,0.11813952773809433,0.9059749841690063,0.8660960581531648,1.11401868226592,-0.04882080480456352,0.9487525820732117,1.1232066799518494,1.1208194560057916,-0.08852504193782806,0.9860446453094482,0.0030046701431274414,0.9963670600859706,1.0985521977227555,175.89259619370364,176.74943225156971,1.0,0.028696402745158157,0.004106769001505845,-0.06106817374943515,-0.013881624495792343,94.73549862258393,1.0181637874861673,108,3.6
