nose_x,nose_y,nose_z,nose_visibility,left_shoulder_x,left_shoulder_y,left_shoulder_z,left_shoulder_visibility,right_shoulder_x,right_shoulder_y,right_shoulder_z,right_shoulder_visibility,left_hip_x,left_hip_y,left_hip_z,left_hip_visibility,right_hip_x,right_hip_y,right_hip_z,right_hip_visibility,left_knee_x,left_knee_y,left_knee_z,left_knee_visibility,right_knee_x,right_knee_y,right_knee_z,right_knee_visibility,left_ankle_x,left_ankle_y,left_ankle_z,left_ankle_visibility,right_ankle_x,right_ankle_y,right_ankle_z,right_ankle_visibility,left_wrist_x,left_wrist_y,left_wrist_z,left_wrist_visibility,right_wrist_x,right_wrist_y,right_wrist_z,right_wrist_visibility,trunk_lateral_inclination,center_mass_x,center_mass_y,left_knee_angle,right_knee_angle,person_height,center_mass_velocity_x,center_mass_velocity_y,center_mass_acceleration_x,center_mass_acceleration_y,body_orientation,torso_leg_ratio,frame,timestamp
1.105784628635977,1.0772746596779865,-0.23053757846355438,0.9999931454658508,1.0171728998532168,1.2319152447583441,0.0481228232383728,0.9999648928642273,1.0039210000390721,1.2378664697892958,-0.3036922812461853,0.9999961256980896,1.1011086452842447,1.6582913598476299,0.1187019795179367,0.9999854564666748,1.0717933219149123,1.6980448724116837,-0.11884437501430511,0.9999942183494568,1.3103215411019418,1.7448612731830977,0.2208070307970047,0.444296270608902,1.3410215229654303,1.7566275536178841,-0.14803089201450348,0.9811381101608276,1.3055723702204316,2.0772746596779865,0.3476366400718689,0.6166370511054993,1.3252733743766667,2.116089126665745,-0.02587508223950863,0.9687740206718445,1.180542045506898,1.6250171305473087,-0.0078961830586195,0.050467442721128464,1.1997526057384855,1.633092689236418,-0.39311736822128296,0.9899863004684448,0.0024330615997314453,1.0864509835995786,1.6781681161296569,111.66068876596687,99.76736571468231,1.0,0.08753449128656815,0.011308403617709446,0.5362659625604489,0.07516542898207561,132.45717105986398,1.2602336169540824,0,0.0
1.1081940477631747,1.06337456766291,-0.25208133459091187,0.9999933242797852,1.0132609829024741,1.2049605725312613,0.04110506549477577,0.9999651312828064,1.005687030154254,1.2158881003603572,-0.3096018135547638,0.9999960064888,1.0853605744360046,1.6442669313298126,0.11929865181446075,0.9999844431877136,1.0606681003228395,1.6817397292118532,-0.1194307804107666,0.999993622303009,1.2889377548586471,1.7451738922581845,0.22989217936992645,0.41826358437538147,1.3248578981992527,1.7489195991900222,-0.1477651298046112,0.979692816734314,1.2852784828775825,2.06337456766291,0.34804821014404297,0.6044860482215881,1.3082999053255906,2.1026399889063123,-0.02513105608522892,0.9675142168998718,1.1810040220390365,1.596129445790351,-0.019837800413370132,0.04970471188426018,1.1962197479476029,1.6066042362938193,-0.42668214440345764,0.9866481423377991,0.004513770341873169,1.073014337379422,1.663003330270833,115.70733741495339,101.5870405211843,1.0,-0.018165337552369525,0.015905735711386912,-0.8242770291539218,0.0370688571522339,137.29698180791948,1.2621556247739885,1,0.03333333333333333
1.0979427876775436,1.0485464756419498,-0.2597792148590088,0.9999933242797852,1.013974397250825,1.190537902745991,0.041202906519174576,0.9999619126319885,0.9996556820458212,1.2024866566976518,-0.31064528226852417,0.9999958872795105,1.072472754048181,1.6324924493492798,0.11944670975208282,0.9999832510948181,1.0453903586118254,1.6681338909242414,-0.11956874281167984,0.999993085861206,1.275557308914244,1.7281651515391647,0.20420272648334503,0.4034842252731323,1.3079678872641765,1.7305972942020227,-0.14684459567070007,0.9780599474906921,1.2754986256552072,2.04854647564195,0.30722731351852417,0.6006409525871277,1.29363046766274,2.0853347394470436,-0.004926937632262707,0.9664463996887207,1.1582301271856124,1.5787540044899118,-0.025175323709845543,0.047292158007621765,1.1873063970035271,1.5900644530656005,-0.43374204635620117,0.985576331615448,0.004988044500350952,1.0589315563300032,1.6503131701367606,115.2145303639759,101.06666501156361,1.0,-0.022207216737012127,0.03800055580320065,-0.033552830718145514,0.1764656337683355,135.2303611333511,1.272739202919635,2,0.06666666666666667
1.0923414647566876,1.0392694977393517,-0.2543436884880066,0.999993622303009,1.0085800055607133,1.1854201398908233,0.055500566959381104,0.9999615550041199,0.9935687103176254,1.1942505268352752,-0.3065077066421509,0.999995768070221,1.057750160469443,1.6287836505079678,0.1212553009390831,0.9999823570251465,1.0372616125030312,1.6620663175118886,-0.1213717833161354,0.9999925494194031,1.2711186069126732,1.7161855213730226,0.19984053075313568,0.3928895592689514,1.301905137872914,1.7220388438067327,-0.14195749163627625,0.9771196246147156,1.2695925743222871,2.039269497739352,0.314209520816803,0.5946705937385559,1.2844813803194404,2.0795796208890303,0.015697160735726357,0.9653387069702148,1.156841827710167,1.5670657057765658,-0.0221914891153574,0.048317160457372665,1.184630109136283,1.5810663047866564,-0.41960495710372925,0.9849302172660828,0.003701835870742798,1.047505886486237,1.6454249840099282,112.00479669604263,99.97855198691222,1.0,-0.056254540944948174,0.016537643946668457,-0.2754026350899123,-0.17184607424398643,142.05548563089144,1.2839997611687017,3,0.1
1.0787160110911886,1.024279925129493,-0.23020616173744202,0.9999938011169434,0.9997224184866621,1.1709142019054233,0.07969722896814346,0.9999597668647766,0.9806017897024207,1.1794712924918167,-0.2891114354133606,0.9999954104423523,1.0360691032685345,1.6142842393989303,0.1233915314078331,0.9999805688858032,1.02278084458755,1.6432779267531519,-0.12352220714092255,0.9999915361404419,1.2545955882998023,1.6985661283035798,0.200033038854599,0.3947952687740326,1.282350932235229,1.7020359323127832,-0.13779565691947937,0.9771903157234192,1.2483178244459405,2.024279925129493,0.290884405374527,0.6067937016487122,1.267638901473442,2.0535688104217926,0.008985559456050396,0.9658945798873901,1.1495842909778569,1.5437118592999317,0.020773734897375107,0.05017360672354698,1.1665202023544667,1.5633740352287788,-0.3926030099391937,0.9850164651870728,0.003633558750152588,1.0294249739280423,1.6287810830760412,109.98659065464362,100.35839888027867,1.0,-0.03492640272628274,0.03185946818717394,0.1520256753935889,0.1145646632154908,150.69074969084735,1.291739050005851,4,0.13333333333333333
1.0781739715715708,1.0224382471594997,-0.22164399921894073,0.9999932646751404,1.0006829629467526,1.1704697118523426,0.08550991117954254,0.9999558329582214,0.9792933939239374,1.178316385864175,-0.28324875235557556,0.9999948740005493,1.0325948748249631,1.6152826303661725,0.12375649064779282,0.9999775886535645,1.0178688413744381,1.6443180597090719,-0.1238875612616539,0.9999898672103882,1.257698606354382,1.694758839800474,0.18202269077301025,0.3882986009120941,1.2782962133116962,1.70042581200135,-0.1459255963563919,0.97557532787323,1.2490663531083266,2.0224382471594997,0.26494210958480835,0.6066766381263733,1.2652049562193888,2.054610943287071,0.007341698743402958,0.9639807343482971,1.154080775501375,1.5447426652851695,0.017964521422982216,0.051022473722696304,1.1663552406130997,1.5648663996258398,-0.39103007316589355,0.9849154353141785,0.0033339858055114746,1.0252318580997006,1.6298003450376222,107.93730660780932,100.0414618840719,1.0,-0.027741389122648386,0.015943642232894215,0.056001448291227225,-0.12427398405945028,149.0035304282167,1.297344608392105,5,0.16666666666666666
1.0749187780868783,1.0173340058280547,-0.19953614473342896,0.9999909400939941,0.9969265173686442,1.1668221024268182,0.09524941444396973,0.9999513626098633,0.9749542553291887,1.17413411935523,-0.2803724408149719,0.9999942779541016,1.0278505789431556,1.6112653351690622,0.12482792139053345,0.9999756813049316,1.0116380035015864,1.6397684856530381,-0.12496228516101837,0.9999887943267822,1.254976653178324,1.6874055789798563,0.18120041489601135,0.37565627694129944,1.272603984146741,1.6940090297446093,-0.14882655441761017,0.9730985164642334,1.2445757743213972,2.0173340058280544,0.26263779401779175,0.5997443795204163,1.2591100490075284,2.052615232005436,-0.0010317061096429825,0.961167573928833,1.1512261668954338,1.536297133613586,0.029890278354287148,0.04936126247048378,1.1595305679259864,1.5611864288887514,-0.36961477994918823,0.9840061664581299,0.0031172633171081543,1.019744291222371,1.62551691041105,106.72724008848414,99.58652847806526,1.0,-0.015712468054607204,0.00903585397267897,0.09143648150459875,-0.05250844334385694,146.3886191369224,1.2974783991733292,6,0.2
1.0753520843975581,1.017888910948745,-0.1943472921848297,0.9999880790710449,0.9936371073456383,1.1679721391013373,0.09303535521030426,0.9999464154243469,0.9757297276801711,1.1750106789757866,-0.2782188057899475,0.9999935030937195,1.0248419630510937,1.6132875980748322,0.12493421137332916,0.999973475933075,1.0109564962381883,1.6412689631396595,-0.1250706911087036,0.9999875426292419,1.2576912061345242,1.6875038563939746,0.18758556246757507,0.3639117479324341,1.2737910301080657,1.694324269530773,-0.14637231826782227,0.970242977142334,1.245509828225544,2.017888910948745,0.2750452160835266,0.5929860472679138,1.2599413114551796,2.0535882408001656,0.00859050452709198,0.957853376865387,1.1475933093435897,1.5376496683116416,0.033246565610170364,0.047267667949199677,1.1611156979754789,1.559091988340643,-0.33339110016822815,0.9827721118927002,0.0029984712600708008,1.017899229644641,1.6272782806072459,105.56713672908681,99.20459415961679,1.0,-0.01969817323147566,0.004305132711540138,-0.03017491867830783,-0.03596972867222992,149.59919399582546,1.299134876389977,7,0.23333333333333334
1.0761622234526014,1.0186908102232974,-0.19575700163841248,0.9999826550483704,0.9929989267513202,1.1689515758400248,0.08697798103094101,0.9999416470527649,0.9759892897748333,1.1758222995327787,-0.28349095582962036,0.9999926090240479,1.0249620799700827,1.613836570358973,0.1249634250998497,0.9999717473983765,1.0115965601438242,1.64225011335581,-0.1251002997159958,0.9999864101409912,1.2598169771825973,1.6878609770882302,0.18998000025749207,0.3495270609855652,1.2748920223341573,1.6948607902445327,-0.14380452036857605,0.965314507484436,1.245514928699423,2.0186908102232977,0.28400978446006775,0.581802487373352,1.260669919711814,2.0540723840464743,0.031390801072120667,0.9513062834739685,1.1476686155862086,1.5383140538032842,0.039572156965732574,0.04579954221844673,1.1633382143244921,1.5591241993950578,-0.3432469069957733,0.9810658693313599,0.002924978733062744,1.0182793200569533,1.6280433418573916,105.01903660583332,99.03249988454063,1.0,-0.002425590429022393,-0.002671073809462111,0.13249429860445133,-0.05349384401800357,150.69865014142994,1.2994530183418167,8,0.26666666666666666
1.077490416464967,1.0192473297206683,-0.20064572989940643,0.9999817609786987,0.9948892949028256,1.1694795364493689,0.09286607056856155,0.9999380707740784,0.9763359380602769,1.1763167345722174,-0.27899637818336487,0.9999920129776001,1.0255325851396657,1.6144564306332472,0.12524786591529846,0.9999691247940063,1.0112451059819636,1.6430582822360873,-0.12538571655750275,0.9999849200248718,1.2603670821679576,1.688151882081899,0.19111162424087524,0.3429015874862671,1.2741940137783276,1.6952428856049198,-0.14251209795475006,0.963880717754364,1.2441126111589214,2.0192473297206686,0.28897812962532043,0.5809062719345093,1.2607690807874354,2.054488601728342,0.021692777052521706,0.9496600031852722,1.1520090546337134,1.5372798392229632,0.03377964347600937,0.04593035206198692,1.1618861747212061,1.559357547377008,-0.3523483872413635,0.9810076355934143,0.0029094815254211426,1.0183888455608148,1.6287573564346673,104.61226592097303,99.08488116568937,1.0,-0.0024360194095740056,0.00021863768674912622,-7.180917027843143e-05,0.022065435062035364,149.51705348213815,1.3016258867252892,9,0.3
1.0777208757971628,1.0189198443784622,-0.20506957173347473,0.9999813437461853,0.9944090531067494,1.1678230606273883,0.08770056068897247,0.9999354481697083,0.9755411563183497,1.175220271433859,-0.27941855788230896,0.999991238117218,1.0254413672381673,1.6136115847886534,0.12501993775367737,0.9999663233757019,1.0120492505159928,1.6424056718927202,-0.1251579076051712,0.9999831914901733,1.2591012072773953,1.6890670695895378,0.20078405737876892,0.3399038016796112,1.2731564608905006,1.6954928884659337,-0.13614249229431152,0.9626547694206238,1.2427176934821946,2.018919844378462,0.29328352212905884,0.5821886658668518,1.2602969819920389,2.053306768651968,0.02673952840268612,0.9480327367782593,1.148711388220933,1.5353974169165856,0.03194471076130867,0.046427030116319656,1.1605065016049494,1.558108035165018,-0.35288363695144653,0.9808758497238159,0.003148883581161499,1.01874530887708,1.628008628340687,105.05326385735785,99.43422070783848,1.0,0.005429102417894992,-0.0013890888400326167,0.060060371578919566,-0.012277812555735018,151.07482250368952,1.3024961439250404,10,0.3333333333333333
1.0793327637917798,1.0192566579321243,-0.19500210881233215,0.9999786615371704,0.998190530207984,1.1682658440131712,0.08608078956604004,0.9999331831932068,0.9761330388188626,1.1756547807840443,-0.2779591679573059,0.999990701675415,1.0268699050886243,1.6140532172363098,0.124055877327919,0.9999645352363586,1.0123943568465195,1.643479546401401,-0.1241874247789383,0.9999820590019226,1.2594943415026527,1.689235783690275,0.2017957866191864,0.33126768469810486,1.2737331137804102,1.6980427850876103,-0.13527438044548035,0.9604634642601013,1.2425215456673324,2.0192566579321243,0.29450738430023193,0.5797271728515625,1.260594253746379,2.0551587852111455,0.026245582848787308,0.9460311532020569,1.1503418825026763,1.5354122230321736,0.029898077249526978,0.04717497155070305,1.16186210814926,1.5588752434376956,-0.3531259298324585,0.9809055924415588,0.0031444132328033447,1.019632130967572,1.6287663818188554,104.96636709143009,99.68595871822924,1.0,0.004553341239820016,0.0020960829002252476,-0.006892675768797598,0.027382141796454443,150.12526635274597,1.3038733385318981,11,0.36666666666666664
1.0773084068270755,1.016864097768394,-0.19894543290138245,0.9999803304672241,0.9961676125427147,1.1656368576560765,0.0983334630727768,0.9999333620071411,0.9744876165111321,1.1729504835111553,-0.26729878783226013,0.9999904036521912,1.0203975264462193,1.610097666388831,0.12409856170415878,0.9999628067016602,1.0073080365345934,1.6395776988907296,-0.12423454225063324,0.9999807476997375,1.2554488538749011,1.6849775134650224,0.1962071806192398,0.3304729461669922,1.2707216721011163,1.693861598643472,-0.13379527628421783,0.9597350358963013,1.2363792102429887,2.016864097768394,0.2799908518791199,0.5833309888839722,1.2558125789054853,2.050155907108288,0.023000866174697876,0.9456213712692261,1.147636311299999,1.5324539003326345,0.028743479400873184,0.0492883175611496,1.1584030892174322,1.553742084998194,-0.34493526816368103,0.9807778000831604,0.0031197071075439453,1.0138527814904064,1.6248376826397801,104.38171478128874,99.2482804364742,1.0,-0.02565951423805654,-0.0007214657865753604,-0.22932188162437567,-0.02135591119031,152.93779402471418,1.300434049437286,12,0.4
1.0772198690716406,1.0166116796420681,-0.23138245940208435,0.999981701374054,0.9992242342813867,1.1658986406816458,0.08970562368631363,0.9999340772628784,0.9744522450872186,1.1732101400519341,-0.283485472202301,0.9999902248382568,1.0201688612012043,1.6092457810013865,0.1248016357421875,0.9999614953994751,1.0061878995491984,1.6386536494822468,-0.12493366003036499,0.9999797344207764,1.2539812549471736,1.6839258535849573,0.19562572240829468,0.32273799180984497,1.2700134671364511,1.6927368594162937,-0.1396862268447876,0.9589487910270691,1.236356170668458,2.016611679642068,0.27981889247894287,0.5831739902496338,1.2538330710552934,2.048943700945074,0.011405798606574535,0.9446219801902771,1.1510995950082559,1.5310162782309693,-0.017658015713095665,0.05077508091926575,1.1577352585135032,1.5520646757744128,-0.3885541558265686,0.9800757765769958,0.003120332956314087,1.0131783803752012,1.6239497152418165,104.68097945514816,98.9840865075741,1.0,-0.0013157663394915897,-0.0006696078202957199,0.1815617116853074,0.00038432513373162303,151.86809394910966,1.2992913586019168,13,0.43333333333333335
1.0803070042499239,1.0181988236968949,-0.22728733718395233,0.999982476234436,1.0046241709692274,1.1689702375340587,0.09221958369016647,0.999931812286377,0.9766393614190836,1.1741221982919934,-0.28174564242362976,0.9999895691871643,1.0234865058226355,1.6109220617599316,0.12569528818130493,0.9999593496322632,1.0074062493469895,1.6398873219120051,-0.1258319914340973,0.999978244304657,1.2550082198087922,1.6858719856769928,0.19687624275684357,0.3163919448852539,1.2713504143310583,1.6933959254376718,-0.1406254768371582,0.9578011631965637,1.237453618340751,2.018198823696895,0.28471118211746216,0.5797083377838135,1.255204323906662,2.0504676621477227,0.01579456962645054,0.9424604177474976,1.1507001286697272,1.5328962527553989,-0.012498170137405396,0.05107977241277695,1.1594443726545345,1.553723961607486,-0.3820672333240509,0.9790099859237671,0.002196967601776123,1.0154463775848124,1.6254046918359684,104.91444643663824,98.87104819303914,1.0,0.011236692425090102,0.0013059944162399216,0.09618233757040351,0.015140717053678903,148.51898567218493,1.3003619667229647,14,0.4666666666666667
1.083419435125153,1.0205223122480285,-0.21492424607276917,0.9999833703041077,1.008534830643085,1.1707301140530224,0.09877008199691772,0.9999295473098755,0.9790707077263049,1.1749901507196916,-0.2690656781196594,0.9999884963035583,1.0219090097852155,1.6146813270863987,0.12568449974060059,0.9999578595161438,1.0069018748707423,1.6411890922638894,-0.12582358717918396,0.9999768733978271,1.2534618305680396,1.6874901166240115,0.1970491260290146,0.31513726711273193,1.2724927453135226,1.6926852491736781,-0.13827350735664368,0.9576236009597778,1.23711185040648,2.0205223122480285,0.2791615426540375,0.5815408825874329,1.2563683911294161,2.0518503323437076,0.00857554841786623,0.9428715705871582,1.150655416887356,1.5344776566287353,0.012673497200012207,0.050173692405223846,1.1650873664209935,1.5552495142851808,-0.3556250035762787,0.9758373498916626,0.0018152594566345215,1.014405442327979,1.627935209675144,104.64444120496604,98.40257192295789,1.0,-0.013456559076213162,0.009785069764694865,-0.18437560120123414,0.06328127407605345,148.75848437313562,1.3014179012487608,15,0.5
1.0975220734712845,1.0314783828138296,-0.20239178836345673,0.9999833106994629,1.019318444477564,1.1817847935385684,0.10298587381839752,0.9999249577522278,0.9907500871625181,1.185187922953342,-0.26438456773757935,0.9999865889549255,1.0305865496120308,1.6283026271343708,0.12572792172431946,0.9999563694000244,1.0143140498502596,1.6554710941017337,-0.12586596608161926,0.9999753832817078,1.261332590938385,1.695878530117251,0.19236476719379425,0.30388545989990234,1.282519060607063,1.7057660007142283,-0.13828334212303162,0.9560434818267822,1.2474684075988083,2.03147838281383,0.266986608505249,0.5713244676589966,1.2672910298465763,2.0712446638305844,-0.016073817387223244,0.9427606463432312,1.1610481198464697,1.5496077281113456,0.01883520931005478,0.04865705221891403,1.1757206945436722,1.5690906581177453,-0.35335004329681396,0.9662429094314575,0.0014379024505615234,1.022450299731145,1.6418868606180523,103.95747151019614,98.23508449893828,1.0,-0.004358950487304403,0.0009099222113195945,0.06994601370273536,-0.06802001118370966,147.63500136404573,1.3027494742763501,16,0.5333333333333333
1.1056058970817548,1.035997594730466,-0.1890028417110443,0.999978244304657,1.0286109002827712,1.1838394450770278,0.09940888732671738,0.9999132752418518,0.9991994454163955,1.189827731937589,-0.26530712842941284,0.9999831914901733,1.038179729912694,1.6284344997099465,0.1254774034023285,0.9999555945396423,1.0173276267689106,1.6585509912545615,-0.12560388445854187,0.9999744892120361,1.2655391406004477,1.6982512304735349,0.18954624235630035,0.2892530858516693,1.2856280196225311,1.7085101787372619,-0.13832534849643707,0.9511405229568481,1.2509963804299296,2.035997594730466,0.27177074551582336,0.5509938597679138,1.2701881971401896,2.077159519497566,-0.01128765381872654,0.9386270046234131,1.1641142552519823,1.5571273785354793,0.006670322269201279,0.045184627175331116,1.178430628795573,1.572932021440977,-0.3263458013534546,0.9440949559211731,0.0025241971015930176,1.0277536783408023,1.643492745482254,104.6049596083091,98.14975685287824,1.0,0.02246663711943674,-0.017925793414153228,0.20971590935003842,-0.14721311627976086,144.06902359733348,1.2915995669568536,17,0.5666666666666667
1.1114540112490516,1.0379432508484463,-0.18249322474002838,0.9999780058860779,1.036553016384396,1.1844898780250508,0.10947573184967041,0.9999064803123474,1.0062701660918172,1.1928223018647108,-0.25386372208595276,0.9999827146530151,1.0436185621021732,1.6283287556860448,0.12543216347694397,0.9999547600746155,1.0200358568028087,1.6578822191664493,-0.1255568563938141,0.9999741315841675,1.2684052224718192,1.6994455259736894,0.17809292674064636,0.2825656831264496,1.2861604723133269,1.7087129541064188,-0.13912180066108704,0.9502145051956177,1.2546480195825365,2.0379432508484463,0.25303885340690613,0.5416697263717651,1.2699330303793992,2.080058690457842,-0.016711929813027382,0.9379950165748596,1.1643154575328463,1.5593554433072572,0.01050952635705471,0.04262461140751839,1.1707403141753059,1.5737331059634516,-0.3147335350513458,0.9420364499092102,0.003510802984237671,1.031827209452491,1.643105487426247,105.22871336298476,98.3112732141566,1.0,0.027745984860947016,-0.008318692462907637,0.04023167148806259,0.07340352075527226,140.49924412149775,1.2837001741300038,18,0.6
1.121859657987603,1.0395264286908095,-0.1551721841096878,0.999971866607666,1.03892521594425,1.1848609207962908,0.11698047071695328,0.9998994469642639,1.014287244343889,1.1934349805014666,-0.2531800866127014,0.9999812245368958,1.0464634171635656,1.6293123104486216,0.1257626861333847,0.9999546408653259,1.0226909144245542,1.6589511856732269,-0.12588365375995636,0.9999738931655884,1.2716276074231545,1.6987770527153785,0.18252696096897125,0.2673843502998352,1.2889868202528207,1.7100012480137432,-0.14005503058433533,0.9455800652503967,1.2575632075071672,2.0395264286908095,0.25642022490501404,0.5226588845252991,1.270955251522198,2.0837180077906354,-0.0229909997433424,0.9341525435447693,1.1653266387507064,1.5600694215608497,0.03852115571498871,0.03980524092912674,1.1683970498738996,1.5744351003475963,-0.30863434076309204,0.9303137063980103,0.003609687089920044,1.03457716579406,1.6441317480609243,104.78182711564466,98.08984430231692,1.0,0.015399437653104217,-0.002464912855431848,-0.09955986026107368,0.047172031208482706,140.29620470298374,1.2819939173111432,19,0.6333333333333333
1.1413363523557365,1.0532787197922773,-0.17186574637889862,0.9999730587005615,1.0564156519617431,1.1950118678639605,0.11216083914041519,0.9998944401741028,1.0283490396224586,1.201963172651627,-0.2520335614681244,0.9999805092811584,1.055664699135085,1.6411087206714312,0.1257520616054535,0.9999546408653259,1.0296300516319283,1.6714036635973764,-0.12587407231330872,0.9999737739562988,1.2822404005918353,1.7086857762247565,0.18186156451702118,0.2628411650657654,1.2983482389008252,1.7223620732030698,-0.14237907528877258,0.9462174773216248,1.2682412480875909,2.053278719792277,0.25567570328712463,0.5161891579627991,1.280390541103152,2.101120946114999,-0.02708933688700199,0.9353229999542236,1.1789776845369244,1.571469325623399,0.03563591092824936,0.037703730165958405,1.176698729519298,1.5860811050443395,-0.3137397766113281,0.9247039556503296,0.0029054582118988037,1.0426473753835068,1.6562561921344037,104.28103688198479,98.02331681225381,1.0,0.0040302171004414486,0.0014992557389440285,-0.08038774302222006,0.02788191118108882,139.42158635167073,1.2716315098465012,20,0.6666666666666666
1.1621488127683501,1.0614569416096509,-0.1808609515428543,0.9999752640724182,1.0719816683661099,1.204950423829118,0.11651909351348877,0.9998946189880371,1.0431328305503158,1.2072410899592994,-0.25057119131088257,0.9999812245368958,1.0609893081231097,1.6500472290476984,0.1262330263853073,0.9999549984931946,1.0345381755716923,1.6801672103165664,-0.1263587921857834,0.9999740719795227,1.2884160156910487,1.715326914997458,0.18161769211292267,0.2608415186405182,1.304621912558628,1.7302768573654101,-0.1446360945701599,0.9481782913208008,1.2750149166986209,2.061456941609651,0.25488993525505066,0.5139343738555908,1.286993269287535,2.111255788280891,-0.02711975947022438,0.9375540018081665,1.1823948996067495,1.5810284812938007,0.037325479090213776,0.03698823228478432,1.1824330869283866,1.5937288823394886,-0.31427937746047974,0.9272339344024658,0.0009528398513793945,1.0477637418474008,1.6651072196821324,103.79818209724178,97.86148610606621,1.0,0.0006568137759119525,0.006557764141711107,-0.02585525868779725,0.03849334736581497,140.12537060207032,1.2759630341175043,21,0.7
1.1838443326929393,1.072270481103088,-0.18556208908557892,0.9999774098396301,1.0869582051854252,1.2137743964715717,0.11599787324666977,0.9998961687088013,1.0625169757297988,1.2149289083294368,-0.2525639235973358,0.9999816417694092,1.0676230877856583,1.660127052544638,0.12669195234775543,0.9999552965164185,1.0405175114544492,1.6911568299665478,-0.1268191635608673,0.9999743103981018,1.2964356285012724,1.7243631059483822,0.18988469243049622,0.25577718019485474,1.3128264955135764,1.7406221688340202,-0.1443178355693817,0.9500827193260193,1.2831816708624555,2.072270481103088,0.2905449867248535,0.4982682168483734,1.2967517276759464,2.1225595236593096,-0.00512585137039423,0.938302218914032,1.188719931732961,1.5911375424370713,0.012990797869861126,0.03617381304502487,1.188715893969781,1.6023690133401207,-0.2794215679168701,0.9266614317893982,0.00047719478607177734,1.0540702996200537,1.675641941255593,103.49967661896636,97.88559163020017,1.0,-0.0028960397066513524,-0.000649251433611013,-0.027445949441187733,-0.05593163797243832,141.34206048138702,1.2770918104821452,22,0.7333333333333333
1.2041822837026483,1.0817656541749936,-0.15044404566287994,0.9999790787696838,1.0971370403101148,1.219915028258605,0.13041895627975464,0.9998977184295654,1.080849039459485,1.2200684371853099,-0.23292775452136993,0.9999818801879883,1.06565844118133,1.6679771613365757,0.12613865733146667,0.9999552369117737,1.0444691772276544,1.6990790466656482,-0.12626779079437256,0.9999744296073914,1.2996204541469192,1.7311025444514678,0.2044891119003296,0.24599747359752655,1.3188048271226982,1.7483953085840842,-0.14117033779621124,0.9524085521697998,1.289480689053795,2.0817656541749936,0.2947774827480316,0.4875602126121521,1.3044478375968773,2.132165484338709,-0.005608174484223127,0.9410353302955627,1.1894197528262045,1.6008548889896645,0.069655641913414,0.03599066287279129,1.1962100896862773,1.6097172603947043,-0.25454181432724,0.9257128834724426,6.312131881713867e-05,1.0550638092044922,1.6835281040011119,103.44314751252907,98.04853674248173,1.0,-0.0274456576817318,0.001882205991637853,-0.1770642513048619,0.018289278191928975,149.75267352544344,1.2712882006255428,23,0.7666666666666667
1.2365280015857225,1.1060648751426967,-0.12893249094486237,0.999980628490448,1.1153102253414626,1.2381422084858185,0.14508917927742004,0.9998996257781982,1.1143103391317435,1.236851312809482,-0.23164138197898865,0.9999818205833435,1.075000862603742,1.6920313767522785,0.1284736543893814,0.9999553561210632,1.058640903568243,1.723929949234852,-0.12861934304237366,0.9999744892120361,1.3170662663206463,1.7534875252816309,0.22750750184059143,0.24170394241809845,1.3366850321732842,1.7722767232803902,-0.13982023298740387,0.9554899334907532,1.3071690079322837,2.1060648751426965,0.29445475339889526,0.48781511187553406,1.325509064680598,2.1640293505511488,-0.03850960731506348,0.9446772336959839,1.1905828631837052,1.6232850152882747,0.10328308492898941,0.03642983362078667,1.2123971207388293,1.631677011793812,-0.24651701748371124,0.9235619902610779,0.0005240440368652344,1.0668208830859924,1.7079806629935654,102.6374749733196,98.22996357652727,1.0,-0.020518524222077054,0.013098464939762562,0.058780603487946614,0.09011858161826734,157.9229331984707,1.2643731123950575,24,0.8
1.260276592995084,1.12731193268182,-0.12959995865821838,0.9999818801879883,1.1399519598596357,1.2596379261909072,0.14077046513557434,0.9998946189880371,1.143123495872577,1.25178738104423,-0.21134600043296814,0.9999811053276062,1.0818220109611356,1.7174970756192913,0.12489509582519531,0.9999498724937439,1.0692874891074835,1.7448492753015001,-0.12507475912570953,0.9999717473983765,1.3259704506500885,1.771088738578196,0.21832887828350067,0.23799630999565125,1.3493570440299743,1.7898545991312975,-0.1271364986896515,0.957220733165741,1.3203011891554761,2.12731193268182,0.2676296532154083,0.485177606344223,1.341770892408221,2.1854484061541264,-0.043795593082904816,0.9470382332801819,1.190680298775063,1.6394504203197175,0.12255319207906723,0.03613240271806717,1.2248014472097846,1.6499755958696778,-0.23038771748542786,0.9234490394592285,0.0031555891036987305,1.0755547500343097,1.7311731754603958,101.46855179092071,98.03040424555893,1.0,-0.013992903124408297,0.046459509654638895,0.05031869613354242,0.24847438433014113,162.61530978541447,1.2730004314678265,25,0.8333333333333334
1.2809196189513594,1.1279665097601612,-0.10292716324329376,0.9999825358390808,1.1569684661913902,1.2689268688109847,0.14605404436588287,0.999888002872467,1.1653354718947968,1.2591721136640777,-0.20308490097522736,0.9999798536300659,1.0811333911667182,1.7185113289794876,0.1219421997666359,0.9999473690986633,1.0698147055673939,1.7447508205117648,-0.12213313579559326,0.9999703168869019,1.3206946108458482,1.7690389166741587,0.20402400195598602,0.23711596429347992,1.3471818962645628,1.7878352604627747,-0.12498859316110611,0.9586886167526245,1.3189252469681536,2.1279665097601614,0.2244589775800705,0.48711612820625305,1.3422356459133487,2.1825100469090266,-0.043734923005104065,0.9490234851837158,1.1884810945706181,1.6398580243229028,0.1583438664674759,0.03520706668496132,1.2236555330242007,1.6500794851100757,-0.22408290207386017,0.9193561673164368,0.0039255619049072266,1.075474048367056,1.7316310747456263,101.62766115160893,98.11137649963786,1.0,0.009363746657628175,0.019780599623971065,0.18698957141498518,-0.21330340608777415,166.24095096686528,1.2895324342670613,26,0.8666666666666667
1.326465623996006,1.165294572813235,-0.12132736295461655,0.9999837279319763,1.2017198937519702,1.3045342447777224,0.14550639688968658,0.9998860359191895,1.2029540994634806,1.2909112985820022,-0.2091408669948578,0.9999789595603943,1.1010821642379751,1.7524807044588273,0.12222041934728622,0.9999427795410156,1.089629730744807,1.779492501248158,-0.1224035769701004,0.9999675750732422,1.3438855344906384,1.7981718822824924,0.2128642350435257,0.2285369336605072,1.371332791333636,1.8228127069264846,-0.12726734578609467,0.9592680931091309,1.3444341206406858,2.165294572813235,0.24103710055351257,0.4765704870223999,1.3670157486609642,2.22237498435089,-0.05597656965255737,0.9493139982223511,1.2110125238130434,1.6700475280439593,0.17772109806537628,0.03690939024090767,1.2461347075388738,1.6819569909665042,-0.2416357696056366,0.915534496307373,0.005383312702178955,1.0953559474913912,1.7659866028534927,100.74300494130773,98.12341729596953,1.0,0.0009530367673127417,0.01981492863989368,-0.06694984542365759,-0.0025671534649926416,169.68617060947057,1.2850544573841858,27,0.9
1.362767687498147,1.1894647435215877,-0.07377655804157257,0.9999779462814331,1.2208050633887746,1.3182232561351297,0.17157569527626038,0.9998717904090881,1.2324863534852604,1.3045024676490007,-0.21102532744407654,0.9999770522117615,1.1122458086779936,1.7706409942453663,0.126059427857399,0.9999421834945679,1.1031569733901823,1.795990711551637,-0.12624531984329224,0.9999673366546631,1.35847634935657,1.8173629535052445,0.21101176738739014,0.21403852105140686,1.385833020270826,1.8428510814051693,-0.12842214107513428,0.958865761756897,1.3586921967140746,2.189464743521588,0.2375396490097046,0.4553379714488983,1.3811253833062647,2.2458481585484202,-0.057371027767658234,0.9486088752746582,1.227769418011654,1.6990543644953047,0.20939421653747559,0.03451048955321312,1.2618194148753128,1.7067157262101267,-0.22575673460960388,0.8999805450439453,0.0053650736808776855,1.107701391034088,1.7833158528985016,100.77731329696898,98.74328340625665,1.0,0.005823072376180633,-0.01120837018913445,0.038877863092061316,-0.24985766661472406,173.7685356150241,1.2738882626347743,28,0.9333333333333333
1.3754388290624882,1.2019512534025998,-0.0216080229729414,0.999968945980072,1.2301166585042023,1.3222933943175716,0.20696687698364258,0.9998638033866882,1.2472290251205005,1.3030621061560235,-0.1823514997959137,0.9999745488166809,1.1066770884728798,1.768030843397818,0.12696368992328644,0.9999441504478455,1.100610843213868,1.7841004719685667,-0.1271725594997406,0.9999679327011108,1.3517418126478393,1.839391888671637,0.14803186058998108,0.2032831460237503,1.38221518212304,1.8369658770473654,-0.12587960064411163,0.9575200080871582,1.353378967628525,2.2019512534026,0.15373119711875916,0.4389287829399109,1.3757481995133838,2.23111204082717,-0.0634208470582962,0.9470541477203369,1.2299940505097808,1.69701018163238,0.2424662858247757,0.03269017115235329,1.2629068858033092,1.7019476428137994,-0.18142034113407135,0.8814491629600525,0.0075400471687316895,1.1036439658433739,1.7760656576831924,106.49389159448577,99.69234990692088,1.0,-0.008545356981696587,-0.01944070969476269,-0.11360208544058843,-0.06539737749249691,174.79778712012526,1.240749357079208,29,0.9666666666666667
1.4102816765877335,1.2201003111752216,-0.05019857734441757,0.9999669194221497,1.2667133133829152,1.338338831640297,0.19046315550804138,0.9998471140861511,1.2841208940963642,1.3237846568244707,-0.19491533935070038,0.9999731779098511,1.1183868929639105,1.784031079584259,0.12760025262832642,0.9999455213546753,1.1140927685993414,1.795127069295256,-0.12777183949947357,0.9999688863754272,1.3659164562994992,1.8571799502675659,0.16348034143447876,0.193507120013237,1.3957511553586779,1.855909261154874,-0.13968691229820251,0.9568561315536499,1.3675824982196452,2.2201003111752216,0.17677488923072815,0.42092886567115784,1.3823626108675482,2.254262541450415,-0.1028079241514206,0.946658730506897,1.2503369676147837,1.713603292947906,0.21715399622917175,0.030190816149115562,1.2827243341112138,1.7193918171338134,-0.14470848441123962,0.8532655239105225,0.0056479573249816895,1.116239830781626,1.7895790744397575,106.72626029643833,100.25277421544152,1.0,0.008932995474675123,-0.03597462836920001,0.13090297273750107,-0.12171161137892345,177.2511158624405,1.239663121526141,30,1.0
1.4436197235923236,1.2429091290615144,-0.0581238754093647,0.9999690651893616,1.293028750101563,1.3495129756371027,0.2020123451948166,0.9998273253440857,1.3200850124603147,1.3418178688667202,-0.17561890184879303,0.9999719858169556,1.1287470672881834,1.7946008691062805,0.12752588093280792,0.9999459385871887,1.1290695074720372,1.7980214511577621,-0.12769655883312225,0.9999696016311646,1.378801098329822,1.8776353858817452,0.1577378511428833,0.18604761362075806,1.4105914499727652,1.875229850185211,-0.14054961502552032,0.9569810032844543,1.382801529491714,2.2429091290615144,0.15890157222747803,0.4047083854675293,1.3966191972116335,2.2777924231756193,-0.12417570501565933,0.9473053216934204,1.2690957729605155,1.7333844167569255,0.14546939730644226,0.027629254385828972,1.3008860470005263,1.7391399158365157,-0.10652337223291397,0.8153687715530396,0.002955198287963867,1.1289082873801102,1.7963111601320212,108.99705882601675,103.34864375708068,1.0,0.007487804497766685,-0.09395150864658373,-0.012008563794541936,-0.4494704219187441,154.35586816359478,1.195976480392761,31,1.0333333333333334
1.4692049701703387,1.2540613547408475,-0.050693076103925705,0.9999708533287048,1.3273527943602081,1.3638733694737701,0.2214176207780838,0.9998067617416382,1.3509012055527754,1.359728078118984,-0.1581539660692215,0.999967098236084,1.1335390592580799,1.798787289415784,0.12785381078720093,0.9999472498893738,1.1381524931396536,1.792008579390158,-0.12802515923976898,0.9999703168869019,1.3840429518429174,1.9042511302398397,0.14686061441898346,0.17960244417190552,1.4197403009741638,1.8840657975724893,-0.14230825006961823,0.9578191041946411,1.3901135222235927,2.2540613547408475,0.1591019332408905,0.39376798272132874,1.3970971420694052,2.2877420419279177,-0.11612043529748917,0.9487709999084473,1.2922941899956912,1.7536279096531706,0.13876482844352722,0.02513708546757698,1.3231764702396556,1.7585536984585137,-0.06676146388053894,0.7451827526092529,0.0015844106674194336,1.1358457761988667,1.795397934402971,113.82562857835994,104.8932095639361,1.0,0.012431499218311961,-0.07474500956132805,0.03881684650098397,0.1554304687474466,10.21877954815125,1.1754020177096651,32,1.0666666666666667
1.479575511326246,1.2548998663894453,-0.0436871275305748,0.9999727606773376,1.3443820949162817,1.3585888397182646,0.23956649005413055,0.9997885823249817,1.3603152038780033,1.3574821523637117,-0.1627698540687561,0.9999650716781616,1.125484320845522,1.7806128933333891,0.13104155659675598,0.9999479651451111,1.1331347673982817,1.7607866412356135,-0.13121889531612396,0.9999704957008362,1.3740279719911657,1.9054244399107776,0.0978689193725586,0.17832499742507935,1.4129265850947217,1.8692810123627304,-0.16633369028568268,0.95783531665802,1.3810428744210945,2.254899866389445,0.06961575895547867,0.3898618519306183,1.3843369295641255,2.2647276959307994,-0.16948716342449188,0.9497344493865967,1.2867351236930942,1.7370310220766247,0.2899242043495178,0.0230653528124094,1.314393793386471,1.7454931786788452,-0.10652296245098114,0.689997673034668,0.0004261136054992676,1.1293095441219019,1.7706997672845013,117.81442492895943,107.0595839821773,1.0,0.012801284279516172,-0.08364334019695671,0.0033311080703293194,-0.06829221878703452,6.3147833517383045,1.131860758663309,33,1.1
1.4775365532596434,1.2488966913304804,0.022364692762494087,0.9999529123306274,1.3470117197751599,1.3568041870052,0.2601887583732605,0.9997720718383789,1.3510429357236389,1.3489463284050023,-0.15746386349201202,0.9999626874923706,1.1180928174100329,1.7656224795774447,0.13639022409915924,0.9999512434005737,1.1250500001882813,1.7377533256417257,-0.1365387886762619,0.9999722838401794,1.363782119141121,1.906067811513757,0.09343013912439346,0.16960129141807556,1.4029310850046621,1.8556268915056817,-0.199610635638237,0.9599732160568237,1.3725901446237914,2.2527656011922734,0.06966705620288849,0.37730157375335693,1.3689451741259198,2.24889669133048,-0.22261521220207214,0.9520447254180908,1.2824140509731794,1.7238909103288842,0.14276476204395294,0.021108640357851982,1.3087348417296634,1.734012908098559,-0.1053418293595314,0.6382626295089722,0.0030472874641418457,1.121571408799157,1.7516879026095853,121.20923857155167,108.04686710161552,1.0,0.002406794414480288,-0.04848442831760934,-0.07827243651369412,0.2625670713849113,15.230074969321189,1.1042313931751608,34,1.1333333333333333
1.505422474914878,1.2620342016499144,0.014323728159070015,0.9999470114707947,1.365109238905123,1.3654229913926048,0.2778932452201843,0.9997431635856628,1.3718121610711562,1.3580427720875026,-0.1555851846933365,0.9999603033065796,1.1250070938370444,1.7703814249867904,0.14277492463588715,0.9999538064002991,1.1315324187966347,1.7354217589592262,-0.14290902018547058,0.9999737739562988,1.3716300021602377,1.9165336427251407,0.09188242256641388,0.16411152482032776,1.4111686916768686,1.8661056234063995,-0.20897090435028076,0.9625851511955261,1.3840825275739572,2.2647726160416437,0.06299330294132233,0.37264975905418396,1.3743277477968128,2.2620342016499144,-0.2466312199831009,0.9553335905075073,1.3024011111384297,1.7380902787603483,0.20533296465873718,0.0193159282207489,1.3223694699191155,1.7450450997938574,-0.10296069085597992,0.5941373705863953,0.0028447508811950684,1.1282697563168396,1.7529015919730082,122.69952298202084,109.73230334863769,1.0,-0.0010008584480579682,-0.0754371192250838,-0.027337955551713485,-0.21294691629738824,20.09117719108743,1.0882198227321545,35,1.1666666666666667
1.5162249860615393,1.2604478222796063,-0.016795732080936432,0.99994957447052,1.3619669214457697,1.3616378038854715,0.2705867886543274,0.9997116327285767,1.3933277630971337,1.3561399498678741,-0.1572408825159073,0.9999564290046692,1.1227450968278998,1.7521767937370365,0.14327579736709595,0.9999548196792603,1.1322679613089952,1.7251868371509014,-0.14345259964466095,0.9999744296073914,1.3733529063814212,1.9102795568727808,0.10838663578033447,0.15959309041500092,1.4105992534236103,1.8641325180813884,-0.19051745533943176,0.9637460112571716,1.3832706038249298,2.2673954306559647,0.10178177058696747,0.3651416301727295,1.3708833663583475,2.2604478222796063,-0.19668401777744293,0.9571210145950317,1.2997674091760631,1.733845517066699,0.29912418127059937,0.01767226681113243,1.3321129779810932,1.7476344771880294,-0.11928568035364151,0.5469135046005249,0.0021218061447143555,1.1275065290684474,1.738681815443969,123.8376841927073,110.80614738221662,1.0,0.004787159067337061,-0.09123311513542051,0.04380728251767906,-0.12028578881507385,12.054883577716899,1.0597869486295772,36,1.2
1.5309850634821007,1.2475249660289456,-0.02706548199057579,0.9999539852142334,1.3743954464855435,1.3348492474249507,0.26957517862319946,0.9996674656867981,1.4147448384836878,1.3444887907993266,-0.14557558298110962,0.9999513030052185,1.1160916987814633,1.7100657714002676,0.14129950106143951,0.9999540448188782,1.1359117740454927,1.6879256168424277,-0.14148661494255066,0.9999740719795227,1.3638271345193886,1.8995497621546449,0.11667297780513763,0.1542600393295288,1.403198172429036,1.853718793279369,-0.1850609928369522,0.962192177772522,1.3748822440400112,2.256352259053057,0.12054061889648438,0.3501424789428711,1.3629240030110523,2.2475249660289456,-0.17433810234069824,0.9568516612052917,1.2957583752475341,1.7232536713416478,0.30380779504776,0.016177242621779442,1.3408400351151286,1.7377677914259,-0.12930449843406677,0.4998021125793457,0.003742694854736328,1.126001736413478,1.6989956941213478,129.18575882550954,115.97133691429222,1.0,0.04314398153834919,-0.2396614602125748,0.31454977866041706,-1.2207820197992099,7.291194615744326,1.0042230870004296,37,1.2333333333333334
1.5151180871970522,1.2115931930373876,-0.01155462209135294,0.999956488609314,1.3647346186505225,1.2925383129193835,0.27872809767723083,0.9996422529220581,1.3991599135480155,1.3143930790148817,-0.15091153979301453,0.9999491572380066,1.0965474256704477,1.6538641714439986,0.14292165637016296,0.9999542236328125,1.124055430623489,1.6372503683862045,-0.14310389757156372,0.9999744296073914,1.3374793183384688,1.8644346308672195,0.1164214015007019,0.14851811528205872,1.379854063258359,1.8212038122127756,-0.18448755145072937,0.9629424810409546,1.35066958057515,2.2176992792148735,0.11700304597616196,0.3375730514526367,1.3398386491047876,2.2115931930373876,-0.17999133467674255,0.9584885835647583,1.278588353113825,1.6760637198786776,0.35230690240859985,0.014804402366280556,1.327287878170874,1.7026572070217352,-0.12402011454105377,0.46346718072891235,0.008636891841888428,1.1103014281469683,1.6455572699151015,133.29124439831568,119.86873654012115,1.0,0.030182787936565578,-0.1764198513863929,-0.09106171409002269,0.4405039703222189,22.28565496818605,0.9639108500915271,38,1.2666666666666666
1.4969249599721246,1.1703738114020805,0.018980462104082108,0.9999520778656006,1.3445883170367452,1.2513346815473048,0.2627604305744171,0.999644935131073,1.3765538254758014,1.2723223621607984,-0.15687264502048492,0.9999476075172424,1.0762245216990571,1.607256366820685,0.14180031418800354,0.999955952167511,1.1058661505710683,1.5911319288599723,-0.14197099208831787,0.9999752640724182,1.3114587243316536,1.824506939101725,0.13023386895656586,0.14586526155471802,1.3600382043257022,1.785841475711591,-0.1502419412136078,0.9650319814682007,1.3222632188120513,2.1734245965932604,0.15691357851028442,0.341255247592926,1.3141168473799896,2.1703738114020803,-0.13475248217582703,0.9615610837936401,1.2614872533438397,1.6534359490399966,0.28863129019737244,0.01403449010103941,1.3076811814116847,1.6689708761527333,-0.12432199716567993,0.4486900568008423,0.008458435535430908,1.0910453361350627,1.5991941478403287,134.49766447826735,120.64398305356461,1.0,0.018740976672733074,-0.11750834980320024,-0.08848623027448116,0.45227167953106795,24.43854148843603,0.9583466571535455,39,1.3
1.4681047125779891,1.1198900284936957,-0.003370055230334401,0.9999540448188782,1.323764181856061,1.2101249338964049,0.2569802403450012,0.9996494054794312,1.3520446972750024,1.2209006605333714,-0.1584649235010147,0.9999482035636902,1.0562205064795442,1.5506777837613197,0.1411665678024292,0.9999567270278931,1.0910390317277732,1.5399418295594958,-0.14132465422153473,0.9999759793281555,1.2837429882100764,1.7728333007801977,0.16983842849731445,0.1470644325017929,1.3329150237336582,1.747230988830237,-0.1525791585445404,0.9677770137786865,1.2919860061771653,2.1198900284936957,0.21528096497058868,0.3542105257511139,1.285445537688251,2.13503016522265,-0.1331162005662918,0.9647850394248962,1.2306058578433374,1.6206554309296344,0.2721281945705414,0.013668972067534924,1.2780644968609787,1.6188588738774863,-0.14029249548912048,0.4563097059726715,0.004440963268280029,1.0736297691036587,1.5453098066604076,135.67678838236637,123.61806186301581,1.0,0.0467097122535016,-0.12937418843332632,0.1980154010111928,-0.1008996587956983,34.70962650093657,0.9348229700662448,40,1.3333333333333333
1.428033578977714,1.0563318902322463,-0.011666996404528618,0.9999555349349976,1.2935120521818166,1.1519115124434838,0.2515231966972351,0.9996602535247803,1.312592509628861,1.1634715493504921,-0.15576928853988647,0.9999482035636902,1.0321744032997358,1.482680260617151,0.13569952547550201,0.9999561309814453,1.0657811005687912,1.4729450125432741,-0.13583575189113617,0.9999757409095764,1.2514062586404309,1.7121334737977925,0.15056782960891724,0.14578507840633392,1.2973530702179137,1.6973945302510873,-0.15159179270267487,0.9695265293121338,1.2537919649501315,2.0563318902322463,0.18368209898471832,0.35292983055114746,1.2478116990276682,2.0725316192402623,-0.13040858507156372,0.967035710811615,1.19414762298149,1.5715182765201754,0.23330672085285187,0.013831052929162979,1.2412818139789084,1.5606015438178094,-0.1246442049741745,0.46609291434288025,0.004909306764602661,1.0489777519342636,1.4778126365802124,136.70213383323266,126.58212418662725,1.0,0.05328959081732885,-0.16419368878222332,0.05989896815988602,-0.2907734870913326,35.53268923149626,0.9137449807513522,41,1.3666666666666667
1.3822406683667219,0.9926285640391376,-0.01608751341700554,0.9999576807022095,1.2610254707242659,1.1015244435085012,0.26935404539108276,0.9996569156646729,1.271603350178272,1.1023523862779767,-0.15012529492378235,0.9999435544013977,1.0097660416120067,1.4231258468252872,0.1369202435016632,0.9999534487724304,1.0403913619692535,1.4130826237821668,-0.1370515525341034,0.9999738931655884,1.2210558947670063,1.6561399560328685,0.12379586696624756,0.1435251384973526,1.260182442326522,1.6451971674626373,-0.16749216616153717,0.9706483483314514,1.2135461059270687,1.9926285640391375,0.13449814915657043,0.3508636951446533,1.2115153900929418,2.0082026404878013,-0.1572873890399933,0.9686112999916077,1.1682642143143178,1.5157168123143303,0.24056851863861084,0.01443912647664547,1.2080327844678915,1.5007321626206265,-0.12312597036361694,0.46284860372543335,0.0003631114959716797,1.0250787017906302,1.418104235303727,136.52072849269797,128.92612763415914,1.0,0.07242626814592473,-0.10016408329123845,0.16170730695734045,0.4568176417892642,33.84403429876625,0.908083933432671,42,1.4
1.3524360634767085,0.935737443133062,-0.034845463931560516,0.9999449253082275,1.2338256055818433,1.0521547650489886,0.2434864044189453,0.9996589422225952,1.2396496604159442,1.0542940703521853,-0.19908815622329712,0.9999401569366455,1.0014448100334015,1.3719496834331986,0.13981719315052032,0.9999539256095886,1.0240015868116434,1.3675103763268068,-0.13989214599132538,0.9999740123748779,1.199191267020305,1.609379292532333,0.13853950798511505,0.1407010555267334,1.2310624743442469,1.6076952939791318,-0.1667034924030304,0.9722006320953369,1.1825887463657665,1.935737443133062,0.18374183773994446,0.3505215346813202,1.1833521873286301,1.9624333480771046,-0.137116938829422,0.9706262350082397,1.1497176939044582,1.4568410568420114,0.1835024356842041,0.015740197151899338,1.1809295417444958,1.4544515582256985,-0.18029765784740448,0.480354905128479,0.0009617209434509277,1.0127231984225225,1.3697300298800026,137.29807380981134,131.5757244992904,1.0,0.0967949069102737,-0.10496450518500355,0.19958890700491616,-0.05533433018194015,42.86190069864825,0.9127029503197603,43,1.4333333333333333
1.3195567516602675,0.8831493792211372,-0.03228037804365158,0.9999244809150696,1.204849396055906,1.0042066880320828,0.24034300446510315,0.9996619820594788,1.207920254398956,0.9997284068231758,-0.1992798000574112,0.999937891960144,0.9890932162605763,1.32191711035721,0.14066393673419952,0.9999549984931946,1.0059733689992518,1.3168011250073377,-0.1407206505537033,0.9999746084213257,1.169779417982481,1.5699809180095046,0.14558294415473938,0.1371341496706009,1.2010913119405058,1.5696836589218972,-0.16322605311870575,0.9736915826797485,1.150458740981697,1.8831493792211371,0.2055385410785675,0.3467085361480713,1.1558783210848107,1.9146602647997917,-0.11654867231845856,0.9724687933921814,1.1272060723088226,1.4033810990802424,0.202657550573349,0.016723770648241043,1.153590369995115,1.4073178748263833,-0.18919481337070465,0.4968239367008209,0.0020644068717956543,0.9975332926299141,1.3193591176822739,140.4005870974562,134.88041910576413,1.0,0.07822883386129936,-0.12919809562743126,-0.12736800644057508,-0.21145192692535522,38.95884638077903,0.9035392024966857,44,1.4666666666666666
1.31640719255362,0.878503219970886,-0.04612398520112038,0.9999294877052307,1.2020293196078353,0.9914680500065922,0.2397620975971222,0.9996722340583801,1.2066196439681698,0.9876029620466716,-0.1988939493894577,0.9999365210533142,0.987548495102202,1.3170046510511313,0.13937462866306305,0.9999553561210632,1.0099081438213866,1.3099169785662894,-0.13943126797676086,0.9999747276306152,1.1662748682096773,1.5672985886285282,0.15766525268554688,0.13886688649654388,1.1981158309271185,1.5680467992377467,-0.13289061188697815,0.9747337102890015,1.1464590968412594,1.878503219970886,0.22527146339416504,0.34528103470802307,1.1544826456634212,1.9107512650173724,-0.07478173822164536,0.9737629890441895,1.1313130270152818,1.3997098667192578,0.21295520663261414,0.01810341887176037,1.1529361458325333,1.398781863565854,-0.1671871542930603,0.4987042248249054,0.0017849206924438477,0.9987283194617943,1.3134608148087104,140.82730515184593,136.64758264480776,1.0,0.02264955961583494,-0.026983332744927476,-0.422088183687376,0.7764534764686298,39.033151016165256,0.8967201110205694,45,1.5
1.2949674978180663,0.842174168002446,-0.0634959489107132,0.9999354481697083,1.1818549835354366,0.950863811791706,0.23404434323310852,0.9996889233589172,1.1875720410088466,0.9568749304187729,-0.19020050764083862,0.9999368786811829,0.9779105076220334,1.2811418550369433,0.13932667672634125,0.9999565482139587,1.0008172674744014,1.282346583845482,-0.13938823342323303,0.9999753832817078,1.1483481615392044,1.5383929103350003,0.18313424289226532,0.14263251423835754,1.1799406931107226,1.544754804180386,-0.13085149228572845,0.9761962294578552,1.129549102204276,1.8421741680024462,0.2704096734523773,0.3494108319282532,1.137458679639352,1.8821678836771645,-0.06766677647829056,0.9754459261894226,1.1087190181142306,1.3535064583141134,0.20338086783885956,0.02005583606660366,1.14018133622787,1.3707908960701414,-0.17009766399860382,0.5055455565452576,0.002817600965499878,0.9893638875482172,1.2817442194412125,142.93301018708058,138.50595356775386,1.0,0.04176355302554877,-0.0953478297541115,0.1506405711496857,-0.5326090901544823,61.31551532471039,0.895170927829575,46,1.5333333333333334
1.2649124675422163,0.7982173264328247,-0.06996677070856094,0.9999412894248962,1.1575911642252281,0.9172168029006087,0.24150577187538147,0.9997024536132812,1.162772956756961,0.9194626820373053,-0.176887646317482,0.9999375343322754,0.9646928529045021,1.241828250933703,0.13919639587402344,0.999957799911499,0.9907475904353509,1.243346874047087,-0.13927365839481354,0.9999762177467346,1.118617486548658,1.5066537639513928,0.18808165192604065,0.14066120982170105,1.1547527245491669,1.5121933335818933,-0.12272671610116959,0.976747989654541,1.0998096648242308,1.7982173264328247,0.27419859170913696,0.3449978828430176,1.1134985602086012,1.8424498544087469,-0.08249823749065399,0.9766547083854675,1.0827302276646225,1.3126335089623848,0.2188086062669754,0.020881304517388344,1.1250746536026155,1.3354243085139061,-0.2025042325258255,0.5058019161224365,0.0010753273963928223,0.9777202216699264,1.242587562490395,146.14269304803096,141.49519279402458,1.0,0.07345500820930946,-0.09783970143450481,0.26113435339949004,-0.03605510977256238,62.61512805753519,0.8938060526332982,47,1.5666666666666667
1.2337241601293436,0.7569875373266727,-0.12796951830387115,0.9999465346336365,1.134965174337465,0.8826669019223397,0.21139857172966003,0.9997119307518005,1.1349828063529246,0.877966814601303,-0.19833512604236603,0.9999369382858276,0.957425370670565,1.2009537825962766,0.1369236558675766,0.9999569058418274,0.9698015255219776,1.2003241372442035,-0.13700935244560242,0.9999756813049316,1.0951306818105817,1.4690288784445207,0.14496102929115295,0.13802890479564667,1.127606787085631,1.4770864663094136,-0.1394457221031189,0.9757925868034363,1.0748408528204598,1.7569875373266728,0.26481539011001587,0.33904320001602173,1.0876892416859272,1.8015996980426152,-0.08861764520406723,0.9765793681144714,1.081515239472562,1.2810326816094553,0.17801280319690704,0.022862067446112633,1.1031054600028674,1.2912070841303713,-0.23378542065620422,0.5094526410102844,0.0023038387298583984,0.9636134480962713,1.20063895992024,148.78080560056148,143.2963523885336,1.0,0.06557190132660914,-0.10043490527845138,-0.04727614037893646,-0.03721676424258761,57.93485582711821,0.8796158666505228,48,1.6
1.1700070035126215,0.6707769968997984,-0.13391056656837463,0.9999497532844543,1.083209566851412,0.8021315807329079,0.18570435047149658,0.9997221231460571,1.0782697729019428,0.7936589371421161,-0.22327284514904022,0.9999399185180664,0.9216563659895372,1.1204452749869875,0.134992778301239,0.9999558329582214,0.9317919826136267,1.1213088373371487,-0.13506969809532166,0.9999759197235107,1.0409874825649061,1.3898642446696032,0.14646035432815552,0.1333407312631607,1.0695867580787466,1.402862181528874,-0.1466766744852066,0.9761812686920166,1.024170383128782,1.6707769968997985,0.24178414046764374,0.3366905152797699,1.0338910367175245,1.7144135387527506,-0.09048095345497131,0.9775263071060181,1.0434479012753235,1.1976957877090724,0.160058856010437,0.026207858696579933,1.0631404980458015,1.2061032393355366,-0.28900960087776184,0.5493602156639099,0.004369020462036133,0.9267241743015819,1.1208770561620682,152.6845019310766,147.38633997177462,1.0,0.08381285829549488,-0.15911741461138995,0.1675109469199815,-0.49629347623110015,67.96080168029481,0.880922179922293,49,1.6333333333333333
1.1477385692442557,0.6410996171119827,-0.11956630647182465,0.9999498128890991,1.0648698640985605,0.7759137224230139,0.18601056933403015,0.9997331500053406,1.0587056558795294,0.7626880851053446,-0.23028452694416046,0.9999439120292664,0.919425478995923,1.0885704558727647,0.1347687989473343,0.9999563694000244,0.923394815947423,1.0879955762073368,-0.13482457399368286,0.9999769926071167,1.0222110689135437,1.3635112810061176,0.14414319396018982,0.12989351153373718,1.0453441585501093,1.3777398081014223,-0.15276969969272614,0.9774200916290283,1.0064538045598683,1.6410996171119827,0.23876436054706573,0.33389976620674133,1.0145226634532425,1.68318773214739,-0.09368886053562164,0.978823721408844,1.0294485371752775,1.1599582522727467,0.15725313127040863,0.029524806886911392,1.0467011696616308,1.169766164716701,-0.28785163164138794,0.5897170901298523,0.006945431232452393,0.9214101474716729,1.0882830160400507,156.253032441527,151.4124687992946,1.0,0.094276942025698,-0.10184370505169682,0.09881870622187913,0.4487865956803653,56.811826859709775,0.8630375162110872,50,1.6666666666666667
1.1248391447566926,0.6118188605737146,-0.12702631950378418,0.9999524354934692,1.043484970180405,0.7433793551717174,0.1814759075641632,0.9997504949569702,1.0381875190805103,0.7307459140708451,-0.2482943832874298,0.9999487400054932,0.9088726516359192,1.0570560423119155,0.13550004363059998,0.9999569654464722,0.9108755067816949,1.0551767720909166,-0.13551291823387146,0.999978244304657,1.0033060637444362,1.3357711109215895,0.14274053275585175,0.12933464348316193,1.0226958704153055,1.35138422909394,-0.16091857850551605,0.9790095090866089,0.9923571074358266,1.6118188605737147,0.23650114238262177,0.3359966278076172,0.9948782399012746,1.6509467384602299,-0.10862000286579132,0.9803295731544495,1.0204850363150404,1.127470167601199,0.14265665411949158,0.03585977479815483,1.031371309459101,1.137587208091851,-0.3212880492210388,0.6296985149383545,0.0067633092403411865,0.909874079208807,1.056116407201416,159.01139704755707,154.01281104911737,1.0,0.043676307156589204,-0.0829200048379935,-0.35404676205202584,0.12320296122586864,23.597080898749507,0.8490314615113319,51,1.7
1.1075369330229448,0.5910717045525244,-0.13452410697937012,0.9999569058418274,1.0297257000725701,0.7209770820587037,0.1907016485929489,0.9997689127922058,1.0236706826797153,0.7075198512456397,-0.23133163154125214,0.9999532103538513,0.9061647628655791,1.0343511903492575,0.1355191171169281,0.999957799911499,0.9061548149836866,1.0274028421703134,-0.13553529977798462,0.9999793767929077,0.9894444729018598,1.3124172429659682,0.14569780230522156,0.1340026557445526,1.0040622532952772,1.3283235213875064,-0.15957176685333252,0.98065185546875,0.9804612607494834,1.5910717045525244,0.2398541271686554,0.34587690234184265,0.9813116122889428,1.6277127763999748,-0.11889635026454926,0.9818516969680786,1.0094895098761032,1.0991515830762457,0.15564610064029694,0.04833851382136345,1.0225583885706422,1.1035032592778564,-0.29634958505630493,0.6653724312782288,0.007297158241271973,0.9061597889246329,1.0308770162597856,161.48079319007502,157.63163954008257,1.0,0.059159483059029176,-0.08883053061901496,0.12070329006742822,-0.05241965421068615,21.600956024534295,0.8292421999758732,52,1.7333333333333334
1.083765038844561,0.5683293984982031,-0.1711689680814743,0.9999611973762512,1.0140144318322981,0.697179102814269,0.18452897667884827,0.9997870326042175,1.0052924516255712,0.68386474275449,-0.23987090587615967,0.9999573230743408,0.9017204393773477,1.0148737092832831,0.13625067472457886,0.9999590516090393,0.9024774244723388,1.0108439644639928,-0.1363147646188736,0.9999805688858032,0.9720451074091399,1.294010866491526,0.16065946221351624,0.13799268007278442,0.9879558196661035,1.3061452633765531,-0.16909267008304596,0.9820283651351929,0.9654003822452528,1.5683293984982032,0.25582730770111084,0.35610851645469666,0.9668485041001961,1.604081578722497,-0.15521393716335297,0.9831305742263794,1.003908120345197,1.0770428769050937,0.1582830548286438,0.05533748120069504,1.0127930968417818,1.0782120097615824,-0.35638874769210815,0.6958087682723999,0.007327556610107422,0.9020989319248433,1.012858836873638,164.47182549968443,159.80394623936445,1.0,0.07447446590106427,-0.022814919632321552,0.1299124614511514,0.5193642909810806,8.82773718137952,0.8323928877242901,53,1.7666666666666666
1.067590169901163,0.5516877055375946,-0.23816394805908203,0.9999650120735168,1.0027620736814173,0.6839237986024609,0.12693795561790466,0.9998035430908203,0.989869966812775,0.6690817057679506,-0.2952515184879303,0.9999608993530273,0.9047674404707065,1.0031905206981875,0.1365090012550354,0.999960720539093,0.8994945515034958,0.99926600176449,-0.13657283782958984,0.9999817609786987,0.9612287607467498,1.2780723507339955,0.1829954832792282,0.1404900997877121,0.9766680746355346,1.2905165016148765,-0.17492060363292694,0.9832063317298889,0.9602842907280453,1.5516877055375946,0.29841679334640503,0.36268213391304016,0.9570275788782803,1.5891436435350834,-0.15483494102954865,0.9842296838760376,1.0025366485935345,1.0617935400973402,0.10551164299249649,0.05641106143593788,1.0085165769709568,1.068292707241146,-0.4078899025917053,0.7192294001579285,0.008253008127212524,0.9021309959871011,1.0012282612313388,168.19498927987797,161.3963340808411,1.0,0.06905385839076883,-0.009221555341374655,-0.03462700793680437,0.09934124726249423,70.40350044209808,0.837469632191121,54,1.8
1.052088797421373,0.5387802260259141,-0.2251918613910675,0.999968409538269,0.9942220550090559,0.6740374074424355,0.12266222387552261,0.9998186230659485,0.9748143054018057,0.6513285977416334,-0.29243239760398865,0.9999644756317139,0.9086394644727221,0.9954710501750608,0.13523037731647491,0.9999619126319885,0.8982647345571615,0.9888619125638526,-0.13528813421726227,0.9999828338623047,0.954286532377624,1.2688680857705725,0.19314873218536377,0.14380359649658203,0.9679207494651474,1.281942610123453,-0.14542071521282196,0.9842167496681213,0.954519808566797,1.5387802260259142,0.3119215965270996,0.36750614643096924,0.9528415809597295,1.577577012109469,-0.11272847652435303,0.9851572513580322,1.008809472204116,1.0428381312578345,0.09755752235651016,0.0617016963660717,1.0039883955196724,1.0525262168572243,-0.39296823740005493,0.7462102174758911,0.01273036003112793,0.9034520995149419,0.9921664813694567,170.57070240700034,163.71074359437583,1.0,0.06575044798254655,-0.007309253877422725,-0.020928704142719835,0.014013308524265342,72.4104296150076,0.8396634653244246,55,1.8333333333333333
1.0475195194072502,0.5371800989721809,-0.2518356442451477,0.9999715089797974,0.9928570009918884,0.6707942956694334,0.10419334471225739,0.9998327493667603,0.9711243516321658,0.6496855727330186,-0.2976089119911194,0.9999678730964661,0.9172214419970404,0.9943203524703694,0.13028430938720703,0.9999626278877258,0.9018480733583258,0.9908805524751914,-0.13034328818321228,0.9999838471412659,0.9532620746942261,1.2679715397361315,0.1820186823606491,0.17124325037002563,0.9650261333247233,1.2830280860885703,-0.12134413421154022,0.9854790568351746,0.9534060944797408,1.5371800989721809,0.28152042627334595,0.4061534106731415,0.9491449781118603,1.5755007263121705,-0.07302287220954895,0.9864112138748169,1.00986609877272,1.0378622280816703,0.07886265963315964,0.0737338736653328,1.0028886800342376,1.0449621061215524,-0.3938354253768921,0.771468997001648,0.011846214532852173,0.9095347576776831,0.9926004524727804,172.52781774671288,164.6893783517297,1.0,0.05417948112287131,0.011584747467487942,-0.08821753828372253,0.14488118480402512,90.5463378892141,0.8418144032633742,56,1.8666666666666667
1.0346979161412684,0.5271560286666431,-0.28825002908706665,0.9999743103981018,0.9857511993852867,0.657288514496982,0.0769435316324234,0.9998450875282288,0.963313888937545,0.6406747094894997,-0.3170592188835144,0.9999708533287048,0.9171316726985024,0.9886467548906619,0.12846744060516357,0.9999629259109497,0.9058911222169017,0.9889021116314152,-0.12853345274925232,0.9999847412109375,0.9471610978145051,1.2599801750312178,0.2004154622554779,0.18905383348464966,0.9576853831902246,1.28048099502181,-0.10414141416549683,0.9864858388900757,0.9472639791460069,1.5271560286666432,0.328907310962677,0.43132102489471436,0.9431515749074226,1.56521367977716,-0.03473963961005211,0.9873776435852051,0.9989203263754601,1.0252136291278893,0.06313416361808777,0.07560564577579498,1.0003990740469126,1.0335590461813722,-0.41597771644592285,0.7940524220466614,0.009384632110595703,0.911511397457702,0.9887744332610385,173.70663859040386,167.00534729009627,1.0,0.0583889292022596,0.01941700681325276,0.03377650332999738,0.05855383463841399,103.00114758627551,0.8555640031664612,57,1.9
1.0283800200129078,0.5214666881147169,-0.301886647939682,0.9999768733978271,0.9826023518303786,0.6522051026219081,0.08321728557348251,0.9998578429222107,0.9597782098670626,0.6356123362984683,-0.3345387578010559,0.9999735951423645,0.9258074086352867,0.9865736154500618,0.1320449411869049,0.9999646544456482,0.913336221544229,0.987923239811293,-0.13210438191890717,0.9999858140945435,0.948653272812714,1.2595234641827842,0.23407259583473206,0.206625297665596,0.9569094013373608,1.2834567044374845,-0.11956615746021271,0.987531304359436,0.9496679954651187,1.521466688114717,0.38177332282066345,0.4547252058982849,0.9421871179994431,1.566007771807508,-0.07008759677410126,0.9882779717445374,0.9950638377384349,1.0163529783870824,0.08832741528749466,0.08262796700000763,1.0031667508402464,1.0263610140245891,-0.4438989758491516,0.8143044710159302,0.00937911868095398,0.9195718150897578,0.9872484276306774,175.43745614126198,168.63009842354055,1.0,0.062114603894994826,-0.006114377432791233,0.02694634945759457,-0.1826191399597276,105.81657821279525,0.85857046570173,58,1.9333333333333333
1.0198630072897297,0.5172524583400838,-0.255758672952652,0.9999791979789734,0.9653245547200728,0.6412055131412683,0.1090797409415245,0.9998696446418762,0.9545880866953944,0.6283677690012438,-0.30382096767425537,0.9999760985374451,0.9214564404036713,0.9796061672477641,0.1322353333234787,0.9999654293060303,0.920284608237877,0.9822981430781211,-0.13229510188102722,0.9999866485595703,0.946619501806268,1.2560270347757438,0.207809180021286,0.25695618987083435,0.9541561930530938,1.2803173724381416,-0.12551911175251007,0.9886386394500732,0.9464718925867475,1.517252458340084,0.3254280686378479,0.4984508752822876,0.9394662370719714,1.561679889642133,-0.0781928226351738,0.9893060326576233,0.9875555124736625,1.0103034178998889,0.10384579747915268,0.1067051887512207,1.0042524912472675,1.0192534358831915,-0.4134823679924011,0.832812488079071,0.007278174161911011,0.9208705243207742,0.9809521551629427,174.76622797606376,170.52712955688605,1.0,0.031231099528159695,-0.026112002336248802,-0.2380774440347112,-0.15522559362511512,163.86250776883463,0.8482802691769846,59,1.9666666666666666
1.0137540520089376,0.5113073552513941,-0.21500328183174133,0.9999812841415405,0.9523812868982222,0.6347950569711119,0.15142591297626495,0.9998804926872253,0.9509405609593992,0.6234877017197178,-0.2681208848953247,0.9999784231185913,0.9217696614634802,0.9755883925363246,0.13435637950897217,0.9999663829803467,0.9225300242106125,0.9779581827749738,-0.13447080552577972,0.9999874830245972,0.9502862002444442,1.2510625104783166,0.21362492442131042,0.2908973693847656,0.9516192465719456,1.2766663524700728,-0.14009790122509003,0.9896129965782166,0.9432258987184658,1.5113073552513943,0.3366917073726654,0.5346043705940247,0.9392748852876623,1.5573895107057334,-0.10594799369573593,0.9902332425117493,0.9825544350841353,1.003309129710734,0.14334578812122345,0.13726718723773956,1.0044244052955722,1.0130742130607295,-0.3881598114967346,0.8494943380355835,0.006428033113479614,0.9221498428370464,0.9767732876556492,172.5358822061448,171.92000967466655,1.0,0.02877526198471957,-0.011477025199085451,-0.018024131615798515,0.11072036216740393,157.0780252733043,0.8503151740271033,60,2.0
1.0038133180342292,0.5051994124818552,-0.23190557956695557,0.9999831318855286,0.9405494918940325,0.6298288297108628,0.13907310366630554,0.9998881220817566,0.9438437580213497,0.6193632389506649,-0.27147501707077026,0.9999804496765137,0.9182897753450918,0.9732099633554883,0.13422910869121552,0.9999642372131348,0.9260984525305358,0.9753255002101296,-0.13435733318328857,0.9999877214431763,0.9466283090211075,1.247458192223214,0.20686320960521698,0.3289783298969269,0.9502725739721992,1.2715844300702088,-0.10374917834997177,0.9903965592384338,0.9382758035589612,1.5051994124818553,0.32625871896743774,0.5702791810035706,0.9353295541458352,1.5488908453817343,-0.039449647068977356,0.9910318851470947,0.9764030375725041,0.9928113579886554,0.1275218278169632,0.15579241514205933,1.004760557771896,1.0060059485195023,-0.3920639455318451,0.8645220994949341,0.005979567766189575,0.9221941139378138,0.974267731782809,172.24435861323803,172.25064177079219,1.0,0.03804476292292269,0.019551087155805443,0.0765218746209307,0.2517389565234086,101.44974778843297,0.8610132638891826,61,2.033333333333333
1.000727628861723,0.5063699535217462,-0.24681821465492249,0.9999848008155823,0.9360443862490009,0.6251583048750821,0.11104261875152588,0.9998934268951416,0.9431599202602803,0.6210837818409486,-0.2837417721748352,0.9999822378158569,0.9248912776777126,0.9765778553213773,0.13222932815551758,0.9999620914459229,0.9350689883408488,0.9831802915689278,-0.1323828399181366,0.9999879598617554,0.9481088208341314,1.255144787586776,0.2305765450000763,0.36440590023994446,0.9524626785135216,1.2805934541623345,-0.07002530992031097,0.9910176992416382,0.9399173388945926,1.506369953521746,0.37459078431129456,0.6017985939979553,0.9377707736524455,1.551057434495503,0.0186946839094162,0.9916632175445557,0.9777298951567449,0.9831307482118271,0.1097954511642456,0.15654124319553375,1.0088138572978855,1.008509907756854,-0.38872548937797546,0.8780379295349121,0.002323538064956665,0.9299801330092807,0.9798790734451526,173.36808406232177,173.543654015441,1.0,0.04595643893185582,0.028578641422568354,0.05988514531921713,0.06868143616096722,121.15428691801996,0.8722139644375377,62,2.066666666666667
0.996401289966883,0.506845035375178,-0.2770058810710907,0.9999863505363464,0.9287931986225813,0.619878103807025,0.10142495483160019,0.9999012351036072,0.9416069212420608,0.6200371879424577,-0.312010794878006,0.9999839067459106,0.9266614816635276,0.9782995751360959,0.13612748682498932,0.9999617338180542,0.9406702957506343,0.9846912756179436,-0.1363200545310974,0.9999883770942688,0.9479535574699673,1.2555277554765485,0.2469787299633026,0.39507168531417847,0.9534612248495589,1.2806247808541538,-0.07992842048406601,0.9915766716003418,0.93999077698877,1.5068450353751779,0.3879427909851074,0.6279792189598083,0.9384946646694106,1.5527092582418573,-0.0027464847080409527,0.9921343326568604,0.9711626938239962,0.9902909535392247,0.11120842397212982,0.15521855652332306,1.012522477887802,1.0121449209945732,-0.42041268944740295,0.8901622295379639,9.068846702575684e-05,0.9336658887070809,0.9814954253770197,173.7933471589297,174.37658667230178,1.0,0.02494260337480173,0.009496580998161407,-0.1556859593335754,-0.14134079710756767,114.18468556275648,0.8731862656773383,63,2.1
0.998432630133828,0.5119868791984993,-0.2672639489173889,0.9999877214431763,0.9331831567474664,0.6253290156254913,0.0913386270403862,0.999907374382019,0.9405722010878108,0.6221568627450981,-0.3242691457271576,0.99998539686203,0.9363909411974304,0.9807449094014944,0.13686099648475647,0.9999629855155945,0.9457805933704321,0.9874922710933652,-0.13705220818519592,0.9999889731407166,0.9501779482503852,1.2580429884406996,0.23680830001831055,0.41290032863616943,0.9566873120172709,1.2831337965437377,-0.07941404730081558,0.9914743304252625,0.9420612862996615,1.5119868791984994,0.37048736214637756,0.6466596126556396,0.9411328743148782,1.556292325588707,0.002486542798578739,0.9919528961181641,0.9759134781651838,0.9961908804141646,0.09774646908044815,0.1485907882452011,1.0180314605799563,1.0147165718238125,-0.43374133110046387,0.9009912610054016,0.0018041729927062988,0.9410857672839312,0.9841185902474298,175.32296136575513,174.62815125383014,1.0,0.03968801305795202,0.00269890022218117,0.11071526225143209,-0.05140532308415444,126.21795920054194,0.8646942640954844,64,2.1333333333333333
1.0003613918421632,0.5154020498682939,-0.2696235477924347,0.9999889135360718,0.9348245590407842,0.6286886002059561,0.08502240478992462,0.9999135732650757,0.9399047317969008,0.6242657374123619,-0.31438496708869934,0.9999867081642151,0.9394934077098012,0.986091795838129,0.1361488550901413,0.9999628663063049,0.9486781055086713,0.9937203507606319,-0.1363755762577057,0.9999891519546509,0.9517040730588026,1.260650886502117,0.24773021042346954,0.4222455322742462,0.9587175845352645,1.2852618652218974,-0.06091979146003723,0.9906504154205322,0.9418543470639656,1.5154020498682939,0.37937429547309875,0.6538724303245544,0.9430098768710744,1.559431893914299,0.023013129830360413,0.9907544851303101,0.9795189062328621,0.9971689834755773,0.10364393889904022,0.142521470785141,1.0212014622219514,1.0177103004655774,-0.4211646616458893,0.9107106924057007,0.00251045823097229,0.9440857566092362,0.9899060732993804,175.23933411251508,174.74875400539568,1.0,0.009070045120521132,0.031278012604782655,-0.2524258283063054,0.23495799149352442,130.46050724674825,0.8727237537336987,65,2.1666666666666665
1.0011256778241888,0.5160338574223012,-0.28127241134643555,0.9999899864196777,0.9375993359073367,0.6311454584696002,0.06308024376630783,0.9999193549156189,0.9375062604043521,0.6250391381964794,-0.3418768048286438,0.9999879002571106,0.9467493091691399,0.9924463346451972,0.13610659539699554,0.9999632835388184,0.9510902413749289,0.9989349368092446,-0.13632716238498688,0.99998939037323,0.9539615050855099,1.2625009146033837,0.27974602580070496,0.41323745250701904,0.9591145893382221,1.2862348527103802,-0.032599858939647675,0.9880921840667725,0.9421914459095548,1.5160338574223013,0.4428953528404236,0.6447035670280457,0.9435010161355208,1.5584866868676925,0.08682110905647278,0.9870741367340088,0.9875060844433279,0.9948262731554859,0.10028336942195892,0.1348303109407425,1.0218121810936236,1.019302714259204,-0.4578956663608551,0.919357180595398,0.003464639186859131,0.9489197752720344,0.9956906357272209,175.81219623444463,175.11782958994334,1.0,0.033670671141838616,0.04070730988721598,0.18561150282157793,0.0710612951886777,147.66783757214407,0.8908504492591456,66,2.2
1.0007879752651552,0.5169351614555695,-0.2954499125480652,0.9999909996986389,0.9374288356061179,0.6320417767215615,0.05141481012105942,0.9999253153800964,0.9378189078010076,0.6255367368700264,-0.34775716066360474,0.9999890327453613,0.9474098906688918,0.994983982706484,0.13559114933013916,0.9999637603759766,0.9538365692104591,1.0008077364003316,-0.13582050800323486,0.9999896287918091,0.9556991613132473,1.2632014500048272,0.28634965419769287,0.42327889800071716,0.9597615461658746,1.2870332739150336,-0.0375940315425396,0.9875829219818115,0.942541608883303,1.5169351614555695,0.45057302713394165,0.6527485847473145,0.9451346272006665,1.5590738901954655,0.080821692943573,0.9859188795089722,0.9890101284752334,0.9950143601961965,0.0923486277461052,0.13620798289775848,1.021981372292061,1.0203871322004703,-0.4535955488681793,0.9273085594177246,0.003688722848892212,0.9506232299396754,0.9978958595534078,175.2613783714787,175.7364429668795,1.0,0.008838632972843556,0.01248022880004515,-0.19069287984819258,-0.2167753140922256,133.75762875006225,0.8952457901195727,67,2.2333333333333334
1.0011443890682905,0.5184309778701988,-0.2936175465583801,0.9999918937683105,0.936277470204581,0.6334785944524016,0.05234639719128609,0.9999306797981262,0.9383985098423248,0.6268198811582206,-0.34873631596565247,0.9999900460243225,0.9534668780129659,0.9991418397377555,0.13524095714092255,0.9999642968177795,0.9577591525606902,1.0038534605325728,-0.13547383248806,0.9999898076057434,0.9602586035170154,1.264600852351501,0.28259485960006714,0.429712176322937,0.960827062344317,1.2890402674471453,-0.029461583122611046,0.9867696166038513,0.9441333986187566,1.5184309778701988,0.4460068345069885,0.6591684222221375,0.9463652466876645,1.5605181877886163,0.09580346941947937,0.9846462607383728,0.9947853741710282,0.9961670595472724,0.09475536644458771,0.13751983642578125,1.0236865912432715,1.0220570864412046,-0.4607703685760498,0.9344384670257568,0.0037716031074523926,0.9556130152868281,1.0014976501351642,174.89944100775458,176.33435848956285,1.0,0.03115072459627204,0.019684033291081742,0.17741823111926974,0.057195702257175365,140.35798644719188,0.9017414598151435,68,2.2666666666666666
1.0003228189982192,0.5189602217946505,-0.30410927534103394,0.9999926686286926,0.9368504149176691,0.6345681572266406,0.05126442387700081,0.9999353289604187,0.9381381122193359,0.6276923862291962,-0.34786513447761536,0.9999909400939941,0.9552893056075986,1.0010779228434175,0.1350826472043991,0.9999648332595825,0.9604851442212557,1.0054810813541768,-0.1353188008069992,0.9999900460243225,0.9612429847126732,1.2641645650627114,0.27610093355178833,0.43473100662231445,0.9620874505824846,1.288869217782306,-0.04352516308426857,0.9865093231201172,0.9463042645368542,1.5189602217946505,0.4299499988555908,0.6679158806800842,0.94662118922014,1.5608847998248547,0.06639827787876129,0.9840855002403259,0.9951972911412656,0.9969645330650017,0.08898159861564636,0.13424138724803925,1.023453163352518,1.022197884782984,-0.4623606204986572,0.9408316016197205,0.003893643617630005,0.9578872249144271,1.0032795020987972,175.34818985439293,176.42182754076003,1.0,0.016317122228108147,0.012317659367324516,-0.11799884921500026,-0.05860606841627344,133.15934496212944,0.9057475246160388,69,2.3
1.0002105543282884,0.521579973531518,-0.2931881844997406,0.9999933838844299,0.9355366362422516,0.6360936931967229,0.060111153870821,0.9999393820762634,0.9402064718728096,0.6292418736783683,-0.33946335315704346,0.9999917149543762,0.9562695424360281,1.0058821309068027,0.13479885458946228,0.9999639391899109,0.964161692228405,1.009975446223349,-0.13504080474376678,0.9999898672103882,0.96249729031235,1.2663078913695711,0.2765778601169586,0.43972742557525635,0.9635841175612221,1.2909376868840996,-0.020215611904859543,0.9858697056770325,0.9490686265826895,1.521579973531518,0.43318504095077515,0.6735107898712158,0.9492655797550695,1.5620803147202043,0.10751456022262573,0.9828846454620361,0.9988696279651574,0.9980998447148649,0.09083972126245499,0.13559453189373016,1.0259740958078074,1.0238201577143649,-0.4511335790157318,0.946635901927948,0.003873467445373535,0.9602156173322166,1.0079287885650758,175.61882022409017,177.09490722912986,1.0,0.005400786734576635,0.02288237793332226,-0.0852821154952129,0.08216121834886976,120.62284800941273,0.9138101296813134,70,2.3333333333333335
0.9995750146184412,0.523777958494819,-0.30750760436058044,0.9999940395355225,0.9372229544054566,0.6373520549336632,0.0601285882294178,0.9999434947967529,0.9415160986574264,0.6303189428179793,-0.3408294916152954,0.9999924898147583,0.9577008090243455,1.0075207102503518,0.13497035205364227,0.9999644160270691,0.9650534256778174,1.0112452715756894,-0.1352129727602005,0.9999901056289673,0.9636398345502873,1.2679710743862735,0.27033567428588867,0.45561933517456055,0.9649224985043682,1.2922108679267914,-0.027301186695694923,0.9864263534545898,0.9514260186503647,1.523777958494819,0.4205653667449951,0.6886991858482361,0.9506252511637209,1.5643083655917476,0.09689958393573761,0.9834273457527161,1.0035984911276778,0.9950317361133255,0.09299592673778534,0.14135845005512238,1.0273545932314452,1.0251079251696298,-0.45779818296432495,0.9518905878067017,0.0039702653884887695,0.9613771173510814,1.0093829909130208,175.96013419747146,177.0188829752202,1.0,-0.0016633310545510205,7.443478041020057e-05,-0.05478478554675137,-0.1769442934167561,120.0314671012832,0.9108816997567916,71,2.3666666666666667
1.000508644417157,0.5252197745721783,-0.3250247836112976,0.9999946355819702,0.9374540792436278,0.6385723990293246,0.03178148344159126,0.9999470710754395,0.9424263163527171,0.6315489819286358,-0.36620062589645386,0.9999931454658508,0.9623496326550984,1.0089180911177784,0.13422173261642456,0.9999648332595825,0.9681308364567555,1.0126536137863997,-0.13444428145885468,0.9999902844429016,0.9653422806811987,1.2671252432716178,0.2735304832458496,0.46552732586860657,0.9664193167287545,1.2929069588901103,-0.03979400545358658,0.9864745736122131,0.9538599237689007,1.5252197745721783,0.4311344027519226,0.7009367942810059,0.9520524912578724,1.5661952593917332,0.0788501724600792,0.9834831953048706,1.0041387370475443,0.9975478263223592,0.07099028676748276,0.14172635972499847,1.0289520190751174,1.0258497111195803,-0.48568543791770935,0.9565885066986084,0.003958761692047119,0.965240234555927,1.0107858524520892,176.78861580830875,177.34062207288915,1.0,0.018504675683131903,-0.0010401843530549854,0.15561392799908297,-0.008600062349736303,126.71428644457784,0.9098814430873369,72,2.4
1.0033702625194527,0.5275210498059816,-0.3098348379135132,0.9999951720237732,0.9413525477230872,0.6414004046013958,0.04201294481754303,0.9999503493309021,0.9446919108602728,0.6352524893646663,-0.35765138268470764,0.9999937415122986,0.9690460394424775,1.0132548793416287,0.134026437997818,0.9999646544456482,0.9743884470713756,1.0172436604236466,-0.13424089550971985,0.9999903440475464,0.9691579567926824,1.269462788224341,0.27077773213386536,0.4577604830265045,0.9703083482273311,1.296993288356858,-0.04424462467432022,0.985759973526001,0.9577467405929964,1.5275210498059817,0.42425042390823364,0.6963772773742676,0.9559647700321439,1.5727046537230465,0.06038099527359009,0.9826944470405579,1.018283939626642,0.9987801645928333,0.07505453377962112,0.1427256315946579,1.0334994962657407,1.0302090836963391,-0.47726377844810486,0.9608277678489685,0.003451049327850342,0.9717172432569265,1.0152492698826376,177.44302865718976,177.85752490064303,1.0,0.02079689598772757,0.0024526790903010407,0.01846460788967597,0.029141065295890632,131.00516275312273,0.913436798526764,73,2.433333333333333
1.0045830855861595,0.5291831233818424,-0.3091464638710022,0.9999956488609314,0.9434752423117618,0.6435689975192395,0.034008853137493134,0.9999537467956543,0.9447520832436888,0.637570834327735,-0.35847246646881104,0.9999942779541016,0.9747603449991646,1.0150206724727489,0.13281549513339996,0.9999650716781616,0.9756395493899316,1.0189940593334779,-0.13300928473472595,0.9999905228614807,0.9703667697121161,1.2716302763100584,0.2714434564113617,0.44345563650131226,0.9716039320913804,1.2992194228749196,-0.060482822358608246,0.9848007559776306,0.9579131293937282,1.5291831233818425,0.4286114573478699,0.6863059401512146,0.9573311418290718,1.5765609109131924,0.03312060236930847,0.9815177917480469,1.0204211043307119,1.0013699738350264,0.06661847233772278,0.14415574073791504,1.0359444604512005,1.0321329791056253,-0.48034611344337463,0.9646023511886597,0.0033608675003051758,0.9751999471945482,1.0170073659031134,178.21259305608737,177.87907166402624,1.0,0.012066383489387395,-0.0006395093335936501,-0.06176124419199231,-0.021811684164962333,172.33732464518658,0.9115063194055805,74,2.466666666666667
1.006442492912682,0.5305123452370563,-0.3160944879055023,0.9999960660934448,0.94597165200761,0.645251381012092,0.03328922390937805,0.9999569058418274,0.9460369048589438,0.6399128021456246,-0.3626365065574646,0.9999947547912598,0.9780860773605605,1.0172999489652332,0.13283005356788635,0.9999659061431885,0.9790856614802556,1.0214996949802377,-0.13302280008792877,0.9999908208847046,0.9709997456524888,1.2746043099614928,0.2804790437221527,0.447325199842453,0.9738486936715023,1.302269706347775,-0.06534044444561005,0.9851474761962891,0.9587875465786209,1.5305123452370564,0.44900959730148315,0.6923121213912964,0.9587458572569354,1.580220730564313,0.03523125499486923,0.9818003177642822,1.0258804856710015,1.0024230452172938,0.06747620552778244,0.15126116573810577,1.038599780432685,1.0346392948725707,-0.48666295409202576,0.9680113792419434,0.0029844045639038086,0.978585869420408,1.0193998219727356,178.84542295178036,177.95838279694067,1.0,0.008610665160906328,0.00034486324454188646,-0.02641822512662968,0.007476355374112571,171.54550998884872,0.9130126286470055,75,2.5
1.0060227262670218,0.5306573859621418,-0.31895455718040466,0.9999964237213135,0.9457095206162389,0.6456085749342285,0.03639540821313858,0.9999598264694214,0.9454278067767213,0.6402563318704189,-0.36406999826431274,0.9999951720237732,0.9779081755766044,1.0179572846325953,0.13292701542377472,0.9999662637710571,0.9798302700774159,1.0224875246726197,-0.13311904668807983,0.9999909400939941,0.9690202212317335,1.2753999094293205,0.28423044085502625,0.44711554050445557,0.9738133017768338,1.3027823453498184,-0.0695771723985672,0.9853760600090027,0.9570552735988389,1.5306573859621417,0.4519813656806946,0.6964350938796997,0.9579712167787995,1.5827923599462632,0.032485317438840866,0.9818963408470154,1.0294624479823713,0.9991671208173839,0.07171101868152618,0.15861691534519196,1.0386134560903344,1.0345466257197058,-0.5004094839096069,0.9711133241653442,0.0029918551445007324,0.97886922282701,1.0202224046526074,179.29357537369341,177.99159227583434,1.0,0.0017601061695849169,0.00601803183722293,-0.05435707731269297,0.04501111861378015,161.9517400268593,0.9131884186882058,76,2.533333333333333
1.0056085543781568,0.5307475741115169,-0.3156372010707855,0.9999967813491821,0.9452229838566947,0.6457017218018851,0.03908435255289078,0.9999624490737915,0.9452499583122052,0.6405247054026956,-0.36061349511146545,0.9999955892562866,0.9773234388613837,1.0179475019521829,0.13315331935882568,0.9999666213989258,0.9800116086115256,1.022730296812835,-0.13334479928016663,0.9999910593032837,0.9684844535444435,1.2758219105932205,0.29074469208717346,0.4465397298336029,0.9736658946072839,1.3027379392198348,-0.07292795181274414,0.985834002494812,0.9557702091980974,1.5307475741115169,0.4587526321411133,0.6995537281036377,0.9573148965950774,1.5835871206677212,0.019002273678779602,0.9822277426719666,1.0301286542923929,0.9984837797161477,0.07412916421890259,0.16595061123371124,1.0384420108912829,1.0341628813580284,-0.489759624004364,0.9738907814025879,0.002894192934036255,0.9786675237364547,1.0203388993825089,179.10789756067015,177.9662611281581,1.0,-0.0008003471573385233,0.0016722634268560152,-0.019641406145786078,-0.033334362967116955,155.59052097374627,0.9126089972080985,77,2.566666666666667
1.0063175817026142,0.5313867138527419,-0.30606895685195923,0.999997079372406,0.9457612172359658,0.6464150985480314,0.040430326014757156,0.9999645948410034,0.9461029360013152,0.6413373946142583,-0.3503490090370178,0.9999959468841553,0.9775372204785588,1.0189509308608062,0.1329939216375351,0.9999669790267944,0.9808893086795659,1.023969138163823,-0.1331855207681656,0.9999911785125732,0.9697775791829453,1.2772262852166028,0.2927910089492798,0.4523025155067444,0.9745909900116629,1.3040299709341616,-0.07248963415622711,0.9864658117294312,0.9562926011217276,1.531386713852742,0.4558714032173157,0.7080121636390686,0.9580475116081129,1.5849837334077104,0.00681111728772521,0.9829760193824768,1.0310754370854611,0.9977961700924898,0.07880466431379318,0.17316310107707977,1.0393981352848798,1.0348896246787116,-0.4784504473209381,0.9764137268066406,0.0028359591960906982,0.9792132645790624,1.0214600345123146,178.68378860956042,177.9184417133832,1.0,-0.003085888902157351,0.0011444049131754143,-0.01804828736050578,-0.0041823881063807,151.13299194033718,0.9137026337429806,78,2.6
