nose_x,nose_y,nose_z,nose_visibility,left_shoulder_x,left_shoulder_y,left_shoulder_z,left_shoulder_visibility,right_shoulder_x,right_shoulder_y,right_shoulder_z,right_shoulder_visibility,left_hip_x,left_hip_y,left_hip_z,left_hip_visibility,right_hip_x,right_hip_y,right_hip_z,right_hip_visibility,left_knee_x,left_knee_y,left_knee_z,left_knee_visibility,right_knee_x,right_knee_y,right_knee_z,right_knee_visibility,left_ankle_x,left_ankle_y,left_ankle_z,left_ankle_visibility,right_ankle_x,right_ankle_y,right_ankle_z,right_ankle_visibility,left_wrist_x,left_wrist_y,left_wrist_z,left_wrist_visibility,right_wrist_x,right_wrist_y,right_wrist_z,right_wrist_visibility,trunk_lateral_inclination,center_mass_x,center_mass_y,left_knee_angle,right_knee_angle,person_height,center_mass_velocity_x,center_mass_velocity_y,center_mass_acceleration_x,center_mass_acceleration_y,body_orientation,torso_leg_ratio,frame,timestamp
0.9628051582607738,0.4849082482334114,-0.20185264945030212,0.9998592138290405,0.917315299053882,0.5872242006055026,0.04343483969569206,0.9999736547470093,0.8893343678549641,0.589495189312604,-0.31836092472076416,0.9999358057975769,0.9214051114969442,0.9057555109312475,0.1115787997841835,0.9998738765716553,0.9172222568321308,0.9565069077781679,-0.11187580972909927,0.9998838901519775,0.9249224108776875,1.2251927187584446,0.17344580590724945,0.8963236212730408,0.9238382667285869,1.2420356869509497,-0.08077266812324524,0.9433886408805847,0.9159842896185916,1.4849082482334113,0.24504151940345764,0.8672216534614563,0.9142949664967095,1.5005181035891644,-0.03909225016832352,0.9433854222297668,1.0160783027157,0.9372383693177497,0.02457221783697605,0.8948320150375366,0.9687179914530606,0.9987378620353755,-0.49046674370765686,0.9662912487983704,0.0013384521007537842,0.9193136841645375,0.9311312093547077,177.39808709727927,176.5582040155636,1.0,0.3960389234434702,-0.44427766408248315,2.448606292785108,-2.710957114192717,174.5528020116753,0.7983227835714345,0,0.0
1.019610700629937,0.5257010450304869,-0.1883159875869751,0.9998622536659241,0.9588049754090255,0.6237234029614925,0.05889744684100151,0.9999668002128601,0.9489411947602003,0.6269601261883698,-0.3085666596889496,0.9999412298202515,0.966961850015414,0.9610333655713666,0.11680044233798981,0.9998837113380432,0.9729586530036629,0.9811789813662757,-0.11709288507699966,0.9998943209648132,0.9698605233560057,1.2573213737103686,0.19324631989002228,0.849250316619873,0.979530347023305,1.2795918442887124,-0.08845364302396774,0.9361194372177124,0.9625561499644923,1.5257010450304869,0.26250627636909485,0.8504891991615295,0.9677469844924308,1.5525437817698415,-0.06247576326131821,0.9445652961730957,1.049465058395963,0.9663116605266344,0.025528540834784508,0.8113805055618286,1.0222808346918606,1.0323667034874713,-0.483597993850708,0.9683642983436584,0.0018242299556732178,0.9699602515095385,0.9711061734688212,177.88046672618833,176.26649773481873,1.0,0.06747931756532755,-0.02029951813824876,-2.7140779638043715,3.478385548740169,164.8084243754857,0.7889676839388321,1,0.03333333333333333
1.0377784521521893,0.5330512315432406,-0.14723654091358185,0.99986332654953,0.9659254058824039,0.6387376932174633,0.10392051935195923,0.9999603629112244,0.9598926709200816,0.6405871049352888,-0.28320935368537903,0.9999462366104126,0.9802976861947333,0.9840457844285425,0.1209283247590065,0.9998908638954163,0.9848926682421034,0.9959552889051043,-0.12116827070713043,0.9999032616615295,0.9827442870424099,1.2681971561800076,0.2191365510225296,0.8092924356460571,0.9914768524672909,1.2982939886567273,-0.10161282122135162,0.9349163174629211,0.9769175421602135,1.5330512315432405,0.294750452041626,0.8365788459777832,0.9810264176118412,1.5681279250885956,-0.0434638187289238,0.9467170834541321,1.0577141785339483,0.9583921461970407,0.05583128333091736,0.7426341772079468,1.0369344605550421,1.0400697302665414,-0.4230152666568756,0.9709734916687012,0.0010290741920471191,0.9825951772184184,0.9900005366668234,178.2463897624133,176.53453026613195,1.0,0.001025288837718786,0.04838721492969439,-0.5106076834429203,0.522930056196396,161.28551651740926,0.8210261221972907,2,0.06666666666666667
1.0397155197166614,0.5350225736104858,-0.17949849367141724,0.9998694062232971,0.9635785664222962,0.6404213125441804,0.0759136825799942,0.9999527335166931,0.9595554893638573,0.6426948757753979,-0.2913466989994049,0.9999509453773499,0.9826849098235872,0.9855848859173204,0.11882659047842026,0.9998970031738281,0.9882530956898761,0.991066481310836,-0.11907047033309937,0.9999114871025085,0.9842989047324536,1.2701848078893256,0.21789589524269104,0.7629513740539551,0.9976236441133715,1.292232544884338,-0.09839532524347305,0.9309569597244263,0.9791374902196759,1.5350225736104859,0.3002534806728363,0.8151170611381531,0.9867647481708701,1.5672358389704768,-0.04517102614045143,0.9474449157714844,1.047386877648413,0.9815453920777979,0.048597075045108795,0.6749703288078308,1.0380476605979656,1.03854799687373,-0.4176950454711914,0.9734950065612793,0.001262962818145752,0.9854690027567317,0.9883256836140781,178.55857910669698,175.95663065564113,1.0,0.00950360842079617,-0.02597405369876245,0.06593319346665795,-0.5790342998908081,137.71936026367547,0.8111736135646339,3,0.1
1.0523391391027361,0.5452566375824713,-0.18257883191108704,0.9998791217803955,0.9745472006167076,0.6497777446292595,0.09630528092384338,0.9999377727508545,0.974400754334456,0.6532346935053523,-0.2732548117637634,0.9999551773071289,0.9954124749367259,1.0023248483409923,0.11787779629230499,0.9999012351036072,1.0058301952635245,1.0109351275634224,-0.11814472824335098,0.9999185800552368,0.9962722071632375,1.2890455458826002,0.22502291202545166,0.7252633571624756,1.0122404049103602,1.312833430691983,-0.10316218435764313,0.9299513101577759,0.9934486792886303,1.5452566375824712,0.3186947703361511,0.7968829274177551,1.0005668396620084,1.5847131857728254,-0.04332707077264786,0.9478175640106201,1.0615569798530202,0.9744126224718281,0.08250342309474945,0.6120070815086365,1.0508826246658003,1.0506536458319156,-0.42157021164894104,0.9758403897285461,0.0018924176692962646,1.0006213351001252,1.0066299879522074,179.19680688848317,176.32505074164436,1.0,0.004711060528750295,0.028507144230563285,-0.03774472393520266,0.4198156061951311,132.96090354681226,0.831463470570798,4,0.13333333333333333
1.0664103515970902,0.5567127492831352,-0.23761264979839325,0.9998899698257446,0.9886832747452419,0.6624362482778993,0.0459919348359108,0.9999305605888367,0.9885757090876287,0.6645538987963038,-0.29839223623275757,0.9999592304229736,1.0100399772796569,1.013890009748345,0.11672508716583252,0.9999077916145325,1.0179881175877257,1.0199100384074622,-0.1169719249010086,0.9999257922172546,1.0106027899856262,1.302409514950742,0.2487572878599167,0.6991716623306274,1.0248705508666165,1.330363651519108,-0.10551188141107559,0.9324769377708435,1.0116933708821865,1.5567127492831352,0.3538702726364136,0.7863374948501587,1.0155797744725137,1.6123583543803102,-0.06215718388557434,0.9500308036804199,1.0691340953507094,1.000692267366879,0.03770577162504196,0.5547506809234619,1.0662127978148142,1.0636177348684526,-0.42875736951828003,0.9778845906257629,0.0011417567729949951,1.0140140474336912,1.0169000240779036,179.86605450330063,176.8429997349104,1.0,-0.01593676549582167,-0.04233193406969303,-0.17012449992563283,-0.5852205700054326,130.61818128280822,0.8159442415483913,5,0.16666666666666666
1.06494128039788,0.5591377060593972,-0.2513675093650818,0.9999002814292908,0.9892643016791439,0.6620314338595363,0.04052247852087021,0.9999285936355591,0.9858461127823361,0.6647933835175903,-0.3213866949081421,0.9999629855155945,1.0101363552450584,1.0110260344689108,0.11989615112543106,0.9999139904975891,1.0205164249279435,1.0165764485017361,-0.12012181431055069,0.9999323487281799,1.0101728129805447,1.2978046808859938,0.2501705586910248,0.6774569153785706,1.027635073976612,1.3227929232662994,-0.11618389934301376,0.9353389143943787,1.0110912164808408,1.5591377060593972,0.3630167543888092,0.77686607837677,1.01372324402698,1.6107111501122953,-0.07924545556306839,0.9522855281829834,1.0681349780264808,1.0043481925856677,0.02978457137942314,0.5062885880470276,1.0646528223755927,1.061768242152721,-0.47034358978271484,0.9798118472099304,0.0014901161193847656,1.015326390086501,1.0138012414853235,179.80593001037465,175.9019731913543,1.0,0.014694771899262484,-0.018067403056634693,0.2275256284312948,0.18008780059607593,121.55680295263566,0.8007995018251273,6,0.2
1.0463474134637012,0.546652936123163,-0.22473672032356262,0.9999088048934937,0.9719088255778345,0.6525031774464983,0.05564535781741142,0.9999257922172546,0.9690035148384719,0.6539119854094909,-0.3266032338142395,0.9999662637710571,0.9911968065646451,0.9939152373803207,0.12443840503692627,0.9999187588691711,1.0018947066044817,0.9979033460069863,-0.12465503066778183,0.999937891960144,0.9909212562363315,1.2785975333801256,0.2322167158126831,0.6448440551757812,1.0099620874400757,1.2972590763860847,-0.11930791288614273,0.9340760111808777,0.9918810212272396,1.546652936123163,0.3256402611732483,0.759005069732666,0.99420813155306,1.5870011138000093,-0.09393969178199768,0.9523320198059082,1.0469774286124653,0.9864107726953689,0.04393642023205757,0.460083544254303,1.0450961634874134,1.0440377553813343,-0.48101335763931274,0.9813982844352722,0.0007746517658233643,0.9965457565845635,0.9959092916936535,179.73939707276955,175.344059680261,1.0,0.002478548178993556,0.009024341114428102,-0.0908794002097028,0.20362182201232354,113.6786052881802,0.7917048404937986,7,0.23333333333333334
1.0416359785927187,0.5444920932508963,-0.24769549071788788,0.9999172687530518,0.967075757682815,0.6489967905690854,0.04429224878549576,0.9999237060546875,0.9663127606958062,0.653032325106835,-0.3351849317550659,0.9999693036079407,0.9874665366274422,0.9910731078513447,0.12443864345550537,0.9999220967292786,0.9985308019985063,0.9946673813717948,-0.12466533482074738,0.9999427199363708,0.9854903819823111,1.279266659895738,0.22808074951171875,0.6110816597938538,1.0060218293944994,1.2952804272826277,-0.11785195022821426,0.9297325611114502,0.9869658906474186,1.5444920932508963,0.3190426230430603,0.7372581362724304,0.9915270441331675,1.5837095774352676,-0.06918351352214813,0.9502160549163818,1.0403656474010017,0.9877803438146624,0.032702114433050156,0.41804754734039307,1.0417688800896783,1.0415109519409524,-0.47800785303115845,0.9828460216522217,0.0022297799587249756,0.9929986693129742,0.9928702446115698,179.2883807153361,175.69559708423643,1.0,0.009925147345140451,0.013858402909194165,0.05809665372807181,0.03799368132869047,111.40790720598324,0.7895186709679706,8,0.26666666666666666
1.0444685268235523,0.5486274173278314,-0.26067134737968445,0.9999236464500427,0.9719666759672523,0.6508236872960595,0.051960378885269165,0.999896764755249,0.9713361081857423,0.6567899036730735,-0.3299533724784851,0.999971330165863,0.9963385110327949,0.9973650268091595,0.12382908910512924,0.9999188780784607,1.0046690313319873,1.0008348843193806,-0.1241038590669632,0.9999449849128723,0.990947785333954,1.2890470777503844,0.22869102656841278,0.5564748644828796,1.010502000149944,1.3062162805206976,-0.07548712939023972,0.9064746499061584,0.9937428399088041,1.5486274173278314,0.33267754316329956,0.6885148882865906,0.995476684468967,1.5911278592727969,-0.020748799666762352,0.9390719532966614,0.9877778161462323,0.6920162106660172,0.32028111815452576,0.38394054770469666,1.0476615893636572,1.048417490081107,-0.49606260657310486,0.9835748076438904,0.0032799839973449707,1.000503771182391,0.9990999555642701,178.32429422744488,175.88695143975596,1.0,0.018861215328320996,0.00920222585914838,0.06733058408539065,-0.03581125479927519,116.63579466781647,0.7929309588272199,9,0.3
1.039461123512146,0.5470848416695525,-0.2653731107711792,0.9999311566352844,0.9700730097419821,0.6527198798605608,0.056951820850372314,0.9999001622200012,0.9686774069284676,0.6551820725566466,-0.33563995361328125,0.9999740123748779,0.9940091328109767,0.9957753615575412,0.13005617260932922,0.9999226927757263,1.0044880433415089,0.9988372138268441,-0.13027295470237732,0.9999494552612305,0.9883896481550416,1.2847356158443288,0.22797659039497375,0.5304665565490723,1.0078096255953901,1.3027488576420279,-0.12813688814640045,0.9106057286262512,0.9905405539782246,1.5470848416695526,0.32980531454086304,0.675406277179718,0.9945736645252724,1.5888526225270527,-0.09529700875282288,0.9405889511108398,0.9930334430187218,0.9778183243341163,0.12363933026790619,0.35296279191970825,1.045144486828458,1.046236260683733,-0.5013108253479004,0.9850375652313232,0.0013577938079833984,0.9992485880762428,0.9973062876921927,178.41615790226703,176.72503993951574,1.0,0.013745108907902296,0.009656744957684022,-0.038096658525758595,0.0036367673697322517,110.27918132591273,0.7920290036116072,10,0.3333333333333333
1.0400157758042015,0.5489313690774523,-0.27881696820259094,0.9999380111694336,0.9696151121892135,0.6547678533651782,0.060493580996990204,0.9999043345451355,0.9732001972733769,0.657149930474458,-0.33676984906196594,0.9999765157699585,0.9962909962121389,1.0056388426209715,0.1332365721464157,0.9999262094497681,1.0065846976215733,1.0074704347195944,-0.13346382975578308,0.99995356798172,0.9940880812846037,1.2894327133895784,0.2465904951095581,0.5284334421157837,1.0077657165257832,1.3088415886767768,-0.1185804009437561,0.9178531765937805,0.9937317066909276,1.5489313690774524,0.36242324113845825,0.6849798560142517,0.9952608678273791,1.5935371196635477,-0.07304776459932327,0.9449552297592163,1.0121881194242677,1.0206686432277616,0.12187310308218002,0.32886582612991333,1.0475273723309682,1.0492101320004996,-0.4905725419521332,0.9864609837532043,0.0013107657432556152,1.0014378469168561,1.006554638670283,179.6339428773831,177.26044983042695,1.0,0.00013500046772591765,0.05222401229753523,-0.10058915823981321,0.3137613169055438,104.43693206335774,0.8132227275217798,11,0.36666666666666664
1.0466668728244692,0.5539701766014276,-0.3027530610561371,0.9999441504478455,0.9764281459067122,0.6595497502681824,0.048219725489616394,0.9999095797538757,0.9807630227511497,0.6625921594915298,-0.3492458462715149,0.99997878074646,1.003443326156533,1.013054970123753,0.13100725412368774,0.9999302625656128,1.0120561410237174,1.0146879798929604,-0.13121792674064636,0.9999575018882751,1.0010200448104163,1.297320946630817,0.23823273181915283,0.5100711584091187,1.0147624803052488,1.3171344567188328,-0.11487064510583878,0.9233241081237793,1.0003627395623205,1.5539701766014276,0.352387011051178,0.6805516481399536,1.001153774686647,1.6056471748827368,-0.0703233927488327,0.9479700326919556,1.0244909470273162,1.0292752260659381,0.09686151146888733,0.3025759756565094,1.0535387995802017,1.0570082499662266,-0.49326643347740173,0.9877023100852966,0.0016624927520751953,1.0077497335901253,1.0138714750083568,179.6583227675346,176.7867688380579,1.0,-0.005288113237838114,0.00210991638240935,-0.04140425591607987,-0.3853316515032603,105.10607435680625,0.8154760797738838,12,0.4
1.0467177796156018,0.5544961083524953,-0.2999749481678009,0.9999496936798096,0.9759682621353596,0.6595734834231829,0.05569427087903023,0.9999152421951294,0.9821588571941259,0.6628510595242136,-0.34790927171707153,0.9999808073043823,1.0016454188428672,1.0147228694445558,0.13130320608615875,0.9999343156814575,1.0107303138324004,1.015375688688283,-0.1315225064754486,0.9999610781669617,1.0020250385268137,1.2961261655868754,0.2338486909866333,0.5059657692909241,1.014558818730073,1.3144738681837773,-0.1182829961180687,0.9295626282691956,1.0009587634570976,1.5544961083524953,0.3484366238117218,0.6887099146842957,1.0013522450443968,1.6071633732276,-0.0784989446401596,0.9517761468887329,1.0307471205715995,1.0315121448282931,0.07390177249908447,0.28339287638664246,1.0529711352604143,1.0578862169130283,-0.4748898148536682,0.9888426065444946,0.0017898380756378174,1.0061878663376338,1.0150492790664194,179.68625227082825,176.68312876786243,1.0,-0.018778845863747645,0.004419586426112425,-0.11437059495932525,0.019574110528062637,98.24534220476258,0.8171249265528147,13,0.43333333333333335
1.0484222861029178,0.5555614328806979,-0.27717795968055725,0.9999546408653259,0.9767239345214006,0.6602567878642757,0.061072833836078644,0.9999201893806458,0.9815592123446851,0.6593184862628514,-0.3462257981300354,0.9999825954437256,1.0044106896546825,1.0198806715990296,0.13276264071464539,0.9999377131462097,1.0124049690258285,1.0200060262011883,-0.132981538772583,0.9999642372131348,1.005772431889118,1.2961236357031327,0.2624114453792572,0.4830685257911682,1.0172199190757902,1.3168919534039347,-0.1158846989274025,0.9345844984054565,1.0019188980860527,1.555561432880698,0.39958715438842773,0.6839510202407837,1.0022563828388567,1.6100149474707386,-0.0696730986237526,0.9544135332107544,1.0340933916922577,1.033573503425066,0.07537037134170532,0.2667334973812103,1.0545351535506444,1.059428573177197,-0.46612486243247986,0.989834189414978,0.0005117356777191162,1.0084078293402556,1.019943348900109,178.86658756760104,176.14851200852013,1.0,0.006999531243347874,0.02710523499398777,0.19482996392680646,0.17125224982654896,95.30076330290858,0.8280644292542848,14,0.4666666666666667
1.0480303811474279,0.5543399011492705,-0.25895002484321594,0.9999591112136841,0.9758936044165275,0.6594053979174692,0.06388340145349503,0.9999257922172546,0.9794238004794622,0.6579187726327334,-0.341356098651886,0.9999842047691345,1.0049416631798445,1.0220323139731642,0.13367396593093872,0.9999415278434753,1.010981825477822,1.021823050054903,-0.13387078046798706,0.9999671578407288,1.0075245497578182,1.2935330899525919,0.2559397220611572,0.4551764726638794,1.0165045589951227,1.314184174735481,-0.1182301789522171,0.9378863573074341,1.0006972189076335,1.5543399011492705,0.38950300216674805,0.6664763689041138,1.0012160667967807,1.6071670872503911,-0.0633620172739029,0.9550852179527283,1.0349518774859643,1.0338920217830967,0.08036024868488312,0.2501349151134491,1.0528505468097842,1.0582621532176484,-0.4664155840873718,0.9906891584396362,0.0008117258548736572,1.0079617443288331,1.0219276820140337,177.95540955015514,175.93069482390086,1.0,0.005488765476054346,0.023991550103735212,-0.011376879549216587,-0.023336244339090883,92.59562995723049,0.8397303958581438,15,0.5
1.0469629752897789,0.5532958466462036,-0.2759072780609131,0.9999631643295288,0.9749404880757504,0.658438468612524,0.05755704641342163,0.9999315142631531,0.9785012253529467,0.6566756572047733,-0.3497997224330902,0.9999856948852539,1.0040344553567058,1.025390045878898,0.13303790986537933,0.9999452829360962,1.0109364099999443,1.0258732514061324,-0.13323543965816498,0.9999698996543884,1.0067498283262692,1.292853738125287,0.26679283380508423,0.4404833912849426,1.0153410939201708,1.313778794812787,-0.09661243855953217,0.9419790506362915,0.9985645600643227,1.5532958466462037,0.41257065534591675,0.6651427149772644,1.0000895309722093,1.6059888041573778,-0.024010704830288887,0.9572562575340271,1.0346874174960095,1.0366031185785927,0.07401187717914581,0.23747636377811432,1.0511959036908463,1.057888262075149,-0.49230924248695374,0.9914404153823853,0.0009635090827941895,1.0074854326783251,1.0256316486425152,177.61821591870896,176.13572115164925,1.0,0.0038819908864857447,0.03352856220830534,-0.011317185010677423,0.06757997503466424,98.53798628544979,0.8554523509385044,16,0.5333333333333333
1.0460868880856555,0.5523015558114791,-0.2658771574497223,0.9999668002128601,0.9735645214744794,0.6574913067525612,0.05563349649310112,0.999936580657959,0.9779793213861376,0.6554120077786489,-0.3459007740020752,0.9999870657920837,1.0028683835938152,1.0269190161604944,0.1324537694454193,0.9999485611915588,1.0105578193204277,1.0274893705323624,-0.1326550543308258,0.9999723434448242,1.0054393354434774,1.2919990534034584,0.26021865010261536,0.4259834885597229,1.0141370217556533,1.3129385531941777,-0.08981786668300629,0.9455990791320801,0.996236761332675,1.5523015558114792,0.3976462185382843,0.6612843871116638,0.9988873405784097,1.6046049906552184,-0.020633380860090256,0.9589930176734924,1.0359201797988782,1.034995151279798,0.08394553512334824,0.2258123904466629,1.049460322872207,1.0567495519597354,-0.4739161431789398,0.9921671748161316,0.001137763261795044,1.0067131014571213,1.0272041933464284,177.4195621298927,176.28864968263076,1.0,0.002661508980056325,0.020535933270026306,-0.009191023911549242,-0.09790873149768761,98.77741302953046,0.8643367521982797,17,0.5666666666666667
1.042025535664069,0.5495438495194155,-0.2618354558944702,0.9999700784683228,0.9690063206348377,0.6544780354658748,0.06735098361968994,0.9999408721923828,0.9740645854117522,0.6516329852091224,-0.3333033323287964,0.9999882578849792,0.9966088445507313,1.0219193642687021,0.13281890749931335,0.9999511241912842,1.00580646847529,1.0226209340215346,-0.13302695751190186,0.9999744892120361,1.0013658323492305,1.286690314053595,0.2580564618110657,0.4059574604034424,1.0093965231248518,1.307608892160736,-0.09449619054794312,0.9485442042350769,0.9918504468887621,1.5495438495194156,0.3835405111312866,0.6511210799217224,0.9944055533003765,1.5980353444095823,-0.04422033578157425,0.9600563049316406,1.0325968025814818,1.0306965235261205,0.09176028519868851,0.21412768959999084,1.04420388317611,1.052111590476741,-0.4654722213745117,0.9928445219993591,0.00156363844871521,1.0012076565130108,1.0222701491451185,176.89748935504588,176.32345154214383,1.0,-0.008584375675727006,-0.0033486705993772564,-0.08893249082296469,-0.18836211011760284,98.65796154114908,0.8602285557760135,18,0.6
1.0410720801341806,0.5483420589967541,-0.2583785951137543,0.9999730587005615,0.9668935755939722,0.6523797020300016,0.062443964183330536,0.999944806098938,0.973053204922832,0.6499748603680048,-0.3305862545967102,0.9999893307685852,0.9919824357626786,1.0197378452490966,0.13230465352535248,0.999954104423523,1.0027239788570526,1.0205344974263069,-0.13251283764839172,0.9999765753746033,0.9994816185690215,1.2845382521598459,0.2553696930408478,0.39690884947776794,1.007458749379493,1.3053253637804074,-0.10199681669473648,0.9521464109420776,0.9900561375100251,1.548342058996754,0.38212496042251587,0.6512964367866516,0.992477488134792,1.5958466264313473,-0.06275655329227448,0.962127685546875,1.0312708442569893,1.0329977358904796,0.08781380206346512,0.20277875661849976,1.0419211279702805,1.0503309559885667,-0.4539199471473694,0.9933663606643677,0.001324087381362915,0.9973532073098657,1.0201361713377017,176.33155143983421,176.09557363277128,1.0,-0.015083712804222571,-0.0021403023107922463,-0.047953605632211474,0.008849994911257937,98.14857549716871,0.8583712544380252,19,0.6333333333333333
1.0398381228247606,0.5472049272943006,-0.23405630886554718,0.9999757409095764,0.9643205488383206,0.6499997217249744,0.08466087281703949,0.9999479055404663,0.9723106623480544,0.6483970737138656,-0.31746917963027954,0.9999903440475464,0.985924200800881,1.0177190947081223,0.13343197107315063,0.9999560713768005,0.9998529735253463,1.0186188686353301,-0.13364192843437195,0.9999783039093018,0.9966012082755642,1.2824213234101,0.23783282935619354,0.38215094804763794,1.0055666352242905,1.3030832710726734,-0.10989147424697876,0.9546265602111816,0.9871714132551094,1.5472049272943005,0.3432398736476898,0.6444763541221619,0.9907371159608774,1.5935376650110114,-0.07125020027160645,0.9629256725311279,1.0299851336295585,1.031705575729144,0.10277973115444183,0.1931850165128708,1.0399559169132373,1.0483339944391463,-0.45252475142478943,0.9939242005348206,0.000883936882019043,0.9928885871631137,1.018168981671726,175.6505494249868,175.92655871075652,1.0,-0.021740450867452365,-0.001589340997812096,-0.05308345122664869,0.0043469554165666445,97.0583537416653,0.8570859746973786,20,0.6666666666666666
1.0381606723917813,0.5451527013693622,-0.2217516154050827,0.9999781250953674,0.9617401808469257,0.6475177988643062,0.08870817720890045,0.9999510645866394,0.9702735917159001,0.645448164106426,-0.31190723180770874,0.999991238117218,0.9805650255381042,1.0168849628687295,0.13341298699378967,0.9999580979347229,0.9938503682466978,1.0168146979900743,-0.13362106680870056,0.9999799132347107,0.9937698653872568,1.2797953395310477,0.2382708340883255,0.36229825019836426,1.0011247230154712,1.3002378929545826,-0.10684981197118759,0.9560374021530151,0.9844694681051066,1.5451527013693622,0.35063672065734863,0.6272916793823242,0.9879300133788855,1.589719493875182,-0.05991552397608757,0.9623985886573792,1.027476315643845,1.029698280778994,0.1143316775560379,0.1856634020805359,1.0368855588269796,1.045500119164708,-0.4406908452510834,0.9944420456886292,0.0011446774005889893,0.9872076968924011,1.016849830429402,175.11738565226966,175.92000359480633,1.0,-0.02268076239808575,0.011662316244680124,-0.00775389080655934,0.10265470584652019,92.61453344931546,0.8616974428294579,21,0.7
1.0371302736546284,0.5431626975433667,-0.23650971055030823,0.9999802708625793,0.9601808856469826,0.6450204097778606,0.07930520176887512,0.999954104423523,0.9685420472382035,0.6434051597277148,-0.31219643354415894,0.9999920725822449,0.9731255671622185,1.0140848643443643,0.1336771547794342,0.9999603033065796,0.9847654934045256,1.0141590348121778,-0.13388419151306152,0.9999814033508301,0.9911995127537732,1.2766402583970107,0.2348290979862213,0.35533514618873596,0.9979035556032348,1.2963521888994973,-0.10447289049625397,0.9583343863487244,0.9818280203988136,1.5431626975433665,0.34056147933006287,0.629091739654541,0.9851934247557803,1.5858286679392455,-0.059073783457279205,0.9637353420257568,1.0250524191719266,1.0259236534351568,0.10311336815357208,0.1804478019475937,1.0341015387254762,1.0428250606746674,-0.4416782855987549,0.9949153065681458,0.0008956491947174072,0.9789455302833721,1.014121949578271,174.04824021187397,174.82031786753632,1.0,-0.04136995461999391,-0.0009730008973212152,-0.1349983191949467,-0.09077345984235036,92.37387451543717,0.8621813788632787,22,0.7333333333333333
1.0386008218430052,0.5423938277351928,-0.23212477564811707,0.9999821782112122,0.9601175859752656,0.6391789561103012,0.07591446489095688,0.9999566078186035,0.9684879983381836,0.6414498296186995,-0.31241342425346375,0.9999927878379822,0.967036271894314,1.012104880898498,0.1335075944662094,0.9999620318412781,0.9794775546293167,1.0112674207710304,-0.13371336460113525,0.9999826550483704,0.9902203947587477,1.274701529296497,0.221029594540596,0.33957743644714355,0.9973027704603098,1.2940024235539715,-0.09751138836145401,0.9580443501472473,0.9815459103654514,1.542393827735193,0.320965051651001,0.6119093894958496,0.9857647889529589,1.5843930385012546,-0.044363997876644135,0.9617040753364563,1.02452253387487,1.0245868712631416,0.09778358787298203,0.17202135920524597,1.0332013145879173,1.0411874211491066,-0.44614776968955994,0.9953002333641052,0.0012601912021636963,0.9732569132618154,1.011686150834764,173.0985524377716,174.11720921155936,1.0,-0.03557907766808066,-0.011808329997629449,0.04171933866352362,-0.07851257308012108,87.21191274375037,0.8586691426742251,23,0.7666666666666667
1.039574895215832,0.5418071398008493,-0.22301216423511505,0.9999839067459106,0.9611047974806172,0.6372875913353836,0.07893698662519455,0.9999588131904602,0.967884761651547,0.6390666985094804,-0.31469982862472534,0.9999934434890747,0.967884761651547,1.0114720553811591,0.13336899876594543,0.9999637007713318,0.9754922524855995,1.0104762964553076,-0.13357797265052795,0.9999838471412659,0.9898341870825428,1.2739526052032726,0.21887440979480743,0.32379311323165894,0.9971563164907287,1.2934269658066047,-0.10217328369617462,0.9578724503517151,0.9817778263758234,1.5418071398008493,0.3246561884880066,0.591777503490448,0.9859515324676189,1.5834656135992649,-0.045827317982912064,0.9593421220779419,1.024164519343409,1.0238736825854433,0.09878705441951752,0.16397598385810852,1.0326343213033309,1.0400677824641968,-0.4456273913383484,0.9955805540084839,0.0009877383708953857,0.9716885070685732,1.0109741759182334,173.49708621995646,173.40934912045978,1.0,-0.009033514500834025,-0.002039243712945124,0.21235373591529208,0.07815337613396116,83.58088718827987,0.8591055316177937,24,0.8
1.041886396160898,0.5409708539936775,-0.23888924717903137,0.99998539686203,0.9645924374087134,0.6355905047137104,0.06101907044649124,0.9999608993530273,0.9681802489568678,0.6387194051430342,-0.3452611565589905,0.9999940395355225,0.9665816245099526,1.0130670568716629,0.13407064974308014,0.999965488910675,0.9679025632015408,1.0113360273930345,-0.13425299525260925,0.9999849200248718,0.9908421104868487,1.273279532612384,0.24507904052734375,0.31568074226379395,0.9975871489865087,1.293139965477051,-0.07710276544094086,0.9583059549331665,0.9867679196771421,1.5409708539936775,0.3836711645126343,0.5821123719215393,0.9865136247621015,1.5824306892116455,0.019190199673175812,0.9580995440483093,1.0246678406794074,1.022942927154432,0.08643777668476105,0.15787875652313232,1.0313027920133155,1.039417911428652,-0.46788710355758667,0.9958102107048035,0.001738131046295166,0.9672420938557467,1.0122015421323487,173.80155997457695,171.79466020350856,1.0,-0.029235565840959224,0.013630910491378366,-0.15206150425145473,0.11791043992274036,37.648974182960764,0.8677126170703262,25,0.8333333333333334
1.043149500885419,0.5402300058152446,-0.22946181893348694,0.9999868273735046,0.9647530997440681,0.6338197452130632,0.0864834263920784,0.9999632239341736,0.9707947577786333,0.6381534398037493,-0.3370903432369232,0.9999945759773254,0.9614125367968728,1.011966625245087,0.1383906751871109,0.9999668598175049,0.9631890031682336,1.009952917905781,-0.13857659697532654,0.9999858736991882,0.9921212521113025,1.2720745993664175,0.2481379508972168,0.30609041452407837,0.9987943377559888,1.292083350374196,-0.08188496530056,0.9590566754341125,0.9858680819078462,1.5402300058152445,0.3784577250480652,0.572847843170166,0.9854241529208324,1.581432426230575,-0.005988272838294506,0.9580927491188049,1.0219009433732182,1.0217442121056466,0.10660485178232193,0.1561746746301651,1.0295079844235706,1.038025396147123,-0.459865003824234,0.9961128234863281,0.002409517765045166,0.9623007699825532,1.010959771575434,171.9308978250084,170.1615715950817,1.0,-0.031368383867891834,-0.0027133076931302458,-0.016542138444108793,-0.12516829129353807,40.91217857480898,0.8678225302256103,26,0.8666666666666667
1.0455086638635207,0.5396539810921557,-0.19693739712238312,0.9999880194664001,0.9674198023514288,0.6337047590990653,0.11326507478952408,0.9999638795852661,0.9725241704384155,0.6377219529178607,-0.30225974321365356,0.9999949932098389,0.9566736120410295,1.0110910308256782,0.1388656049966812,0.9999669194221497,0.9535872947856129,1.0091986394922199,-0.13904307782649994,0.9999864101409912,0.9946380995741718,1.2713583116848335,0.25254425406455994,0.2892201840877533,0.9991940866118536,1.2919752537561262,-0.07856158167123795,0.9572906494140625,0.9874288009855647,1.5396539810921557,0.395317018032074,0.5430374145507812,0.984642759581135,1.5810994402635314,0.007558010518550873,0.9531171321868896,1.0197253274056617,1.021005490238089,0.1292020082473755,0.15170499682426453,1.0276518385602185,1.03711379522751,-0.4102512001991272,0.9963018894195557,0.0022351443767547607,0.9551304534133211,1.010144835158949,170.16174035849855,167.9569075639329,1.0,-0.0491802678569253,-0.0006929545951561284,-0.13532250778495925,0.015315200536371414,60.11631585448979,0.8693375822886511,27,0.9
1.044035130994556,0.5373107749005658,-0.2107280194759369,0.9999890923500061,0.9682469036377673,0.6322547010438764,0.10473666340112686,0.9999634623527527,0.9690376310178895,0.6350964875672173,-0.3069378733634949,0.9999954104423523,0.9462533116975759,1.0071237464883005,0.13834290206432343,0.9999668002128601,0.9444670550258469,1.0064546202431224,-0.13852247595787048,0.9999869465827942,0.9883098108915683,1.2702264687803753,0.24994120001792908,0.27868351340293884,0.9964144198679188,1.2895983829182405,-0.0647595152258873,0.9559047222137451,0.9790315376276846,1.5373107749005657,0.38362351059913635,0.5320884585380554,0.9796629035204328,1.5743519739517569,0.02785111591219902,0.9516316056251526,1.0261657375468838,0.9892068859309353,0.11418209224939346,0.14403392374515533,1.0222531676962319,1.0334967926367313,-0.42504173517227173,0.9965803623199463,0.0015879571437835693,0.9453601833617113,1.0067891833657114,168.9285983695537,166.23704414963015,1.0,-0.0442360991197709,0.0075708668935894185,0.036874589662043614,0.06435342606029569,72.82190315587808,0.8720969467018069,28,0.9333333333333333
1.043129432612337,0.5352598096973835,-0.2013629972934723,0.9999901652336121,0.9658351675940919,0.6316669079876355,0.1247410923242569,0.999963641166687,0.9685081714822377,0.632727746110858,-0.29427796602249146,0.999995768070221,0.93929652059442,1.0045794306861973,0.1394345760345459,0.9999678134918213,0.9386726106899433,1.004098666181368,-0.13962288200855255,0.9999876618385315,0.9845272787894809,1.2686804613702691,0.24650339782238007,0.2895171642303467,0.9926957057708478,1.2864922336713156,-0.07269991934299469,0.9585118293762207,0.9717349472171264,1.5352598096973835,0.37508660554885864,0.5438057780265808,0.9752197459886477,1.5680472262922074,0.008657654747366905,0.9541456699371338,0.9884602172420068,0.9885791331308008,0.1360769271850586,0.13767246901988983,1.0175500829568505,1.0310550597036934,-0.41724228858947754,0.9968397617340088,0.0005950033664703369,0.9389845656421817,1.0043390484337826,167.53428993469305,165.61816455150606,1.0,-0.021197556122803333,0.009710358343247813,0.1701657114349717,0.016126649047301028,56.45397441334108,0.8761842951387638,29,0.9666666666666667
1.052313676586246,0.538300383437914,-0.2524266839027405,0.9999911189079285,0.9746130453729968,0.6388147985418984,0.10478462278842926,0.9999651908874512,0.9776738812218105,0.6368345405377769,-0.31349071860313416,0.9999961256980896,0.9447470832919511,1.009989815556485,0.14012277126312256,0.9999686479568481,0.9413945459187618,1.0098891625030193,-0.1403118073940277,0.9999882578849792,1.0009595697947453,1.275512570599382,0.2821764051914215,0.3033132255077362,0.9978804625317673,1.2936678384056899,-0.06461741030216217,0.9613132476806641,0.9784346558934419,1.538300383437914,0.45221081376075745,0.5545133948326111,0.9775039891251962,1.5763980984266122,0.030805006623268127,0.9572171568870544,0.9955524065562749,1.0034542055052198,0.12991006672382355,0.14033693075180054,1.0231050580136098,1.0380158141760851,-0.4392882287502289,0.9970067143440247,0.0011046528816223145,0.9430708146053565,1.0099394890297522,163.14754627846492,164.62025842170036,1.0,-0.008009278866823283,0.0008699232100833806,0.10208796996859425,-0.0682435368715553,92.88062428527557,0.8825985168187208,30,1.0
1.0612385301764715,0.542554985801983,-0.21779224276542664,0.9999920129776001,0.9797784646466664,0.6451035407326908,0.12396619468927383,0.9999650716781616,0.9874887442300838,0.640382252363262,-0.2927543520927429,0.9999964237213135,0.9457590696844722,1.0152934560246487,0.14069151878356934,0.9999695420265198,0.9469754365525762,1.015746559663756,-0.14088502526283264,0.999988853931427,1.0044985491071607,1.2836876085068571,0.2703487277030945,0.3221454918384552,1.0031736049033997,1.3018114318832137,-0.06535002589225769,0.9641246199607849,0.9886045884610215,1.542554985801983,0.42781537771224976,0.566681444644928,0.9824664786270455,1.584126036485314,0.036253057420253754,0.9599668979644775,0.9875807825848397,1.0200432580267353,0.13612891733646393,0.13608837127685547,1.0286773578290676,1.049576185929505,-0.41056305170059204,0.9971134662628174,0.002620309591293335,0.9463672531185242,1.0155200078442024,164.1417152601136,164.6906362510985,1.0,-0.012030283013133455,0.0033539357414133462,-0.03151951965672062,0.01963637539608804,105.18008010177121,0.8861916133428768,31,1.0333333333333334
1.0664342073118607,0.5470664290426642,-0.1916796714067459,0.9999927878379822,0.9809838212571409,0.6463799666761872,0.14861318469047546,0.9999632835388184,0.9935118576274502,0.642932725784272,-0.2780415415763855,0.9999967217445374,0.9403369685100137,1.0169536551959664,0.14261595904827118,0.9999698996543884,0.9482964436720666,1.0175818054628953,-0.14283010363578796,0.99998939037323,1.0053614960133492,1.2863035858417426,0.26457181572914124,0.33773142099380493,1.004904962683,1.3042179192936656,-0.06574457883834839,0.9668624401092529,0.990302244324523,1.5470664290426643,0.4109989106655121,0.5780941247940063,0.9841280156901995,1.5868237788338646,0.027441849932074547,0.9627159833908081,0.9751260348864415,1.0405199422915186,0.15497444570064545,0.1272355318069458,1.0309159572494142,1.054208410424217,-0.3929048180580139,0.9973374605178833,0.0019096434116363525,0.9443167060910401,1.0172677303294309,163.1225476621158,164.6234972533001,1.0,-0.02962806174196634,-0.0011744750088523966,-0.13630072984671174,-0.03516761036782498,88.25280924550884,0.8811096239105438,32,1.0666666666666667
1.0727553693419587,0.5516962063992378,-0.16041630506515503,0.9999935030937195,0.9821577584023846,0.6471402213773672,0.15571720898151398,0.9999614953994751,0.9985334413352562,0.650213665073123,-0.27225759625434875,0.9999969601631165,0.9303261006987391,1.0180707500220725,0.14264993369579315,0.9999704360961914,0.9504657623328157,1.020315217729151,-0.142863929271698,0.999989926815033,1.0019332717692924,1.288098864315285,0.26194530725479126,0.34532812237739563,1.0060853161682315,1.3063920356679997,-0.05518577620387077,0.9689153432846069,0.9914980537190877,1.5516962063992379,0.4052833914756775,0.5866571664810181,0.9852850163169129,1.5903133759792611,0.04447897523641586,0.964805543422699,0.9671089541850305,1.0389106967853197,0.16990679502487183,0.11840099096298218,1.0341090032588576,1.0586488256999471,-0.3721722662448883,0.9975469708442688,0.001700371503829956,0.9403959315157774,1.0191929838756117,162.88089012386837,164.80766421081546,1.0,-0.037691060064667166,0.0044536300970764876,-0.058800749887191014,0.04125129242871688,88.40442703025664,0.8771896303148303,33,1.1
1.0757598250335312,0.5555191857223495,-0.1716790497303009,0.999994158744812,0.983070190277761,0.6478137390796999,0.15875516831874847,0.9999602437019348,1.0020260058932076,0.6549857287363782,-0.2639484107494354,0.9999971985816956,0.9270506256570306,1.0191712655205927,0.14235952496528625,0.9999707341194153,0.9509221946415656,1.0220880925789428,-0.1425754278898239,0.9999903440475464,0.9981754187301812,1.289846257019114,0.24967631697654724,0.3666718006134033,1.0075669631683155,1.3095120755518193,-0.059127144515514374,0.9712525010108948,0.9912593365221789,1.5555191857223494,0.3814241290092468,0.6009144186973572,0.9866572100305363,1.5922271241181334,0.03210148960351944,0.967208743095398,0.9620211553034553,1.0385982227162958,0.16465438902378082,0.11142152547836304,1.0371654862414144,1.062340003901186,-0.3678261935710907,0.9977161288261414,0.003962337970733643,0.9389864101492981,1.0206296790497678,163.78611322657582,164.62124602237478,1.0,-0.020837363590366448,9.118925452417792e-05,0.12931947604757124,-0.033416584869275096,88.38791131174101,0.8727379684775413,34,1.1333333333333333
1.0804262419815145,0.5602131717804203,-0.18005669116973877,0.9999947547912598,0.9845176357109253,0.6489901529109258,0.14607778191566467,0.9999601244926453,1.005973134537549,0.6613281507705198,-0.27602025866508484,0.9999973773956299,0.9222318944711831,1.0214143808121408,0.14237065613269806,0.9999716281890869,0.9528517936558631,1.0264034386114798,-0.14258737862110138,0.9999908208847046,0.9946316947057126,1.2929521291756194,0.24712178111076355,0.3963628113269806,1.011456689141813,1.3156561892094334,-0.05642442777752876,0.9735825061798096,0.9918587952270468,1.5602131717804202,0.3729974627494812,0.6225948333740234,0.9892334018975775,1.5940815562039223,0.037610623985528946,0.9697089195251465,0.9582041596409884,1.0391399732316864,0.15831276774406433,0.10451703518629074,1.0409168549981593,1.0679976872332564,-0.3832013010978699,0.997837245464325,0.006805300712585449,0.9375418440635231,1.0239089097118104,164.47616863590724,163.98291903222764,1.0,-0.023394491272620284,0.01265124396102562,-0.01981238359941857,0.09862649952653162,89.75966779829866,0.8730371600683441,35,1.1666666666666667
1.0931501939953279,0.5741505579938118,-0.18586444854736328,0.9999952912330627,0.9928141782015989,0.6580788392258984,0.14354412257671356,0.9999606013298035,1.0199201536589315,0.6744251895891309,-0.27313512563705444,0.9999975562095642,0.9252079335205861,1.0341982490457238,0.14223887026309967,0.9999721646308899,0.9619162293224247,1.0407901269349993,-0.14246618747711182,0.9999911785125732,0.9970540491137916,1.3065795628889016,0.2446308583021164,0.43208518624305725,1.0204306346837184,1.3302850936215331,-0.05135321617126465,0.9758882522583008,1.0007240173526477,1.5741505579938118,0.36601996421813965,0.6483840942382812,0.9992817612663855,1.605767563335709,0.041282638907432556,0.9722676873207092,0.9607956133521643,1.0499033362420866,0.15120653808116913,0.10012131929397583,1.0524901950191248,1.0840897554733744,-0.37260115146636963,0.9979538321495056,0.008936196565628052,0.9435620814215054,1.0374941879903614,166.00943556262138,164.182996483995,1.0,-0.01894285132238682,0.03527171013613433,0.03720617125230688,0.17965946119193937,89.99044501893269,0.8767423913229652,36,1.2
1.1160758902426933,0.597060503054783,-0.1988602578639984,0.999995768070221,1.012697937155449,0.681269540461269,0.1263897716999054,0.9999616742134094,1.040755414374591,0.6954429879005835,-0.269748717546463,0.9999977350234985,0.9331522067598874,1.0528454859720078,0.13405069708824158,0.9999725818634033,0.972680554401258,1.0603585118402734,-0.1342771053314209,0.9999914765357971,1.0092827645369475,1.3279428879536175,0.2429751604795456,0.4703815281391144,1.0349552279064536,1.3507306855875258,-0.043939780443906784,0.9780278205871582,1.0149327679016904,1.5970605030547829,0.3710905909538269,0.6737416982650757,1.0150290929996704,1.6285742928883489,0.05807305499911308,0.9746986031532288,0.9831501304065986,1.0786606122306002,0.12552510201931,0.10028400272130966,1.072411092957535,1.1122062976154672,-0.3597685992717743,0.9980956315994263,0.00763896107673645,0.9529163805805727,1.0566019989061406,165.73380728818924,163.79335754765864,1.0,-0.03189685074802779,0.03268076791813189,-0.0974009137509348,-0.02377557668526299,88.67835660715161,0.8713125147683551,37,1.2333333333333334
1.1369144591138571,0.6170426358621871,-0.17361190915107727,0.9999961256980896,1.0277363114673492,0.7041917761648718,0.12128420919179916,0.9999629259109497,1.0581977669032219,0.7169935553974827,-0.26899254322052,0.9999978542327881,0.9386144376044233,1.070507118346495,0.13060930371284485,0.9999733567237854,0.9768071436619176,1.0772695769010956,-0.1308096945285797,0.9999918341636658,1.0224597557260402,1.3442608123245083,0.24238033592700958,0.4975488781929016,1.0477321931635597,1.3669355504486898,-0.04048958048224449,0.9798696637153625,1.0285804574003787,1.6170426358621872,0.3718573749065399,0.6930082440376282,1.0278396328698405,1.6480093922848913,0.06658560782670975,0.976826548576355,1.0136923246470406,1.1071686415177746,0.11298409849405289,0.10385404527187347,1.0890575078754585,1.1349497852946555,-0.33347803354263306,0.9982156157493591,0.006816506385803223,0.9577107906331704,1.0738883476237953,164.2566060323628,162.19347578296922,1.0,-0.052512577001912815,0.03376289337026435,-0.15543705825616833,0.005251399770962409,86.36682557784312,0.8715359913528432,38,1.2666666666666666
1.1476456967659638,0.630205328176233,-0.13918745517730713,0.9999963641166687,1.038044227212854,0.7174257329063148,0.14104799926280975,0.999961793422699,1.0682109468837189,0.7265561044468066,-0.2534746527671814,0.9999977946281433,0.9360917302988908,1.080263392803406,0.13085387647151947,0.9999739527702332,0.9738280006835235,1.0856736458589846,-0.13104984164237976,0.9999920129776001,1.0273836899089044,1.3523244356402853,0.23536065220832825,0.5263065099716187,1.0526025136251913,1.3734471804260278,-0.04528449848294258,0.981619119644165,1.0333575461459947,1.630205328176233,0.35216930508613586,0.7143920660018921,1.0329203880694768,1.6547786518814391,0.05478549748659134,0.9788305759429932,1.0220079730163445,1.1376318969251902,0.1299363225698471,0.10333932936191559,1.094600512777649,1.1525939302074768,-0.3329857587814331,0.9981909990310669,0.004837632179260254,0.9549598654912071,1.0829685193311953,162.68201634080998,160.68907320221504,1.0,-0.05787627146439923,0.029008041952327812,-0.039395506606229994,-0.037996381439260825,82.46425505760187,0.8709619299648618,39,1.3
1.162433659277027,0.6438857356277041,-0.09111522138118744,0.9999964833259583,1.0479919496797192,0.7258740958418028,0.1509232521057129,0.9999626278877258,1.0798558933292903,0.7415388152542487,-0.23756368458271027,0.9999978542327881,0.9358194209954107,1.091677322485503,0.12950050830841064,0.99997478723526,0.9752582736491331,1.0968520589342277,-0.12968780100345612,0.999992311000824,1.0347641734005266,1.363785717389724,0.22423677146434784,0.5408685803413391,1.060383351120888,1.3832443219060688,-0.04909367859363556,0.9830988049507141,1.0348538052250595,1.6438857356277041,0.33206233382225037,0.7250680923461914,1.0404192503096745,1.6668506328703696,0.037854842841625214,0.9804946780204773,1.0272324939046678,1.1528290030453858,0.15394653379917145,0.10444789379835129,1.103745097515969,1.167041596248744,-0.28785768151283264,0.9981788396835327,0.008239805698394775,0.9555388473222719,1.0942646907098654,160.03592638336605,159.41972146210787,1.0,-0.047676098120030715,0.02553033670254616,0.07946190073559742,-0.027597335126542024,80.4270161541744,0.8739999021556107,40,1.3333333333333333
1.1810434567267682,0.6637659422512003,-0.11329688876867294,0.9999967813491821,1.0657075875942401,0.7465157039716057,0.152393639087677,0.9999634623527527,1.0967937336323468,0.7629219114511218,-0.2364417314529419,0.9999979138374329,0.9453955905815455,1.11051200849439,0.12931478023529053,0.9999754428863525,0.9824433862651736,1.1186282252768325,-0.12950798869132996,0.9999925494194031,1.0456124409276224,1.3810698497153864,0.22946202754974365,0.557884693145752,1.0733461841915175,1.4004471896772102,-0.05209115892648697,0.9845470190048218,1.0477155067525503,1.6637659422512003,0.34458473324775696,0.7387023568153381,1.054458966960532,1.6871712812626012,0.035844046622514725,0.9821150302886963,1.0398937306558234,1.183489138184042,0.1557864397764206,0.10749976336956024,1.121487637763859,1.190594025194006,-0.28808215260505676,0.9981744885444641,0.008525431156158447,0.9639194884233596,1.1145701168856113,160.10118939681675,158.35374040842723,1.0,-0.024146623284040436,0.05020089214479083,0.17531611461593946,0.17709428103426417,84.06650140251307,0.8814971184811522,41,1.3666666666666667
1.2063920074010213,0.6889884261928538,-0.10596893727779388,0.9999969005584717,1.092049122464422,0.7757260992212095,0.15005220472812653,0.9999635815620422,1.1163014538461857,0.7877747480688011,-0.2323436737060547,0.9999979734420776,0.9579442836460866,1.13633369595351,0.12703005969524384,0.999975323677063,0.990432531736848,1.1493197794928696,-0.12723587453365326,0.9999925494194031,1.0638555058044017,1.4044275357792142,0.23290905356407166,0.5528766512870789,1.0911081881409028,1.4225409297973288,-0.05123326927423477,0.9854782223701477,1.0649569565709114,1.6889884261928538,0.3512226641178131,0.732318639755249,1.0740978780507822,1.7151535396354585,0.03045843169093132,0.9830713272094727,1.0927940774098712,1.1906412147781749,0.15463921427726746,0.11061640083789825,1.1436788397274231,1.2221359174147568,-0.2915688157081604,0.9981822967529297,0.006156265735626221,0.9741884076914673,1.1428267377231898,158.66513705313034,156.44532402960056,1.0,-0.04596192863220402,0.06956655057330219,-0.16032493040089002,0.13865498440732033,91.3879449574028,0.8986051662156574,42,1.4
1.2284027689814563,0.712887595489613,-0.1258743703365326,0.9999969601631165,1.1124611616537392,0.7992224110992013,0.14978568255901337,0.9999635219573975,1.1321286128044399,0.8088573841614649,-0.23691825568675995,0.9999979138374329,0.9737236877632909,1.158103987362155,0.127590149641037,0.9999755024909973,0.990254208071469,1.166096073688751,-0.12780234217643738,0.9999926090240479,1.078387257888275,1.4239835207496796,0.2443886548280716,0.5518493056297302,1.1062677234788987,1.437078478798766,-0.07166488468647003,0.9866132140159607,1.0734530389974783,1.712887595489613,0.3571471571922302,0.7370511293411255,1.0898770572895693,1.738926954045888,-0.000958204735070467,0.9843802452087402,1.1041645304171768,1.2166448517895236,0.14059551060199738,0.11374665796756744,1.1602431344637332,1.2539876164352066,-0.3086155951023102,0.9981386661529541,0.004855751991271973,0.98198894791738,1.162100030525453,157.53443882845158,153.71500599018995,1.0,-0.042222750238893055,0.02557651514821726,0.03246747346417787,-0.33355383835998076,94.66693777249607,0.8948680979595559,43,1.4333333333333333
1.252674159152546,0.7420087415677051,-0.13852255046367645,0.9999971389770508,1.1350983772242353,0.8275180730486695,0.14203117787837982,0.9999639987945557,1.152369896967592,0.8362674003959704,-0.24644145369529724,0.9999979138374329,0.9880062399553237,1.182409577010478,0.1281326711177826,0.9999753832817078,0.9988534978361426,1.1886804505982083,-0.12833677232265472,0.9999925494194031,1.0971189591637103,1.4483861688770017,0.24443218111991882,0.5499769449234009,1.124285526438785,1.4594851038330345,-0.06926755607128143,0.9876043796539307,1.0897032676755325,1.7420087415677052,0.3660855293273926,0.7388943433761597,1.1086977888869654,1.7685850948222255,0.0027841604314744473,0.985558807849884,1.15457122924401,1.2287866121270092,0.14275750517845154,0.1393936574459076,1.1820531146902777,1.2864239105733124,-0.3009277582168579,0.99815833568573,0.004334837198257446,0.9934298688957331,1.1855450138043433,156.24813279497718,152.26029617710273,1.0,-0.04143087073183329,0.0262343640065001,0.011535939996633791,0.0016551920861588797,97.51992388144185,0.8865457889603,44,1.4666666666666666
1.2525834066663857,0.7395870367575396,-0.13918229937553406,0.9999973177909851,1.1306440184903754,0.8318999918472136,0.14148376882076263,0.9999644160270691,1.1510145776382399,0.8385068706135999,-0.24889631569385529,0.9999978542327881,0.9820671119600896,1.1810350820759852,0.12837916612625122,0.9999752044677734,0.9985183901765048,1.1857004210031625,-0.12857691943645477,0.9999924898147583,1.0935586864336315,1.448684333598569,0.2582491338253021,0.5537741780281067,1.1226200677893978,1.4566833096374219,-0.06416138261556625,0.9886293411254883,1.0749447585688605,1.7395870367575397,0.3894050717353821,0.7462106943130493,1.1065042064895458,1.7653036144459688,0.025966495275497437,0.9867608547210693,1.1398899265780955,1.2463912513758577,0.14859068393707275,0.1480930894613266,1.1815222080579066,1.288125832913987,-0.2895984649658203,0.9981828927993774,0.003279745578765869,0.9902927510682972,1.1833677515395737,153.72423394674354,152.40448679177234,1.0,-0.00897443105742065,0.000961697947688808,0.2412209337894823,-0.1879174420608852,82.78002997560648,0.8920589992153697,45,1.5
1.2742275367383553,0.7680193466682892,-0.13786470890045166,0.9999973773956299,1.1494346735353371,0.8512701097974394,0.13968871533870697,0.9999640583992004,1.171326609521501,0.8628541627698326,-0.2506362795829773,0.9999977350234985,0.9960091948618612,1.2000678689278588,0.12782517075538635,0.9999755024909973,1.0082073116515318,1.2048599078514082,-0.12801174819469452,0.9999924898147583,1.1110410527755905,1.471012188362003,0.2299639880657196,0.5508634448051453,1.1401748204082818,1.4793981345433822,-0.06758526712656021,0.9893262386322021,1.0948334748183841,1.7680193466682892,0.34740275144577026,0.7441046237945557,1.1255419088800505,1.7931401170232977,0.024505790323019028,0.9875776767730713,1.1546945764118042,1.2708483567208406,0.1484297811985016,0.15283209085464478,1.1991810368899205,1.3147828182115038,-0.2816656529903412,0.9980199337005615,0.00566256046295166,1.0021082532566965,1.2024638883896335,153.87239870406341,151.6565803796686,1.0,-0.028266795598560282,0.00573074670506292,-0.15204153952233737,0.03773938803777146,87.70418987051332,0.8716236221602841,46,1.5333333333333334
1.290842637146922,0.7922364128837586,-0.13398337364196777,0.9999974966049194,1.1620025840837145,0.8774287768787602,0.15158089995384216,0.9999633431434631,1.1853480270072458,0.8852538052140664,-0.2518254816532135,0.9999975562095642,0.9999378926846032,1.2188011117147781,0.1305624544620514,0.9999759793281555,1.014838405955,1.2255586590025294,-0.13075032830238342,0.9999925494194031,1.1243245983639565,1.4889268577503794,0.26022785902023315,0.5405097007751465,1.155125756212073,1.4965070340081033,-0.0674075186252594,0.9900248646736145,1.107577333013196,1.7922364128837587,0.39431825280189514,0.735782265663147,1.1384913571842283,1.8154606016046384,0.028975123539566994,0.988175630569458,1.1658774144681427,1.3098303298453529,0.16118167340755463,0.15268181264400482,1.212937120321236,1.347121116234365,-0.2818910479545593,0.9975007772445679,0.003781139850616455,1.0073881493198016,1.2221798853586536,152.1146319264504,149.6410551268556,1.0,-0.04890187377318538,0.044200778225167506,-0.1561345698852813,0.2952767146081156,88.99903665878783,0.8683396159073525,47,1.5666666666666667
1.3149516720213754,0.8241136041159922,-0.1492750495672226,0.9999977350234985,1.1833846622842135,0.907474297962708,0.1524081528186798,0.9999620914459229,1.207438226029271,0.9121188889744057,-0.23634929955005646,0.9999972581863403,1.0147645072765992,1.2470118866625628,0.1290864199399948,0.9999760389328003,1.0283689497116066,1.2483329757110206,-0.12929555773735046,0.9999923706054688,1.1445987333264613,1.5159563375172842,0.25982677936553955,0.5208326578140259,1.177702171384749,1.5220771407022613,-0.06278510391712189,0.9901577234268188,1.1233943877696433,1.8241136041159922,0.3889313042163849,0.7122713923454285,1.1593945037824052,1.8478244028826911,0.03143544867634773,0.9881022572517395,1.1831486190024132,1.3509142471079363,0.16427481174468994,0.14411208033561707,1.2344071754144348,1.3914165120562245,-0.27174586057662964,0.9946646690368652,0.0022049248218536377,1.0215667284941028,1.2476724311867917,150.294523673766,148.16984404751727,1.0,-0.02923954569339754,0.028000504504687072,0.15722255360808576,-0.1300742286289103,69.13666293071265,0.8581996350073553,48,1.6
1.3528592048525008,0.8751640135475126,-0.21051912009716034,0.9999978542327881,1.2221299729023904,0.9606326781406155,0.12179936468601227,0.999959409236908,1.241748151172873,0.9643046174481728,-0.2757635712623596,0.9999970197677612,1.0384158688356815,1.2955964123126782,0.12927600741386414,0.9999764561653137,1.0444282559451277,1.2999817798619664,-0.12946221232414246,0.9999925494194031,1.1840695259792031,1.563803434431409,0.25641584396362305,0.519738495349884,1.2150584918119216,1.5678196180490496,-0.08257012069225311,0.9909622073173523,1.1573715964846762,1.8751640135475125,0.4060743749141693,0.7216473817825317,1.193007989724359,1.901399978549341,0.034088946878910065,0.9890782237052917,1.2283485964678775,1.4236426320216988,0.1137521043419838,0.13940241932868958,1.2692650823330565,1.457943011026414,-0.3071579933166504,0.9941030144691467,0.0016937255859375,1.0414220623904045,1.2977890960873222,146.59429758778194,143.718302244752,1.0,-0.07814491497346722,0.10726302788472203,-0.3765558013301902,0.6147325600385796,97.36359814001796,0.8670820879803408,49,1.6333333333333333
1.3778883257221863,0.9101042379748653,-0.20134201645851135,0.9999980330467224,1.2473976726321068,1.0011151820237978,0.12532742321491241,0.9999547004699707,1.2655040034665868,1.0073635994551189,-0.26667913794517517,0.9999966025352478,1.0497557287751405,1.333465437687871,0.12619926035404205,0.9999764561653137,1.0532911336970483,1.3333875975347984,-0.12636306881904602,0.9999924898147583,1.2076018614465032,1.5940510893505517,0.25131407380104065,0.5190572738647461,1.2383761174293124,1.5989259112549814,-0.06426536291837692,0.9915493726730347,1.1809527384488538,1.9101042379748652,0.3989594578742981,0.7292044162750244,1.215200298453108,1.9373115446759344,0.0878194123506546,0.9898959398269653,1.2513351199689957,1.461177552928176,0.1248997300863266,0.13454802334308624,1.2930445345116042,1.4982497490116047,-0.2671264410018921,0.9931997060775757,0.0028277039527893066,1.0515234312360944,1.3334265176113347,143.97550497807237,141.20477579340596,1.0,-0.07600034630379106,0.08129110705393308,0.027866037103949436,-0.2140883858020554,57.99961480941208,0.8788556856065417,50,1.6666666666666667
1.4043350761310696,0.9384683658966989,-0.18764135241508484,0.9999980926513672,1.2717381928521199,1.022726863547187,0.1277690827846527,0.9999536871910095,1.2906574952350063,1.0420427225049853,-0.2650527060031891,0.9999960660934448,1.0627875421446327,1.3657553546222119,0.12735138833522797,0.9999767541885376,1.0690860267785525,1.3732898623667207,-0.1274862438440323,0.9999923706054688,1.2380607785595303,1.6218833394107772,0.2487964630126953,0.5215296149253845,1.262812277386185,1.6381046060217481,-0.06554824858903885,0.992240309715271,1.2024038731545643,1.9384683658966988,0.3999033570289612,0.7377706170082092,1.2369851112924641,1.976685187419503,0.08201269805431366,0.9907315969467163,1.2824847886997701,1.518965521411099,0.12943024933338165,0.13748902082443237,1.3185889706888059,1.5493599067665464,-0.26461586356163025,0.9924594163894653,0.008569031953811646,1.0659367844615926,1.3695226084944663,139.1892935555596,139.45040426002737,1.0,-0.05060781227942458,0.06980211981820686,0.20241544987937746,-0.09867546473235332,108.75894969676008,0.9016002638441091,51,1.7
1.428759205119134,0.968837258977363,-0.18186728656291962,0.9999982118606567,1.2941791360524506,1.0536240453690957,0.12912502884864807,0.999954879283905,1.3124417532757993,1.0763898223939006,-0.2652122378349304,0.9999958276748657,1.0755231726750505,1.3961537572666955,0.12823918461799622,0.9999770522117615,1.0819525854058512,1.4047712981476055,-0.12833990156650543,0.9999923706054688,1.259979326216253,1.6502475233646714,0.24168244004249573,0.5412601828575134,1.2846260920983015,1.6700502130351502,-0.07629609853029251,0.9929872155189514,1.2336472599578565,1.9688372589773628,0.40085330605506897,0.7587671279907227,1.2582900601054914,2.011920724148574,0.07427377998828888,0.9916343688964844,1.3156369044680563,1.5782900929253623,0.13124290108680725,0.1667279750108719,1.3407186703904457,1.6006285278797283,-0.2551097869873047,0.9927454590797424,0.00992286205291748,1.078737879040451,1.4004625277071505,139.29783233622652,138.21502926690317,1.0,-0.04663193236067588,0.049540957735142194,0.036830543485813466,-0.16240083040272182,110.72157739478347,0.9063012700586267,52,1.7333333333333334
1.4378401551030298,0.9882923030777265,-0.15285740792751312,0.999997615814209,1.301950627008209,1.0741905810875505,0.13412292301654816,0.9999558925628662,1.3193264739982555,1.1006567441134818,-0.2682211399078369,0.9999954104423523,1.0825572946850566,1.4210457028597898,0.13116712868213654,0.9999774098396301,1.0856124129366198,1.4285938938364355,-0.13123741745948792,0.9999924302101135,1.2756036837314746,1.6638665788108469,0.24316076934337616,0.5503997802734375,1.2963628311894604,1.6884364782058083,-0.08593593537807465,0.9936677813529968,1.2578126731214692,1.9882923030777264,0.41382351517677307,0.7774645686149597,1.2646684645124502,2.0332705249362224,0.06734393537044525,0.9924525022506714,1.333682271429612,1.6170056927947989,0.12300758063793182,0.19741757214069366,1.3526813570893814,1.636246531530241,-0.2613385319709778,0.9929698705673218,0.011425763368606567,1.0840848538108383,1.4248197983481128,138.37588322113103,135.7041305553566,1.0,-0.03957955726778083,0.08548498614976134,0.05895192600962977,0.2787357190876672,125.65020354300988,0.9178522631280113,53,1.7666666666666666
1.4496622158179553,1.0197650639053524,-0.1758788526058197,0.9999977946281433,1.314334397399961,1.1109984521073604,0.1350303739309311,0.9999563097953796,1.3325095669581895,1.1350940392985924,-0.26722484827041626,0.9999949932098389,1.087726701410984,1.454201485486096,0.13133332133293152,0.9999775886535645,1.0930836370393353,1.4614280229922536,-0.1314031183719635,0.9999923706054688,1.2953552352253384,1.6896919465757916,0.2323911488056183,0.5690403580665588,1.315559809484743,1.714952292301031,-0.0924932137131691,0.9942801594734192,1.2806986728091534,2.0197650639053526,0.40618008375167847,0.7959431409835815,1.2823254501247254,2.0695245357636827,0.06706903874874115,0.9931928515434265,1.3542465374009778,1.6620534207024944,0.12618818879127502,0.22073814272880554,1.3728275598515565,1.6792206895221868,-0.2534500062465668,0.9929791688919067,0.010241121053695679,1.0904051692251597,1.4578147542391748,136.05535095333042,133.37720948694835,1.0,-0.08029786109076939,0.07891663530310347,-0.29956341638863543,-0.05912962901168768,110.0152487730496,0.917949135146136,54,1.8
1.4548292268586303,1.0430342805647137,-0.2058185636997223,0.9999979734420776,1.325527351758538,1.1366550615788817,0.1518394500017166,0.999957799911499,1.3360654977149053,1.1603199210552766,-0.24883408844470978,0.9999940991401672,1.098248130626545,1.4837243442575285,0.13132017850875854,0.9999726414680481,1.0929019941801499,1.4895485858605677,-0.13139298558235168,0.999987006187439,1.3131773643344744,1.702733054483518,0.15972179174423218,0.5598278045654297,1.327916319273099,1.7319046937389402,-0.13364309072494507,0.9943421483039856,1.294089281569443,2.0430342805647137,0.28761425614356995,0.8002269864082336,1.2947475792473464,2.08952352606732,0.026607805863022804,0.9933528900146484,1.458289716567222,1.3145094007160811,0.46788883209228516,0.2842881381511688,1.3850757385856998,1.7165343566719715,-0.25289615988731384,0.9913026690483093,0.00995713472366333,1.0955750624033476,1.486636465059048,132.32817025070094,130.58216008831016,1.0,-0.046849371305957725,0.11188423229808435,0.27291129274152837,0.2562272909350116,170.66971844382792,0.9315066108912745,55,1.8333333333333333
1.4534393907337204,1.0472676199606192,-0.21129930019378662,0.999998152256012,1.323989895244032,1.146696184413429,0.14826087653636932,0.9999561309814453,1.3342715192188168,1.1626094787766554,-0.25773802399635315,0.999993622303009,1.0975011148291403,1.496657215962721,0.13132229447364807,0.9999709725379944,1.0916476496889231,1.5007600994861245,-0.13139842450618744,0.999986469745636,1.3191424910978684,1.706258295567306,0.19175462424755096,0.5605510473251343,1.330565098250107,1.7358880871235336,-0.1181543692946434,0.994799792766571,1.3003950501657144,2.047267619960619,0.33582690358161926,0.809109091758728,1.296068597532521,2.0936264847206836,0.03142402693629265,0.9939239621162415,1.4443106736222446,1.673772781248698,0.15518197417259216,0.29504573345184326,1.3836455150652578,1.7215164969516885,-0.25768083333969116,0.9913808703422546,0.006682038307189941,1.0945743822590317,1.4987086577244229,130.2539723818775,129.03402648715843,1.0,-0.024153747318396663,0.06775087474052031,0.17059303126874223,-0.33204714474277575,157.9381115346737,0.9501922420391453,56,1.8666666666666667
1.4653904839374956,1.074117562867858,-0.1983930915594101,0.999998152256012,1.3256796892109552,1.1765126710258549,0.16274309158325195,0.9999552369117737,1.3461124218882887,1.1924104383174152,-0.2457643300294876,0.9999929070472717,1.1053495891279934,1.5261954413722991,0.13325326144695282,0.9999661445617676,1.1046128208751964,1.5325222697266572,-0.13335825502872467,0.9999831318855286,1.336060900613602,1.7284107087438727,0.19054065644741058,0.5152387619018555,1.347958226304511,1.7589527879277602,-0.14479020237922668,0.9914165139198303,1.321965784580154,2.0741175628678583,0.31521838903427124,0.7654954791069031,1.313076090165647,2.121551226574578,0.00664149597287178,0.9898337125778198,1.155984354103308,1.3725107909866,0.3804229497909546,0.2838582396507263,1.3994530337209565,1.7518546687941174,-0.31326824426651,0.9874303936958313,0.006587564945220947,1.1049812050015948,1.5293588555494781,128.89935292330233,127.44291171226311,1.0,-0.03219613870836539,0.08142364595319526,-0.05907580188101873,0.09770738199625204,154.42781742070625,0.9567094595974908,57,1.9
1.473417589502151,1.0992040498428755,-0.20478792488574982,0.9999982714653015,1.3410973577962302,1.2104320539342026,0.16200211644172668,0.9999541640281677,1.3509562792578396,1.2158429243841524,-0.248226135969162,0.9999920129776001,1.1122500347401567,1.5637491344093022,0.13222827017307281,0.9999645352363586,1.1095171424101715,1.5645456089461511,-0.13233086466789246,0.9999822974205017,1.3530938549396716,1.754024541553743,0.200241357088089,0.5127708315849304,1.3649681424751363,1.7816631402130205,-0.14379571378231049,0.9921214580535889,1.3372122866830565,2.0992040498428755,0.33837223052978516,0.7748437523841858,1.329810375552019,2.148355326692938,0.04238158464431763,0.9907461404800415,1.332450190480935,1.738426138348268,0.16212233901023865,0.298482745885849,1.4147948495423477,1.7825901270368147,-0.24358859658241272,0.9865954518318176,0.0022141337394714355,1.1108835885751642,1.5641473716777268,125.67572533328186,124.88580430176349,1.0,-0.06263819838556804,0.12025850088875158,-0.23351182111776267,0.29392729134275986,139.17981284956983,0.9788937232571483,58,1.9333333333333333
1.4666142913113174,1.1111830590276393,-0.19889990985393524,0.9999983906745911,1.340953479899569,1.2281844004154372,0.16375212371349335,0.9999500513076782,1.3439194682147793,1.2277766793177116,-0.23748338222503662,0.9999899864196777,1.1011146860993264,1.5897637453523084,0.13221870362758636,0.9999602437019348,1.109546767582753,1.5806416068712257,-0.13231898844242096,0.9999800324440002,1.3532146324233554,1.7770331144061016,0.202243834733963,0.5004318356513977,1.369401013866463,1.787441693325635,-0.11231373250484467,0.9926697611808777,1.3410310784310717,2.1111830590276393,0.3581700623035431,0.7789635062217712,1.3343048494113545,2.1563519805088855,0.05466892570257187,0.9915367364883423,1.373001965683328,1.7848585828871417,0.16038551926612854,0.3067755401134491,1.4175759650897213,1.791480762651812,-0.20572440326213837,0.9837875962257385,0.00016629695892333984,1.1053307268410397,1.585202676111767,124.51820483175995,123.07940430275048,1.0,-0.07074223180350349,0.12290584354106203,-0.060876649664713324,0.01737567810319828,9.19218956856914,1.0004415826727673,59,1.9666666666666666
1.4585019459577389,1.121658432973818,-0.11468049138784409,0.9999972581863403,1.330631472144374,1.2438721202829515,0.1912408173084259,0.9999451637268066,1.3336967049554231,1.238213499803508,-0.22920283675193787,0.9999878406524658,1.095283008417726,1.612749384866374,0.1355297863483429,0.9999593496322632,1.1057407752330597,1.5994875433102416,-0.13564859330654144,0.9999792575836182,1.358508482245396,1.7902030658050112,0.21124227344989777,0.476247638463974,1.3750082437185798,1.7934412791580967,-0.10477805137634277,0.9931081533432007,1.3452268337569693,2.1216584329738177,0.3725695013999939,0.7647091150283813,1.3392358969690332,2.164797931510709,0.060494907200336456,0.9920828938484192,1.390810654456989,1.806492727077859,0.17842501401901245,0.2979963421821594,1.4196367834099484,1.805614766464164,-0.2241700142621994,0.98023921251297,0.0022988319396972656,1.1005118918253929,1.6061184640883077,121.69125914026036,120.26300133141734,1.0,-0.06811615318722918,0.10796894980746911,0.021488573380496354,-0.11400733467272427,5.719521026268064,1.0227162131612133,60,2.0
1.422906659276707,1.127930092976875,-0.07240962982177734,0.9999940395355225,1.2961863126823139,1.2610828301344537,0.21827837824821472,0.9999362230300903,1.3040628710066833,1.2461203628681525,-0.202760249376297,0.9999839663505554,1.0791845335010894,1.6390844051232847,0.13585609197616577,0.9999581575393677,1.0915219215538754,1.6207470037169178,-0.1359807550907135,0.9999781847000122,1.3552637284533187,1.8062351390969884,0.20226535201072693,0.44815197587013245,1.3711298369403042,1.796448871963592,-0.115334153175354,0.9933309555053711,1.3446103590183591,2.1279300929768747,0.3525094985961914,0.743857741355896,1.3386225253044854,2.1645717319513698,0.03374987468123436,0.9923983812332153,1.389460928412847,1.8062546558690493,0.2104777842760086,0.2872709035873413,1.411830230790232,1.800029245809562,-0.21629531681537628,0.9733627438545227,0.00607752799987793,1.0853532275274824,1.6299157044201014,119.29585903983107,117.09825547762854,1.0,-0.12021723537978388,0.18434133408118972,-0.40812784825757936,0.5982436263080375,4.0735165224469885,1.049423572671646,61,2.033333333333333
1.399144280942835,1.1276840929057608,-0.12051421403884888,0.9999933242797852,1.2886442185150366,1.2624343674157832,0.19495651125907898,0.9999269247055054,1.278611048569267,1.2547839378663417,-0.21755549311637878,0.9999812245368958,1.0816143572059238,1.656560010563238,0.13436755537986755,0.9999560117721558,1.0839604400576932,1.6411157471500408,-0.1344788819551468,0.9999771118164062,1.353316045146552,1.8198840345909388,0.18919223546981812,0.4455868601799011,1.3685625044493095,1.799802298530685,-0.11257727444171906,0.9936628341674805,1.3429088216161036,2.1276840929057608,0.3444603681564331,0.7444806098937988,1.3376839484750351,2.1524420119801255,0.07565493881702423,0.9927796721458435,1.368707228435228,1.8014240283019705,0.17960922420024872,0.2753308415412903,1.4007399105423946,1.800080016088263,-0.2292403280735016,0.9713956117630005,0.003109872341156006,1.0827873986318084,1.6488378788566393,119.07419113183853,114.1385909823713,1.0,-0.01389780569123007,0.16167371245381604,0.8514114105889744,-0.18054851237526465,19.074889363754302,1.099213398584269,62,2.066666666666667
1.372008507172535,1.1212760466359162,-0.1253339797258377,0.9999779462814331,1.2789046832584314,1.2742579071156548,0.16826903820037842,0.9999122619628906,1.2525766073226314,1.2611444618204444,-0.2543816864490509,0.9999765753746033,1.0821576020242918,1.662350351333943,0.1342659890651703,0.9999541640281677,1.0721745417963469,1.6468669463885823,-0.1343798190355301,0.9999755024909973,1.3470038829145181,1.807590363119404,0.1675795316696167,0.42269471287727356,1.3581509401683156,1.7836360485952856,-0.12512949109077454,0.9934877157211304,1.3386372293346844,2.1212760466359164,0.31982067227363586,0.7256196737289429,1.336657535127911,2.132369294341882,0.04658576846122742,0.992669403553009,1.3628434836710688,1.7923713268220856,0.14445531368255615,0.257280170917511,1.384615587076058,1.7911905874233343,-0.2822719216346741,0.9685167074203491,0.005345463752746582,1.0771660719103193,1.6546086488612628,117.21224670848348,112.0327654626429,1.0,-0.019631022055817092,0.07813609177392757,-0.04351064666872648,-0.6263358592554024,59.69540597855211,1.13000471490901,63,2.1
1.3474119626976262,1.120746687812388,-0.11968053877353668,0.9999704360961914,1.2465652639863618,1.2686995593447488,0.16267803311347961,0.999908983707428,1.2285019293058366,1.2613801340305983,-0.2634729743003845,0.9999752640724182,1.0757248246366364,1.6638200204395968,0.13419118523597717,0.9999542832374573,1.0675072470950766,1.654653707017875,-0.1343047022819519,0.9999753832817078,1.3438241782404183,1.804069337907499,0.1562890112400055,0.4130052924156189,1.3539656158351394,1.7834211200931207,-0.11708525568246841,0.9937954545021057,1.3416524436692183,2.120746687812388,0.3133845329284668,0.7150701880455017,1.3424923369786457,2.129812418710718,0.06745577603578568,0.9929770827293396,1.3468166545068536,1.795436199577071,0.14371363818645477,0.24404416978359222,1.3700833804265677,1.7921965066724737,-0.2818446755409241,0.969041109085083,0.002984166145324707,1.0716160358658566,1.659236863728736,117.22224299385593,112.30757060710229,1.0,-0.04006570010045403,0.036814485429073784,-0.1528314627486001,-0.3088882251170024,65.25862563160132,1.1228044243291482,64,2.1333333333333333
1.326598826456528,1.1186402541608855,-0.14336994290351868,0.9999667406082153,1.2178547540034699,1.2587250226556388,0.13546136021614075,0.9999091029167175,1.2028223204179578,1.2517512704794451,-0.2842296361923218,0.9999755620956421,1.0720124699674485,1.6630600948991747,0.13300327956676483,0.9999557733535767,1.0619379497305899,1.6538989571285716,-0.13309787213802338,0.9999763369560242,1.338669175382944,1.8021260260399083,0.14631608128547668,0.4217541515827179,1.3451926264248186,1.7797313222706481,-0.1104663610458374,0.9941632747650146,1.3428859102995174,2.1186402541608853,0.3065686821937561,0.7154915928840637,1.34340325269905,2.1257641554016526,0.08095239102840424,0.9932997226715088,1.319341572982341,1.7875703303403572,0.11645887792110443,0.22881600260734558,1.3487380723328513,1.7884288675014108,-0.30383244156837463,0.9706639051437378,0.0028458833694458008,1.066975209849019,1.6584795260138732,118.30606741866083,113.65630950686015,1.0,-0.02636016427714891,0.005699109368315513,0.09890074969554975,-0.22489699914670777,67.55278169269998,1.1098557442104542,65,2.1666666666666665
1.317450496808431,1.1142632789145086,-0.14228489995002747,0.9999584555625916,1.2003967587323108,1.2545996805843675,0.1332748532295227,0.9999087452888489,1.196661084096336,1.2525110087465776,-0.2885296642780304,0.9999760389328003,1.0668817385959195,1.6570072578759028,0.13297297060489655,0.9999560117721558,1.0618903682696217,1.6559874834201014,-0.13306966423988342,0.9999767541885376,1.3300105147842152,1.7975622347024904,0.15587255358695984,0.4219091534614563,1.3372463072350418,1.7762165012071922,-0.09817522764205933,0.9944623112678528,1.342904481198856,2.1142632789145086,0.3117915987968445,0.7103902101516724,1.3422720053035269,2.1216942511818475,0.07965952903032303,0.9935216903686523,1.2990804173641235,1.7743237380127124,0.10890708863735199,0.21554018557071686,1.3423441591565317,1.7846325557747462,-0.3403674066066742,0.9723968505859375,0.0008540749549865723,1.0643860534327705,1.6564973706480022,120.44112377546612,114.42101562230155,1.0,-0.003504027675919562,0.010775478466804348,0.18111975701493807,0.04041161128330431,96.80831051656125,1.110467979592782,66,2.2
1.3101187953008469,1.1189182984433328,-0.13369035720825195,0.999959409236908,1.186616747332224,1.2588198549200103,0.13572755455970764,0.9999057650566101,1.1906654060023854,1.255838739155889,-0.2874021530151367,0.9999763369560242,1.0714303044527695,1.6709943300160388,0.1322924792766571,0.9999567866325378,1.0691717812434236,1.6726242314207842,-0.1324293315410614,0.9999775290489197,1.3383802418654644,1.768522188275309,0.16295798122882843,0.43586376309394836,1.3467232611984437,1.7778868646409984,-0.10146355628967285,0.9948769211769104,1.3498737002331604,2.1189182984433326,0.31443002820014954,0.7144981622695923,1.3501286380405764,2.1343092706396454,0.07461751252412796,0.9938844442367554,1.2952725895751254,1.777637497642485,0.13270646333694458,0.20239803194999695,1.3321525173129378,1.791852002958686,-0.3146161437034607,0.9737648963928223,0.0012120604515075684,1.0703010428480966,1.6718092807184115,111.94804451708801,111.3168608452839,1.0,-0.0013103317397509492,0.04209271856766966,0.015999126095889746,0.2258871114323624,141.43030943471152,1.1287263740990319,67,2.2333333333333334
1.2899706632406234,1.1211254761401446,-0.10410304367542267,0.9999538064002991,1.1749248885220067,1.2586084158848938,0.14230476319789886,0.9999082088470459,1.1724251090756328,1.2585854591771977,-0.27765098214149475,0.9999769926071167,1.077567845716797,1.67574621624527,0.13289706408977509,0.9999591708183289,1.073078779253523,1.6863411783221869,-0.13305285573005676,0.9999788999557495,1.344928138514888,1.7631574125995093,0.166627898812294,0.46069952845573425,1.3527207635106664,1.7850519310895556,-0.10226386785507202,0.9953191876411438,1.3548196835226538,2.1211254761401444,0.34212514758110046,0.7240952849388123,1.3538360768929039,2.1440345045203006,0.08586851507425308,0.9943256974220276,1.2806714307230944,1.7823807121273738,0.12307939678430557,0.18811506032943726,1.311770706048997,1.793894531145667,-0.31547945737838745,0.974760115146637,9.298324584960938e-06,1.07532331248516,1.6810436972837286,109.68754242295107,109.62051948276554,1.0,0.007072621516195647,0.021422215244045178,0.06262295999556597,-0.1555189552325193,170.1749779413138,1.1297476418885661,68,2.2666666666666666
1.2662895875584315,1.1144645985713246,-0.11094828695058823,0.9999555945396423,1.143933241998124,1.2437955927713111,0.13627445697784424,0.9999139904975891,1.150674153597556,1.2549262358368538,-0.2774824798107147,0.9999783039093018,1.072961582724438,1.6760062317145024,0.1328069269657135,0.9999623894691467,1.070382688944113,1.6894447158644206,-0.13297048211097717,0.999980628490448,1.3459169363787904,1.759378221275815,0.17724095284938812,0.49037718772888184,1.3512679132593175,1.7823758305028894,-0.11225291341543198,0.9957552552223206,1.3542076229861206,2.1144645985713244,0.35661643743515015,0.7402073740959167,1.3516559079314059,2.1427469273532496,0.08024735748767853,0.9948216676712036,1.2619017659487148,1.7646013846899595,0.11986559629440308,0.17732855677604675,1.2832805515136383,1.7806810533210602,-0.30589908361434937,0.9757103323936462,0.004515886306762695,1.0716721358342756,1.6827254737894615,108.32238463474035,108.36852894348687,1.0,-0.014506498122701902,0.035234919008615126,-0.16902357520160874,0.1085317276515455,178.46190302363553,1.1393892342562277,69,2.3
1.2340726658679801,1.0932084637404371,-0.19596822559833527,0.9999600052833557,1.1193754476185054,1.2304263043813137,0.11860044300556183,0.9999193549156189,1.1224396586527896,1.2461401322432066,-0.27785593271255493,0.9999794363975525,1.0673694231570894,1.6723742817114668,0.13179829716682434,0.9999648928642273,1.0630673940992108,1.6886476281420904,-0.13199131190776825,0.9999819993972778,1.3377287371627942,1.744931078613673,0.1973903477191925,0.5246031284332275,1.3433360418587639,1.767589536477121,-0.12504161894321442,0.9961372017860413,1.3456253663992455,2.093208463740437,0.3677366375923157,0.756928563117981,1.3431513364857357,2.129702157110536,0.051532723009586334,0.9952481985092163,1.2347644714469586,1.7364972706678377,0.10922646522521973,0.17759190499782562,1.246364844946045,1.7641668656082246,-0.3086928427219391,0.9757185578346252,0.006414651870727539,1.0652184086281502,1.6805109549267785,106.32145256315883,105.70145245628717,1.0,0.0008378840128346949,0.06132624954685579,0.11560664482883037,0.19935608293742405,171.90340765914638,1.1901262333262084,70,2.3333333333333335
1.2072421011303094,1.0716163992541077,-0.19128847122192383,0.9999638795852661,1.096105965354122,1.2147608003013175,0.12356400489807129,0.9999226331710815,1.0934739905830322,1.233288705746247,-0.28412261605262756,0.9999807476997375,1.0567104767760065,1.661136609204944,0.13277225196361542,0.9999674558639526,1.0513227852442593,1.6754851867755953,-0.13297320902347565,0.9999833703041077,1.3169015728604327,1.7302512808054853,0.1981894075870514,0.5570569038391113,1.3290424545611392,1.7482584868971183,-0.1270255297422409,0.9964603185653687,1.332182118429613,2.0716163992541077,0.3662397563457489,0.7711097598075867,1.3312461027959113,2.1070986919705543,0.04977262392640114,0.9955500364303589,1.1934357621144094,1.7134310437282652,0.11657003313302994,0.17030242085456848,1.2109587698485007,1.741541580886315,-0.3432092070579529,0.9766783118247986,0.007639467716217041,1.0540166310101329,1.6683108979902697,107.43899555249862,105.03542483196665,1.0,-0.004493071111775397,0.03416074365683549,-0.04012223996009126,-0.20017288995751134,164.46318735549374,1.2214095662248694,71,2.3666666666666667
1.182744299154427,1.0614472392500436,-0.1784311681985855,0.9999674558639526,1.0780429670449114,1.2059365225057668,0.12517783045768738,0.9999266266822815,1.0686911562489756,1.2260944341021875,-0.2766267657279968,0.9999823570251465,1.0483233323039,1.6576548132326445,0.1329101175069809,0.9999699592590332,1.0431300145328357,1.673540864758362,-0.13311970233917236,0.9999847412109375,1.3102530392720124,1.7117538262995444,0.17619355022907257,0.5935319066047668,1.3221278958558702,1.727206394447732,-0.12354826927185059,0.996771514415741,1.3247792613500757,2.0614472392500436,0.33749210834503174,0.7872362732887268,1.326125719668672,2.0943934136981324,0.05241553112864494,0.9958673119544983,1.173848832053443,1.6990689380908097,0.13686588406562805,0.16573859751224518,1.1902362290310504,1.7309981878525738,-0.3281143307685852,0.9785985350608826,0.008356809616088867,1.045726673418368,1.6655978389955033,104.0484804362363,101.51171639444638,1.0,-0.020167122028696204,0.04936902489496978,-0.12260476616421395,0.12022183166683736,165.66108798071602,1.2433237129476624,72,2.4
1.1525947248024853,1.0668593376694202,-0.17196030914783478,0.9999706149101257,1.0513316260962609,1.211395018456141,0.1286597102880478,0.999932050704956,1.0456811385145068,1.2342595835196657,-0.27481403946876526,0.9999839067459106,1.0528025002544352,1.6743958015229048,0.13235872983932495,0.9999723434448242,1.0505101226109697,1.695027127928556,-0.13257275521755219,0.9999860525131226,1.3184090758726403,1.7228382312043347,0.17694610357284546,0.6232707500457764,1.3315447349147451,1.7342386640988139,-0.12717488408088684,0.9970511794090271,1.3283437015966948,2.06685933766942,0.32762396335601807,0.8001766204833984,1.3379821256940145,2.105125663467757,0.05257909744977951,0.9961640238761902,1.150968656048094,1.7058147448474887,0.13220442831516266,0.16392159461975098,1.1720159097624494,1.7434597131766438,-0.30413779616355896,0.9803684949874878,0.009413719177246094,1.0516563114327024,1.6847114647257304,101.99035845825722,98.93732104793288,1.0,-0.010088776137195011,0.058342823356655416,0.07863599373749526,0.06643028294360478,173.477767928266,1.2771738633788112,73,2.433333333333333
1.1381708701263993,1.0587060641853467,-0.17382751405239105,0.9999735355377197,1.0288229207599238,1.2062949693695835,0.1183110922574997,0.9999366998672485,1.0290286226965204,1.2288734597220616,-0.25965529680252075,0.9999852180480957,1.0481400191604073,1.668654830420592,0.12824302911758423,0.9999738335609436,1.0467800367351658,1.6935584589912216,-0.12845782935619354,0.999987006187439,1.3097049510596606,1.7174934000958886,0.19982008635997772,0.6415755748748779,1.3259793329375937,1.7258925835154186,-0.12639404833316803,0.9972364902496338,1.3313592962716199,2.0587060641853467,0.32550081610679626,0.81004399061203,1.3321640852779397,2.096534030480789,0.03661295026540756,0.9963505864143372,1.1253838352008916,1.6958149818472006,0.10080201923847198,0.15465733408927917,1.1521305646554196,1.7361221826258406,-0.30884915590286255,0.9814388155937195,0.009335994720458984,1.0474600279477866,1.6811066447059069,104.20758615960443,97.56199102595761,1.0,0.002519690986140472,0.02889598175620401,0.100198458323552,-0.23282163488700738,174.48180361362756,1.2891326683990045,74,2.466666666666667
1.124529978507208,1.0589375874516402,-0.1736792027950287,0.9999760985374451,1.0162261503662366,1.2102638802281427,0.09902118146419525,0.9999409317970276,1.0207229969547358,1.2304905058496827,-0.2676170766353607,0.9999865889549255,1.0521587633295844,1.6702951767878136,0.12577450275421143,0.999975323677063,1.0507878846344507,1.6917678651194787,-0.12598562240600586,0.9999879598617554,1.3139466966321451,1.7188052058534502,0.1970290094614029,0.6363108158111572,1.3304883580891063,1.7299415975448131,-0.12433457374572754,0.997170090675354,1.337117923698383,2.05893758745164,0.3288879990577698,0.8021157383918762,1.3360579279230353,2.1023128054909197,0.027394428849220276,0.9961814880371094,1.121655161202448,1.6952144061655336,0.10017955303192139,0.14400289952754974,1.144357930591465,1.737396134623947,-0.34212931990623474,0.9829254746437073,0.008335739374160767,1.0514733239820175,1.6810315209536462,104.39519506921067,98.62866512562503,1.0,0.004122191672781141,-0.04480935918317652,0.012580489879822765,-0.5824346350526312,171.8807775520918,1.2760001775037337,75,2.5
1.1103072647356995,1.0583588032292857,-0.1741238236427307,0.9999783039093018,1.0064373932405346,1.2116636596566106,0.07983540743589401,0.9999455809593201,1.0055094683205028,1.2261450458978904,-0.2850326895713806,0.9999878406524658,1.053446638205191,1.6691253651231581,0.12466269731521606,0.9999772906303406,1.0515030517583777,1.6888278389338172,-0.12485869228839874,0.9999889731407166,1.3137921077848191,1.7165981747313943,0.1950055956840515,0.6216744780540466,1.3308823018845215,1.726269743268078,-0.12269803136587143,0.9967297315597534,1.337713027085079,2.058358803229286,0.33033475279808044,0.7912417054176331,1.3361896071251673,2.10134800461062,0.02159578539431095,0.9956985116004944,1.1212197312323224,1.6979583771172515,0.08837368339300156,0.13506826758384705,1.1412106581243664,1.7375351814390134,-0.3473626971244812,0.9841773509979248,0.005966782569885254,1.0524748449817845,1.6789766020284878,104.3378719068709,98.44386769399567,1.0,0.005862496327404918,-0.018032611472254472,0.013038478505667892,0.2007824754766339,168.49900067290307,1.2680166147310998,76,2.533333333333333
1.1084484589747423,1.0575823893479914,-0.16625049710273743,0.9999800324440002,0.9961700612181831,1.212084404460668,0.09131304174661636,0.9999490976333618,1.0027785065341326,1.2201759964058243,-0.286045640707016,0.9999889135360718,1.0513064544226303,1.6688021656382954,0.12524527311325073,0.9999790191650391,1.0507802325246174,1.6888970069657387,-0.12543877959251404,0.9999898672103882,1.3088491910756292,1.7138240147212076,0.2222672998905182,0.6046789884567261,1.3295771171580346,1.7204826039335213,-0.11303095519542694,0.9960840940475464,1.329465846840454,2.057582389347991,0.350665420293808,0.7896087765693665,1.3347938164627904,2.097402278830555,0.030950089916586876,0.9950038194656372,1.1116758762122052,1.697533462199775,0.09528743475675583,0.12613621354103088,1.1383923129840394,1.7348341627909312,-0.35874617099761963,0.9852963089942932,0.0033375322818756104,1.0510433434736237,1.678849586302017,103.34801698755857,97.25656524024788,1.0,-0.002422032765089916,0.012778118533685703,-0.06388118198781244,0.23760937897668707,171.61632962731673,1.2790917915764792,77,2.566666666666667
1.0957908461885912,1.0588723957021355,-0.18697194755077362,0.999981701374054,0.9896143592520668,1.2127333894186654,0.08397118747234344,0.9999516606330872,0.9933274404943855,1.2204770105915697,-0.30902689695358276,0.999989926815033,1.0512366179634056,1.667862316894751,0.12714476883411407,0.9999804496765137,1.051243918356738,1.6885963013316134,-0.12732172012329102,0.9999906420707703,1.3073923132351577,1.7145538979004575,0.2268429547548294,0.585294246673584,1.3301397606092604,1.7180605442580563,-0.12004293501377106,0.9955324530601501,1.3274323988998524,2.0588723957021355,0.3657880127429962,0.7844079732894897,1.3368075495608163,2.0955007097644787,0.029171884059906006,0.9941297173500061,1.1199696043425342,1.699255309283332,0.08443576097488403,0.11667026579380035,1.1331856292696911,1.7328027127972498,-0.3920700252056122,0.9865069389343262,0.0031927824020385742,1.0512402681600717,1.6782293091131821,103.66133535301043,97.04277402886794,1.0,-0.001542980070984073,-0.009481406371490034,0.006605089995749559,-0.16711567604318392,172.30949078010866,1.2726704756770202,78,2.6
1.0842627946857883,1.0593988919100996,-0.20984502136707306,0.9999831914901733,0.980334176045602,1.2127255214178265,0.055502377450466156,0.9999542832374573,0.9837974177430407,1.2204360531866385,-0.3167734742164612,0.9999908208847046,1.051356469457926,1.6655292134993067,0.12623903155326843,0.9999818205833435,1.050975937130422,1.688399459347764,-0.12641401588916779,0.9999913573265076,1.307720700980299,1.7124748326470862,0.21954676508903503,0.5858243703842163,1.33050840781299,1.7165094149046236,-0.13059189915657043,0.9951383471488953,1.3252144912203279,2.0593988919100994,0.3445581793785095,0.784329354763031,1.338538254268015,2.0950434598273864,0.00971254799515009,0.9934877753257751,1.111393340257841,1.6995315296510574,0.05260574817657471,0.1077386662364006,1.1281610473521708,1.7331914028459772,-0.39263027906417847,0.987439751625061,0.0031793713569641113,1.051166203294174,1.6769643364235354,103.263793724971,96.95762756795791,1.0,2.1227446502151518e-05,-0.009068709374581327,0.012415549449651836,0.003270432544874472,170.13253925950093,1.2650312777652282,79,2.6333333333333333
1.069473852037139,1.0563700305492993,-0.23114562034606934,0.9999845623970032,0.9815801074357386,1.2103666377203695,0.0415756031870842,0.9999569058418274,0.9701286611011356,1.218260125726108,-0.3331807851791382,0.9999915957450867,1.060202387665879,1.6504204132516378,0.12612898647785187,0.999983012676239,1.049151619781738,1.6827115357336848,-0.12628768384456635,0.9999920129776001,1.3051703737532045,1.7055200069655632,0.210691899061203,0.5658125281333923,1.3275375869397998,1.709881412440911,-0.1425139605998993,0.9935786128044128,1.3220915602515444,2.0563700305492993,0.33569997549057007,0.7704097628593445,1.3346915604821923,2.0896134400771285,-0.009547672234475613,0.9914534687995911,1.1159424614501057,1.6923831740133752,0.02980245277285576,0.10013200342655182,1.11994629077997,1.7281018667478547,-0.4302959442138672,0.9879948496818542,0.0032637715339660645,1.0546770037238085,1.6665659744926613,105.43751626981556,96.65358958184422,1.0,0.050340775399902234,-0.045605045710444485,0.39601932228671344,-0.28773981664919973,150.97799264271404,1.2456537388636362,80,2.6666666666666665
1.0569072014885683,1.0516456921657091,-0.2235914021730423,0.9999856948852539,0.9743629809089861,1.2078454447696199,0.04383842647075653,0.9999587535858154,0.9585968274903939,1.215299626465496,-0.32472071051597595,0.9999922513961792,1.0572999574944981,1.6409215296181237,0.12533436715602875,0.9999839663505554,1.0455596966878582,1.6750996281019794,-0.12549085915088654,0.9999924898147583,1.2999359618222788,1.6992416335147198,0.219601109623909,0.5568273663520813,1.322476079709372,1.701024539067954,-0.14094969630241394,0.9925704598426819,1.3106230594573163,2.0516456921657094,0.3549392819404602,0.7620500326156616,1.3290558912180706,2.078751311519393,-0.0036853111814707518,0.9898792505264282,1.1036792595975085,1.685364972394392,0.04025471210479736,0.09342515468597412,1.1090736255298295,1.720951451424365,-0.4135650098323822,0.9883279204368591,0.003095090389251709,1.0514298270911782,1.6580105788600514,105.25229463140418,96.34640412875024,1.0,0.00868287562706999,-0.011700608505098336,-0.30768980119153355,0.2502778185931201,150.20101316260713,1.2433744113774643,81,2.7
1.050794751748454,1.0520351927382936,-0.2139330804347992,0.9999866485595703,0.9641856051834867,1.2112468277243875,0.04443606734275818,0.9999604821205139,0.9528541954096647,1.2169323497977533,-0.31663650274276733,0.999992847442627,1.0600069431953993,1.6395466315988627,0.12299637496471405,0.9999848008155823,1.0483261478082084,1.674816771801867,-0.12315914779901505,0.9999929666519165,1.3003384358998384,1.6994643256538147,0.21446183323860168,0.5463424921035767,1.3231416989862719,1.7003224959889942,-0.13706959784030914,0.991166353225708,1.3116586446552294,2.0520351927382934,0.354199081659317,0.75103360414505,1.3294840602686593,2.0775904598915584,-0.0036940034478902817,0.9881503582000732,1.100588879183733,1.6858444616528467,0.04534686729311943,0.08682102710008621,1.1047525705798789,1.7214513504227846,-0.4026428163051605,0.9885107278823853,0.0023598670959472656,1.0541665455018039,1.657181701700365,105.83817359969308,96.26557605782918,1.0,0.017948245520254456,-0.010845387927349216,0.07048389688636504,0.006540085379197048,149.06528965935505,1.2427037580019922,82,2.7333333333333334
1.0440170634277257,1.0529418156604768,-0.22912243008613586,0.999987781047821,0.9559989628214017,1.2139300157416575,0.0380389541387558,0.9999623894691467,0.9479339505810845,1.2200981812578837,-0.32030558586120605,0.9999933242797852,1.0594057121863887,1.6410624698878997,0.12254679203033447,0.9999854564666748,1.0492663427495812,1.6766305378955393,-0.12270864099264145,0.9999933242797852,1.2996813722953728,1.6995138656520254,0.21541400253772736,0.5501998066902161,1.3251031716737556,1.7012636733370359,-0.14058879017829895,0.9907479286193848,1.3132558209061629,2.052941815660477,0.357710063457489,0.7482989430427551,1.3317715286425724,2.0760663276863442,0.003816366195678711,0.9869484901428223,1.0985019265994915,1.6862369447156211,0.024082262068986893,0.0827963724732399,1.1059327162005688,1.724097556880967,-0.41344523429870605,0.9886395931243896,0.0025578737258911133,1.054336027467985,1.6588465038917195,105.8721832557296,96.12244293120327,1.0,-0.006042257807353348,0.0012295131773335127,-0.1841770629420424,0.09271262548871496,150.4795767393895,1.246150200025482,83,2.7666666666666666
1.0430023742835401,1.0586883118581722,-0.2356448918581009,0.999988853931427,0.954774006606545,1.2207710824881612,0.03081439808011055,0.9999645352363586,0.9461233391775716,1.2267905781041155,-0.3233779966831207,0.9999938011169434,1.0649253856991345,1.6492484374075282,0.12237706035375595,0.9999862909317017,1.0549510391184838,1.6864305399762594,-0.122536800801754,0.9999937415122986,1.306589830938612,1.703532289627473,0.21895787119865417,0.5550521612167358,1.3325769521286717,1.710989781483103,-0.13980211317539215,0.9905937314033508,1.3185251997279224,2.0586883118581722,0.3663705885410309,0.7429823279380798,1.3395474040518687,2.0876589500705305,-0.0001584467972861603,0.9862717986106873,1.1060288100740092,1.6953323870499117,0.020607436075806618,0.07863619178533554,1.1102893978271515,1.7346477823315931,-0.42077574133872986,0.9882621169090271,0.002482593059539795,1.0599382124088093,1.667839488691894,104.58468275168349,96.11548500233953,1.0,-0.0014725653472234875,-0.0009006008130569772,0.03646926253224528,-0.016930733028031705,150.56636795138223,1.2525146613775566,84,2.8
1.0319683923123586,1.0616456151874616,-0.25509878993034363,0.9999898672103882,0.9499653986951813,1.2231618427724236,0.027297914028167725,0.9999650120735168,0.9389723738145199,1.230252468663058,-0.32648801803588867,0.9999942183494568,1.0673820787387032,1.6504958458893635,0.12222453206777573,0.999986469745636,1.0568748906270196,1.6887408179166583,-0.12238534539937973,0.9999939203262329,1.3064094990967186,1.7055507845977949,0.2167128324508667,0.5520894527435303,1.3345194225425077,1.7138892575867033,-0.13930603861808777,0.9899842143058777,1.320845357425472,2.0616456151874614,0.36299315094947815,0.7337520718574524,1.3415845733038883,2.0908903398454615,-0.0033498969860374928,0.9847496747970581,1.0978305756264675,1.6846372956760745,-0.0010661081178113818,0.07276643812656403,1.1086187138852048,1.73865542557289,-0.44444146752357483,0.9882016777992249,0.0029198527336120605,1.0621284846828614,1.669618331903011,105.2921279863872,96.24922426379554,1.0,0.00396306984367868,-0.00564804501016726,0.03875272934847868,-0.03382232572127809,149.274163104266,1.248348324619444,85,2.8333333333333335
1.0291117979877473,1.069051783788465,-0.2587732970714569,0.9999907612800598,0.9525066557319213,1.2279557305553965,0.034181300550699234,0.9999645352363586,0.9388602620328454,1.2367727408654239,-0.32192352414131165,0.9999946355819702,1.072513113121433,1.6554668835016604,0.12241075187921524,0.9999861121177673,1.061993772774867,1.6950183942605375,-0.12257237732410431,0.9999939799308777,1.3024486351281408,1.7139385164685228,0.22558346390724182,0.5364476442337036,1.3394567132584854,1.7207938985515627,-0.13980719447135925,0.9894834160804749,1.3259502490396013,2.0690517837884648,0.36497050523757935,0.7165167331695557,1.346914969083286,2.098392511055591,-0.01902743987739086,0.9832122325897217,1.0965910824671412,1.682520206950325,0.0019417142029851675,0.06690408289432526,1.110365708529944,1.7476456828631286,-0.44267311692237854,0.9886236786842346,0.0036167502403259277,1.06725344294815,1.6752426388810988,108.05400850945728,96.43892794311552,1.0,0.007799230458553072,-0.006513988173430325,0.029496289377783175,-0.006516087218230901,149.42615462252655,1.241601160798616,86,2.8666666666666667
1.0257970274862787,1.0740017265471817,-0.26675844192504883,0.9999915957450867,0.9544356025654763,1.2313345221950764,0.02573307231068611,0.9999647736549377,0.9365726647123608,1.2419499245955905,-0.3264150023460388,0.9999949932098389,1.078555857137581,1.6574485810982929,0.12227156013250351,0.9999862909317017,1.0663524567385274,1.6983876065643175,-0.12243135273456573,0.9999942183494568,1.3069866011576214,1.7181810546448322,0.22323234379291534,0.5271227955818176,1.3429168769732058,1.7251433332092558,-0.1493140012025833,0.9892945289611816,1.329261259688882,2.0740017265471815,0.3620140254497528,0.7083314657211304,1.3504505434413243,2.1040958911862977,-0.03317573666572571,0.9826170206069946,1.0997555575741422,1.6796890029754565,-0.01616809517145157,0.06183721870183945,1.111302998249487,1.7537131654576636,-0.45548051595687866,0.989013671875,0.0043430328369140625,1.0724541569380543,1.6779180938313052,108.47078509571652,96.6646843678512,1.0,0.01378123228931158,-0.00995631507193796,0.034313873915143185,-0.01971516254210546,147.1613514303115,1.2350379532760736,87,2.9
1.0278119797269933,1.0797764604751756,-0.26208916306495667,0.999992311000824,0.9584579261483333,1.2350050343581063,0.0255740974098444,0.9999648928642273,0.9356744608152797,1.2456157548819833,-0.3237819969654083,0.9999953508377075,1.0833210371888005,1.6579423938533497,0.12023043632507324,0.9999862909317017,1.0693972240029312,1.7012844771718303,-0.12038834393024445,0.9999943375587463,1.3105741681037328,1.7238225065902464,0.22096845507621765,0.5155984163284302,1.3464620120719408,1.7305410225678324,-0.15091310441493988,0.9889742732048035,1.3331320661438102,2.0797764604751756,0.35687345266342163,0.6975681185722351,1.354457671362479,2.1104652997444546,-0.03575097396969795,0.9817461371421814,1.1059517624928341,1.6721364787309327,-0.020523112267255783,0.057608865201473236,1.1137783924064466,1.7594169962033401,-0.4410516321659088,0.989499568939209,0.004329085350036621,1.0763591305958657,1.67961343551259,109.7929019753181,97.23342217577816,1.0,0.0013814736467058291,-0.004436481479510365,-0.0185910088363107,0.008291784571354682,145.74208640240903,1.2178790797445895,88,2.933333333333333
1.031835010596079,1.088472210708248,-0.24871282279491425,0.9999927282333374,0.9610259909211712,1.2454236327842043,0.03595374897122383,0.9999639391899109,0.9364213971110494,1.2531938214150422,-0.2992808222770691,0.9999956488609314,1.0870392563411075,1.666877577381188,0.11966483294963837,0.9999861717224121,1.07250139642376,1.7104426209899215,-0.11983194202184677,0.9999943971633911,1.31725257232381,1.733016259901722,0.21669773757457733,0.49636808037757874,1.353236285033311,1.7396914848880405,-0.14849244058132172,0.9880378842353821,1.340647287112288,2.088472210708248,0.33785179257392883,0.6804516315460205,1.3628693510556098,2.1216422956729333,-0.03908931091427803,0.9801522493362427,1.1085825485616596,1.6842812726044605,-0.006903896573930979,0.05366505682468414,1.1169007330132494,1.7692196702523446,-0.43529337644577026,0.9898405075073242,0.003153681755065918,1.0797703263824339,1.6886600991855547,109.7945421914946,97.39273633010842,1.0,-0.007893897876445987,0.0009404438407411184,-0.033052021917331115,0.01922791959555958,144.89942106780305,1.2105911927038195,89,2.966666666666667
1.0355980662596156,1.0991342674453177,-0.24995844066143036,0.9999932050704956,0.9646348957918354,1.2550073339768086,0.03190334513783455,0.9999640583992004,0.9394145528264201,1.262533731965508,-0.3025980591773987,0.9999959468841553,1.094975203116794,1.6790114360027943,0.1184692531824112,0.9999861121177673,1.0795189218969015,1.7232558788147536,-0.1186390370130539,0.9999944567680359,1.3298814408847142,1.7458344809433122,0.2131849229335785,0.48630475997924805,1.363299547547599,1.7530170213216132,-0.14826124906539917,0.9875574707984924,1.3526433646911056,2.0991342674453177,0.33813267946243286,0.6658386588096619,1.3735183624624674,2.1350983112433672,-0.028582733124494553,0.9785595536231995,1.115512113693767,1.6986321820687578,-0.015334628522396088,0.051289938390254974,1.124267166414285,1.7833065267917827,-0.43008700013160706,0.9902850389480591,0.0030319690704345703,1.0872470625068478,1.7011336574087739,109.56557797858014,97.51895699383022,1.0,-0.0052415616834085976,-0.0017097862930689472,0.022534874560234473,-0.022083479951556205,143.6561259309827,1.2105341747142295,90,3.0
