nose_x,nose_y,nose_z,nose_visibility,left_shoulder_x,left_shoulder_y,left_shoulder_z,left_shoulder_visibility,right_shoulder_x,right_shoulder_y,right_shoulder_z,right_shoulder_visibility,left_hip_x,left_hip_y,left_hip_z,left_hip_visibility,right_hip_x,right_hip_y,right_hip_z,right_hip_visibility,left_knee_x,left_knee_y,left_knee_z,left_knee_visibility,right_knee_x,right_knee_y,right_knee_z,right_knee_visibility,left_ankle_x,left_ankle_y,left_ankle_z,left_ankle_visibility,right_ankle_x,right_ankle_y,right_ankle_z,right_ankle_visibility,left_wrist_x,left_wrist_y,left_wrist_z,left_wrist_visibility,right_wrist_x,right_wrist_y,right_wrist_z,right_wrist_visibility,trunk_lateral_inclination,center_mass_x,center_mass_y,left_knee_angle,right_knee_angle,person_height,center_mass_velocity_x,center_mass_velocity_y,center_mass_acceleration_x,center_mass_acceleration_y,body_orientation,torso_leg_ratio,frame,timestamp
1.1168628547799087,1.074805943263053,-0.17635400593280792,0.9999969601631165,0.9989111856947823,1.2137706627507339,0.09081028401851654,0.9999544620513916,1.0226170923039626,1.2248370004604934,-0.2679334282875061,0.9999979138374329,1.088579853825284,1.629985825622681,0.12374522536993027,0.9999879002571106,1.080241242798268,1.6571814621879346,-0.12391895055770874,0.9999961256980896,1.2985987143306204,1.737616558734931,0.18402531743049622,0.39747560024261475,1.3257457787150033,1.7369964297272187,-0.1527537703514099,0.9838266372680664,1.310553705462935,2.074805943263053,0.2610090672969818,0.6996563673019409,1.3303118537000111,2.115073151154307,-0.09870747476816177,0.9792875051498413,1.1228863851742046,1.5882115752001753,-0.004764098674058914,0.03196275234222412,1.1824866259762283,1.6103007531442874,-0.3490811288356781,0.9883413314819336,0.004549264907836914,1.084410548311776,1.6435836439053078,119.16485123691218,108.70158213624194,1.0,0.017919718131259595,0.2112099927808442,0.11184584080291206,1.2782666634538158,150.79575589090592,1.118503323813785,0,0.0
1.1196500468368091,1.0678725436261254,-0.2022777795791626,0.9999970197677612,1.0102547278077598,1.2026344795168151,0.07136790454387665,0.9999538064002991,1.023925800288884,1.212732808346891,-0.27725550532341003,0.9999977946281433,1.0792075775520908,1.6399741660601102,0.12436302751302719,0.9999879598617554,1.0689575345063353,1.6675299361697573,-0.12454767525196075,0.9999960660934448,1.2900430572872157,1.7330053231148823,0.18852746486663818,0.38155993819236755,1.3184531838399351,1.740341948706757,-0.14585062861442566,0.9837210774421692,1.2990030610234937,2.0678725436261254,0.26323914527893066,0.6871160864830017,1.323184072731723,2.109405913798505,-0.0789911225438118,0.9794251918792725,1.1137756435763877,1.5746479707665084,-0.06057141348719597,0.029393086209893227,1.1960110188485273,1.5910292141037858,-0.3619822561740875,0.9788135290145874,0.004175662994384766,1.074082556029213,1.6537520511149337,115.34216121486041,107.00360043084524,1.0,-0.030147470202204697,0.1485516045269493,-0.36079705810535057,-0.46208403125359465,150.6363402847568,1.1864953954941497,1,0.03333333333333333
1.111558623732699,1.0571490462799051,-0.20758625864982605,0.9999969601631165,1.0183589564355584,1.1891697389002716,0.08612248301506042,0.999950647354126,1.0174408943025421,1.2019462345663754,-0.26558026671409607,0.9999973177909851,1.0690442737428372,1.6342704806801862,0.12610962986946106,0.999987781047821,1.0538928906554421,1.6595867048599566,-0.1263112723827362,0.9999958872795105,1.2771943221036355,1.7226683615212939,0.1773471236228943,0.3706854283809662,1.3069126720723498,1.7256191632503086,-0.15219679474830627,0.9835550785064697,1.2879441509582783,2.057149046279905,0.21404318511486053,0.6859127283096313,1.3116148648619685,2.0887432436699793,-0.10681939125061035,0.9800786375999451,1.1213038711357979,1.5664887745649494,-0.054792165756225586,0.026977360248565674,1.1751378200589646,1.5795608362267175,-0.36947378516197205,0.9615169763565063,0.00532957911491394,1.0614685821991396,1.6469285927700714,114.85091570417406,105.36855875807218,1.0,-0.025419233174605173,0.059574744561463576,0.034987345114737355,-0.6870228562476743,142.60360294243824,1.2125556654904954,2,0.06666666666666667
1.1114837965912676,1.049763916766656,-0.19468525052070618,0.9999964833259583,1.0120911589444659,1.1862255275490303,0.09790285676717758,0.9999464750289917,1.01609764663658,1.1978247217045772,-0.26620763540267944,0.9999969601631165,1.0508728508700287,1.6378668783048873,0.127760648727417,0.9999877214431763,1.0386206256611912,1.6588625072800527,-0.12795841693878174,0.999995768070221,1.27403571908105,1.718721145263811,0.16702190041542053,0.36921805143356323,1.3030283593505239,1.7188233439466023,-0.15427285432815552,0.9835032224655151,1.2849718333588473,2.049763916766656,0.20708806812763214,0.686355471611023,1.3057657731622554,2.08537253201584,-0.0940534695982933,0.9804033637046814,1.1166582285048519,1.5654547641833099,-0.0342819020152092,0.024789363145828247,1.1786984591517424,1.5767398078550734,-0.35808879137039185,0.9558187127113342,0.004850447177886963,1.04474673826561,1.64836469279247,111.80808543806891,103.20498008950469,1.0,-0.11720281792919644,0.04570214866950759,-0.7632861751167714,-0.11406635355342025,144.82598699979886,1.2332020102298906,3,0.1
1.1028867203320092,1.0364475136010074,-0.19804027676582336,0.9999960064888,1.0070896263872364,1.176046657496779,0.09587983787059784,0.9999393224716187,1.0062462237084808,1.1870263630624243,-0.259733110666275,0.9999963045120239,1.0389922033819041,1.6237233017558304,0.12602560222148895,0.9999852180480957,1.0273258511927976,1.6457043295400817,-0.12621131539344788,0.9999946355819702,1.2628489632448376,1.708537440572748,0.170042484998703,0.361690491437912,1.2911311747245096,1.706060143886376,-0.15073919296264648,0.9825392365455627,1.2738361569320968,2.0364475136010074,0.2226845920085907,0.6824637651443481,1.2938081075588137,2.0650007103119137,-0.060918986797332764,0.979081928730011,1.10649119124924,1.5412217209497792,-0.01829948090016842,0.023157143965363503,1.1714786207416872,1.5610826213201092,-0.3258092999458313,0.9568452835083008,0.004632055759429932,1.033159027287351,1.634713815647956,112.66961315547263,103.31415666089495,1.0,-0.01787075559076199,0.006053642387540468,0.7268948837869057,-0.2902109929083983,147.96687945361182,1.240113544863385,4,0.13333333333333333
1.1049048042994631,1.037242366203732,-0.2027958184480667,0.9999960660934448,1.0077226943300324,1.1768120762493297,0.09924651682376862,0.9999347925186157,1.0071549063492766,1.1870835941587274,-0.26336604356765747,0.9999957084655762,1.030329918756823,1.6261214431317912,0.1268227994441986,0.9999843835830688,1.0216210551904765,1.6501666630958953,-0.12700971961021423,0.999994158744812,1.2648978409420104,1.7043472124615249,0.1702788770198822,0.3612837791442871,1.2922645145310236,1.7085919756073193,-0.14635306596755981,0.9821742177009583,1.272770507663971,2.0372423662037322,0.21863357722759247,0.679895281791687,1.2944908373656532,2.0708050703254557,-0.05826805159449577,0.9786535501480103,1.105622352547123,1.5427926528093874,-0.009772742167115211,0.02152828872203827,1.1728583486363862,1.5651782065861568,-0.3232235610485077,0.9549083113670349,0.004329264163970947,1.0259754869736497,1.6381440531138434,109.79770445164549,102.53398272452434,1.0,-0.06175227115456053,0.014484279888102164,-0.3326000770845432,0.06388156849591832,157.20984038016695,1.238814588312175,5,0.16666666666666666
1.1017131350607232,1.0353379519781525,-0.20381566882133484,0.9999963045120239,1.0115862114503695,1.1741548572735472,0.10693582147359848,0.999934732913971,1.0039381888126797,1.1834277487499734,-0.2561848759651184,0.9999954104423523,1.0273319121756734,1.6245045430438216,0.12678201496601105,0.9999831914901733,1.0204493760907178,1.6446533963518792,-0.1269717961549759,0.9999934434890747,1.260926578051481,1.7072511632559682,0.20445361733436584,0.37569478154182434,1.2892534604916241,1.7032083558313906,-0.12636402249336243,0.9830382466316223,1.2675579730316782,2.0353379519781525,0.2638428509235382,0.6934832334518433,1.293426635545863,2.0601681883513137,-0.015703752636909485,0.979577362537384,1.1181228782633,1.5424090555274395,0.024640513584017754,0.021260563284158707,1.1720823082520029,1.5631963433855147,-0.3119930624961853,0.957244336605072,0.003917396068572998,1.0238906441331956,1.6345789696978505,110.66367885820522,102.95885825528029,1.0,0.002280309062613516,0.0017272298412128934,0.5174615570587562,-0.10305181313895316,159.1381954512206,1.2424047726792122,6,0.2
1.107033049169086,1.0409161349266496,-0.2043195217847824,0.9999964237213135,1.014744791379739,1.1801864654608811,0.10085298120975494,0.9999334216117859,1.0091302095331118,1.1890183943511163,-0.25834447145462036,0.999994695186615,1.0307097186242902,1.632451317401446,0.1265183538198471,0.9999810457229614,1.0261395089834089,1.653101810266427,-0.12670308351516724,0.9999921321868896,1.2669601827601729,1.7105697911829887,0.19917765259742737,0.38224583864212036,1.295690415463742,1.7101513332903673,-0.13169047236442566,0.9835008382797241,1.2725951132030697,2.0409161349266496,0.2608875632286072,0.7012472152709961,1.3009590711737886,2.0714059894497847,-0.02557535469532013,0.9800219535827637,1.1278675302128796,1.5523810800028106,0.014233427122235298,0.021197017282247543,1.1754228378038916,1.5717708107114727,-0.3123457431793213,0.9571952819824219,0.003712385892868042,1.0284246138038495,1.6427765638339364,109.27419816653511,102.78566664303904,1.0,-0.004493760993822105,-0.00032833671657647576,-0.048418189598070656,-0.014729576477174813,165.49918024137924,1.2451266917875794,7,0.23333333333333334
1.1122090791430292,1.0449644352457679,-0.19871786236763,0.9999963045120239,1.0186438336263222,1.1849241943183946,0.09927297383546829,0.9999319911003113,1.0132479590367376,1.1937606276257875,-0.25934600830078125,0.9999935626983643,1.0369192393330116,1.6398171498498706,0.12632954120635986,0.9999783635139465,1.0313526038123606,1.6623291207321067,-0.12650874257087708,0.9999904632568359,1.271150919421981,1.7143721268619188,0.2119283229112625,0.3820659816265106,1.3009910184305782,1.715342595613131,-0.12726357579231262,0.9835010766983032,1.2759282394092455,2.044964435245768,0.27491188049316406,0.7007324695587158,1.3060157602587708,2.078108142563098,-0.010418912395834923,0.9796684384346008,1.1372361969611673,1.5599367664940718,0.010928979143500328,0.02115810476243496,1.177994887991435,1.577893356773397,-0.30353838205337524,0.955264151096344,0.0036997199058532715,1.0341359215726862,1.6510731352909886,108.48396974405355,101.91658685729368,1.0,0.012587400912627299,0.013855293519523675,0.12933024293640516,0.10729024917148558,163.81019535294226,1.2621223978859355,8,0.26666666666666666
1.1149148604104655,1.0478251778543581,-0.20028391480445862,0.9999961256980896,1.0203804074397322,1.187808707281235,0.10130168497562408,0.9999285340309143,1.015751805304695,1.196735286918383,-0.25602468848228455,0.999991774559021,1.0409908177268468,1.6423848933159302,0.12608502805233002,0.9999752640724182,1.0343017526031426,1.6673076964247866,-0.12626636028289795,0.999988317489624,1.2766775114591087,1.718486648345414,0.20237953960895538,0.37955743074417114,1.3043480743059772,1.719269785561416,-0.12933044135570526,0.9828659892082214,1.2795231811898633,2.0478251778543584,0.2714494466781616,0.69474858045578,1.309084291797469,2.0814895164231166,-0.007694473955780268,0.9785097241401672,1.1454987450821994,1.5646390782188089,0.00044642467400990427,0.021099025383591652,1.1813878955560138,1.582659369565264,-0.29972347617149353,0.9504390954971313,0.0037278831005096436,1.0376462851649948,1.6548462948703584,108.38999807315916,101.64081674432343,1.0,0.006510572452257757,-0.0035870802531937297,-0.04664026574774752,-0.13343495013541581,162.3803617148718,1.265472760173842,9,0.3
1.1148223643234054,1.04794744603222,-0.20171716809272766,0.9999962449073792,1.0215119684502643,1.1878386455718533,0.10512179136276245,0.9999259114265442,1.014924453956762,1.1962303192366954,-0.2548777461051941,0.9999904036521912,1.0415614561609732,1.641330559182301,0.12625661492347717,0.9999722838401794,1.034928983979078,1.666433362429759,-0.12643533945083618,0.9999862909317017,1.2765731337421296,1.717588646570913,0.20198886096477509,0.3832957148551941,1.3043210190181012,1.7186766226300163,-0.12942340970039368,0.9828270077705383,1.2784563613559126,2.04794744603222,0.2661966383457184,0.6978378295898438,1.3090464288752244,2.0794996080831356,-0.002508297096937895,0.97792649269104,1.1454172844186072,1.5636730745407037,-0.013061171397566795,0.021220700815320015,1.1815604114299285,1.582438984567096,-0.27896547317504883,0.9480291604995728,0.0035045742988586426,1.0382452200700256,1.65388196080603,108.3041545365322,101.72546340526092,1.0,0.004749482393199346,-0.00709218959742195,-0.013455079809731721,-0.026782496039805037,162.66847066264972,1.264591364867486,10,0.3333333333333333
1.1159751633479154,1.0487127533049463,-0.2084483802318573,0.9999963641166687,1.0244702689085423,1.1887869467906804,0.10563335567712784,0.9999240040779114,1.0157154175982743,1.196974550400501,-0.25532466173171997,0.9999895095825195,1.0424792409049,1.6426226666011638,0.12647423148155212,0.9999698400497437,1.033567725262459,1.6676104133653384,-0.1266464740037918,0.9999847412109375,1.2775399329813695,1.7175317812948785,0.1964775025844574,0.38237494230270386,1.3051229950678584,1.7193860471918097,-0.13283126056194305,0.9825814962387085,1.2794253318084863,2.048712753304946,0.2507040798664093,0.6936497688293457,1.3099768759446988,2.0813720539393725,-0.012587927281856537,0.9770879745483398,1.1510988210616273,1.5651946407945352,-0.017669815570116043,0.021436594426631927,1.1822120432456393,1.5836301910590795,-0.2948441803455353,0.9464489221572876,0.0034172236919403076,1.0380234830836796,1.655116539983251,108.00221306058283,101.56287951643247,1.0,-0.006808356541624628,0.0016143265870886426,-0.09071984040456443,0.06835638135753411,158.09956342723652,1.264103296629465,11,0.36666666666666664
1.1167087106923805,1.0480723501701648,-0.1984114646911621,0.9999961256980896,1.0263935332225353,1.1874104714887552,0.10372479259967804,0.9999193549156189,1.0152827202622612,1.1959840128983859,-0.25103890895843506,0.9999882578849792,1.042501885486861,1.6411595929746274,0.12573212385177612,0.9999675750732422,1.032935216327146,1.6662339990534027,-0.12589982151985168,0.9999834299087524,1.2778191382768391,1.7153932517554582,0.19069425761699677,0.3802889883518219,1.3045029879471572,1.7179037610966825,-0.13332456350326538,0.981936514377594,1.2789338735065259,2.0480723501701648,0.23875054717063904,0.6869949698448181,1.3092406840392181,2.084303671575308,-0.01694335974752903,0.9760767817497253,1.1467775873418604,1.5679236293609555,-0.018674716353416443,0.020653769373893738,1.1817612902268122,1.5832378933473858,-0.2917611300945282,0.9421751499176025,0.0035803020000457764,1.0377185509070035,1.6536967960140152,107.70049197105475,101.51342029883423,1.0,0.002006804709927373,-0.0036062129749822717,0.0642402931628095,-0.038054419188533896,157.08340580193635,1.2575468978839899,12,0.4
1.1181091491880886,1.0482950333501058,-0.20456162095069885,0.9999958276748657,1.0300538200131473,1.1876716428841507,0.10192082822322845,0.999916136264801,1.0163508707660827,1.196322590578796,-0.2523258328437805,0.9999873638153076,1.0431628696231114,1.6411054499500004,0.1256585717201233,0.9999659061431885,1.0334118513386406,1.666437553701697,-0.12582805752754211,0.9999824166297913,1.280196066828271,1.715098063751557,0.18996436893939972,0.3755083978176117,1.304789079613317,1.718018879298536,-0.13341623544692993,0.9812819957733154,1.2808286556003843,2.0482950333501058,0.2548828721046448,0.6751706004142761,1.3096386413375134,2.0842605103639413,-0.01249402854591608,0.974983274936676,1.15161365458069,1.5698125097392046,-0.02299788035452366,0.02068554237484932,1.1817958911139266,1.583583985867473,-0.2967635691165924,0.9405353665351868,0.0036118030548095703,1.038287360480876,1.6537715018258488,107.4451267670503,101.52060516658459,1.0,0.0025756436854654165,-0.0023453690727094282,0.004407606054491593,0.00978379893240653,157.29092734356308,1.2566448766893397,13,0.43333333333333335
1.1170362169378525,1.0454195521869134,-0.194065660238266,0.9999949336051941,1.0327888536271561,1.1862739610168653,0.10168292373418808,0.9999111890792847,1.0143166100992889,1.1935605628450536,-0.24921289086341858,0.9999852776527405,1.0427094029182586,1.6369039505437462,0.12419690936803818,0.999963641166687,1.031127511828728,1.662126463377341,-0.1243552714586258,0.9999807476997375,1.2781193565263143,1.7113868714401472,0.1878027766942978,0.36586639285087585,1.301259352347322,1.7137056852671713,-0.13186389207839966,0.9792153835296631,1.277962822349662,2.0454195521869134,0.24647514522075653,0.659766435623169,1.3065243986075152,2.0792419017065074,-0.012591461651027203,0.9722560048103333,1.1520099258905392,1.5690480229477108,-0.024069365113973618,0.02045571245253086,1.1786344807331213,1.5796617238044899,-0.2646212875843048,0.9328769445419312,0.0030492544174194336,1.0369184573734933,1.6495152069605437,107.53034699393505,101.63520022766693,1.0,0.007996498252773116,-0.0032438831867310112,0.04177612408865608,-0.006958696335893256,154.07479681568864,1.2554377488631219,14,0.4666666666666667
1.1198880490644976,1.045939755086488,-0.18309469521045685,0.9999933242797852,1.0416195792869536,1.1870621728687345,0.10078849643468857,0.9999071359634399,1.015764929540465,1.194110228251687,-0.25097256898880005,0.9999837875366211,1.0439001510287405,1.6361094420785864,0.1232898011803627,0.999963641166687,1.0296946001792509,1.6625801197955665,-0.12343305349349976,0.9999803900718689,1.2789379067888262,1.7070204887368983,0.16714155673980713,0.36248326301574707,1.3004004181808193,1.7140293565899212,-0.13564971089363098,0.9776027202606201,1.277862173467235,2.0459397550864877,0.21853061020374298,0.6479512453079224,1.3069896232133247,2.0816973073963183,-0.02475196309387684,0.9704897403717041,1.1541809852557274,1.5699217040277014,-0.033636171370744705,0.020064597949385643,1.178919787899988,1.5806253147025842,-0.2729385495185852,0.9242492318153381,0.0029480457305908203,1.0367973756039957,1.6493447809370765,106.60674076238062,101.78778130931812,1.0,-0.004558447507708768,-0.007085038201955088,-0.0942225018813922,-0.028807113935858948,151.4886802557876,1.250801808475769,15,0.5
1.1233608128389994,1.0478380883135852,-0.168827623128891,0.9999921321868896,1.0465232226724286,1.1902415246365257,0.11296472698450089,0.9999016523361206,1.0173396524666836,1.1948618471091605,-0.24670705199241638,0.9999821782112122,1.0450959619425666,1.6388852774914215,0.12335442006587982,0.9999632835388184,1.0305586984420514,1.6648889082236333,-0.12349500507116318,0.9999798536300659,1.2796177996450568,1.7071297781730306,0.1698576956987381,0.35967785120010376,1.300978429200187,1.714896307329251,-0.1384018063545227,0.9766887426376343,1.2784494897826375,2.047838088313585,0.21079054474830627,0.645006000995636,1.3079658949369792,2.0858671377371145,-0.045661117881536484,0.9703342914581299,1.1588751647861053,1.575114757453752,-0.004920596722513437,0.01936720311641693,1.1809513145982036,1.5821467247992702,-0.2835487723350525,0.9138669967651367,0.0019307732582092285,1.037827330192309,1.6518870928575276,106.02822088583996,101.55614328953818,1.0,0.00044480610442825495,0.007359376042823588,0.03685210303591094,0.1063503683909141,150.97501139727842,1.2520635077212943,16,0.5333333333333333
1.1244966586993392,1.0486142454447407,-0.174797922372818,0.9999918341636658,1.0472090895128607,1.1896324490840426,0.11135362088680267,0.9998986124992371,1.021074914697402,1.1952055141264981,-0.25355595350265503,0.9999815225601196,1.0519042083946,1.637786637335721,0.12335904687643051,0.9999626278877258,1.0321089574465991,1.6644761150586485,-0.12350038439035416,0.9999793767929077,1.280405579325391,1.7074459217821487,0.17236609756946564,0.35926172137260437,1.300712781336004,1.714365960017335,-0.14043322205543518,0.9762730002403259,1.2791540800146712,2.0486142454447407,0.22276225686073303,0.6443721652030945,1.3073913897246716,2.0863732745003167,-0.039602749049663544,0.9702721834182739,1.165068637806602,1.575564903772452,-0.0069442614912986755,0.019197799265384674,1.1819302950820327,1.5819905313296225,-0.30711981654167175,0.9119018316268921,0.0023293793201446533,1.0420065829205996,1.6511313761971846,106.74381407251555,101.55059339422684,1.0,0.03423489448604091,-0.0033115197981703247,0.2636640405484866,-0.08325325642346999,142.83589423284374,1.2505218975045207,17,0.5666666666666667
1.1323960288252444,1.0506603655174866,-0.17338711023330688,0.9999891519546509,1.0529404053908753,1.1914353177640915,0.11286326497793198,0.999893069267273,1.0271903411699308,1.196861505658797,-0.2566574215888977,0.9999809265136719,1.052733855982586,1.6409161740681038,0.12573567032814026,0.9999624490737915,1.0331140896682887,1.6668448717558784,-0.12586404383182526,0.9999792575836182,1.2820238329315865,1.7096790637721477,0.18473577499389648,0.34311801195144653,1.3023649157588273,1.7165556668861388,-0.1409444510936737,0.9746404886245728,1.2808767804623251,2.0506603655174866,0.24782872200012207,0.6261358261108398,1.3087318922995839,2.0889167715120887,-0.03764336183667183,0.968613862991333,1.1649488010210238,1.5789329313437763,-0.0042549311183393,0.018248384818434715,1.1819075569667266,1.5835335641717525,-0.3099614977836609,0.9054960608482361,0.0022650063037872314,1.0429239728254374,1.653880522911991,106.500977527079,101.4401172900485,1.0,-0.003609599815259315,0.004563073665510324,-0.3007446683717373,0.06253840018233811,142.91220958513023,1.2541633194868174,18,0.6
1.145076769248848,1.0540638316445083,-0.1745413839817047,0.9999886155128479,1.06426051339236,1.1949616893123138,0.11903313547372818,0.9998907446861267,1.0366165517609798,1.2002601427419437,-0.2524601221084595,0.9999811053276062,1.0562865167819209,1.6457246555783283,0.12663958966732025,0.9999619126319885,1.0356583459610598,1.6716872277633201,-0.12676545977592468,0.9999790191650391,1.2858119302887916,1.7139980898900302,0.19159959256649017,0.3282754719257355,1.3061407020774827,1.7215415705996309,-0.14283429086208344,0.9739360213279724,1.2860184518885949,2.0540638316445086,0.2624661326408386,0.6104205250740051,1.3126342453056974,2.0949794556122137,-0.03660118952393532,0.9679107069969177,1.1675429393423002,1.584463073558425,0.01647212728857994,0.018089493736624718,1.185041419969192,1.586779925097967,-0.30910617113113403,0.9066897034645081,0.002205103635787964,1.0459724313714904,1.658705941670824,106.60015770564654,101.43953416311801,1.0,-0.0005294433869587184,-0.0009114321464091974,0.025057866874321322,-0.044491680133239904,142.54508767179183,1.258332742999205,19,0.6333333333333333
1.1607596869073986,1.0567943609191603,-0.16637898981571198,0.9999833106994629,1.0706650110225115,1.196614426329611,0.11524598300457001,0.9998818039894104,1.0430919054352423,1.2001773740788677,-0.25120803713798523,0.9999802708625793,1.056882002559938,1.6473601106232265,0.1263907551765442,0.9999606013298035,1.035579355639181,1.6722983103780018,-0.12651017308235168,0.9999783039093018,1.2856589061807693,1.7158533417385295,0.18768228590488434,0.31384003162384033,1.3059689971991908,1.7212675043412686,-0.1424923539161682,0.9716012477874756,1.2878180124193361,2.0567943609191603,0.2502833306789398,0.5946731567382812,1.3122751855869026,2.0968769502771165,-0.03809307888150215,0.9656930565834045,1.1675451834187744,1.5855118916245237,0.008231667801737785,0.017467370256781578,1.1833320635797142,1.5862256268167383,-0.30769893527030945,0.9041116833686829,0.0014829635620117188,1.0462306790995595,1.6598292105006143,107.02994550780687,101.2272047082491,1.0,0.0026941879525944415,0.009653836082214968,0.024304873240809485,0.0796584270129399,141.24692554699672,1.257353532069332,20,0.6666666666666666
1.1844083722462566,1.078910612251778,-0.16161935031414032,0.9999787211418152,1.0867433068047596,1.2141287859030452,0.11684556305408478,0.9998711347579956,1.0620178446623252,1.2127980286707105,-0.2480401247739792,0.9999792575836182,1.0693201172513234,1.6644301215723958,0.12627914547920227,0.9999583959579468,1.0464485999630904,1.689793725032929,-0.12639781832695007,0.9999771118164062,1.2989212076692418,1.7339875975885624,0.1849658489227295,0.29845598340034485,1.3189104183714093,1.7389862386173958,-0.14308390021324158,0.9689657688140869,1.3035934351817777,2.0789106122517778,0.2493411749601364,0.5716459155082703,1.3255069808869404,2.11915395526442,-0.03986432030797005,0.9625833034515381,1.1878990870043218,1.6029629550319804,0.003899201052263379,0.016997504979372025,1.1956778133651143,1.6027072933815825,-0.292362779378891,0.9007615447044373,0.0005482137203216553,1.0578843586072069,1.6771119233026623,107.63020938361161,101.22847962459817,1.0,0.006254417282398553,0.000834831112410827,0.026624955783387774,-0.0672256028604461,140.17337848074405,1.2380770914372208,21,0.7
1.2108442503000227,1.0997466702008207,-0.16712279617786407,0.9999797344207764,1.107536364045951,1.230651091813694,0.12338928133249283,0.9998696446418762,1.0877080923350402,1.2264862463480897,-0.24552159011363983,0.9999790787696838,1.0810388394165837,1.6826827037682626,0.12700754404067993,0.9999576807022095,1.0580090571473877,1.7088613353602058,-0.12712882459163666,0.9999766945838928,1.313253604222729,1.7504789246809753,0.19394369423389435,0.2822236120700836,1.3335093096287558,1.758726405572261,-0.15128925442695618,0.9687776565551758,1.3191380584504606,2.0997466702008207,0.2742152810096741,0.5499908328056335,1.3395406301911543,2.146806066808384,-0.04376727342605591,0.9620319604873657,1.204967329554597,1.6204619911681257,0.0413406677544117,0.017297975718975067,1.2147226771567847,1.620440487830281,-0.2906184792518616,0.8941249847412109,0.0016970336437225342,1.0695239482819856,1.695772019564234,107.2406458940594,101.14975373221644,1.0,-0.00012936536739667934,0.0013102252706167815,-0.047161300820528475,0.0034073090577722933,142.01613589370726,1.2244478639249314,22,0.7333333333333333
1.2353247842204358,1.1174630940935946,-0.12443369626998901,0.9999807476997375,1.1229586151989004,1.2482101164617359,0.14581075310707092,0.999871015548706,1.1095574094090201,1.2375306341409156,-0.213333398103714,0.9999788403511047,1.0838998919129113,1.7019696574301648,0.12698696553707123,0.9999571442604065,1.0648133082098834,1.727279325390228,-0.12709519267082214,0.9999760985374451,1.3223355544268722,1.7649327837566364,0.20075030624866486,0.2764998972415924,1.344696319831569,1.7742207204143865,-0.1387077420949936,0.9698148369789124,1.3275736550739932,2.1174630940935946,0.25139889121055603,0.5429515242576599,1.3516379685882132,2.1650665538835603,-0.06436502933502197,0.9634031653404236,1.2128957175709598,1.632742141558239,0.10135116428136826,0.018447522073984146,1.2304418352942774,1.6344515904232508,-0.26122328639030457,0.8922695517539978,0.004315018653869629,1.0743566000613973,1.7146244914101965,105.64356827152304,100.5384156795123,1.0,-0.032270423793726036,0.034475375606661945,-0.24597706551782125,0.25373829137871595,147.89902156903042,1.2311017884989386,23,0.7666666666666667
1.2476619213239952,1.1314859379445206,-0.08235867321491241,0.9999778866767883,1.1311981012586279,1.259222048914256,0.15242183208465576,0.9998763799667358,1.1188429678503362,1.2466266305699352,-0.21261553466320038,0.9999793171882629,1.0869561017848177,1.7141124900540685,0.12674590945243835,0.9999579191207886,1.0722804429831858,1.739797419143636,-0.12687231600284576,0.9999765157699585,1.3318317877652468,1.7779269383709262,0.2154598981142044,0.274909645318985,1.3546543987114665,1.789218398574458,-0.12819668650627136,0.9719045162200928,1.3367159468731047,2.131485937944521,0.27308839559555054,0.5537276268005371,1.363601409047508,2.1806193778878864,-0.043861255049705505,0.9661070704460144,1.220525252171016,1.6424459104417772,0.11599807441234589,0.024301012977957726,1.2391928060740822,1.6452419533337528,-0.2419339418411255,0.8996509313583374,0.005052149295806885,1.0796182723840018,1.7269549545988523,105.39782709653308,101.23682821569682,1.0,-0.01997220298669857,-0.00173433675335644,0.09605626182474508,-0.2794214338231589,155.81258104071404,1.2197255521451786,24,0.8
1.311430745246297,1.1840474201255264,-0.0859781950712204,0.9999771118164062,1.1731798764536046,1.302469785511211,0.14663347601890564,0.999876856803894,1.1788033623019751,1.2846639335460222,-0.2079472541809082,0.9999788403511047,1.1134363368973572,1.7646504380329757,0.12577037513256073,0.9999575018882751,1.1020476318497154,1.7888776257036212,-0.12592719495296478,0.9999759793281555,1.3644879130620877,1.8227941652469215,0.2195814847946167,0.2826344966888428,1.3885703971504058,1.8350324326423864,-0.11713658273220062,0.9736217260360718,1.368574494546579,2.1840474201255264,0.26745423674583435,0.5664141774177551,1.4000510270527156,2.235044618207214,-0.04409842938184738,0.9683998823165894,1.2549809638629459,1.6892906401914962,0.11912769079208374,0.026410803198814392,1.2810245622907035,1.6888705428440651,-0.2398272454738617,0.9007508158683777,0.006967663764953613,1.1077419843735363,1.7767640318682985,103.68795650975456,100.79491453777742,1.0,0.008412406865156097,0.05052889042630976,0.22204962651138987,0.40210553033106683,162.1882093613431,1.2202651814640408,25,0.8333333333333334
1.3624925716284513,1.2257740339855183,-0.0681273564696312,0.9999739527702332,1.2211581145775636,1.3465007205481572,0.15277163684368134,0.9998753070831299,1.2240755657599989,1.3198078206889738,-0.2034585177898407,0.9999773502349854,1.1361085025303836,1.802114084254586,0.12493020296096802,0.9999585151672363,1.1249410933630977,1.825081847995559,-0.12510377168655396,0.9999762177467346,1.3899111453376232,1.8566792593032102,0.2127426117658615,0.26923027634620667,1.4145958608632225,1.8724000699579413,-0.11979269981384277,0.9734511971473694,1.392757924088178,2.2257740339855183,0.25121259689331055,0.5506879091262817,1.4275354395064175,2.279853200156442,-0.06470323354005814,0.9684550166130066,1.2807764461676436,1.7248304405268964,0.08105803281068802,0.02562226541340351,1.3125574504741577,1.7258731307141768,-0.197445347905159,0.8776884078979492,0.010243237018585205,1.1305247979467405,1.8135979661250725,102.57526972637451,101.09687196332075,1.0,0.007156185287653763,0.013713638789252578,-0.010909486433643303,-0.2900590082504826,164.6437459786809,1.213692650376635,26,0.8666666666666667
1.4038106367562022,1.2575669690021858,-0.02609344758093357,0.9999291896820068,1.2502324749473408,1.3694388261030712,0.17391809821128845,0.9998745322227478,1.2610243351594386,1.3491586343541448,-0.20655789971351624,0.9999769926071167,1.1492602525939102,1.8283720833565573,0.12587320804595947,0.9999606013298035,1.142854713628338,1.8499233690776358,-0.1260530799627304,0.9999774098396301,1.4058705553041604,1.8861090039050752,0.2108675241470337,0.25584420561790466,1.4337359015320201,1.902041528386191,-0.12221137434244156,0.974585771560669,1.4117254915668198,2.257566969002186,0.2508991062641144,0.5479808449745178,1.4472174016275923,2.3139567472212432,-0.08361171931028366,0.9703572392463684,1.3044203147047921,1.753154589778156,0.1122589111328125,0.024769533425569534,1.3341657715633306,1.7495022217771634,-0.21602049469947815,0.8736446499824524,0.007677316665649414,1.146057483111124,1.8391477262170965,103.5833227401791,102.03264470824116,1.0,0.00045173643952508413,0.005589897591708788,-0.05235845842259439,-0.06397368189571534,175.8550779478558,1.2026398694148157,27,0.9
1.4356146409724166,1.282500737533692,-0.0077307880856096745,0.9998772144317627,1.2717964968561457,1.3778985829728785,0.18298311531543732,0.9998745322227478,1.299070886512714,1.3686752956318995,-0.2004617154598236,0.9999770522117615,1.1562735462950435,1.8468790175104697,0.12625770270824432,0.9999621510505676,1.1591433457678053,1.861211311495973,-0.1264619529247284,0.9999784231185913,1.4113680170234468,1.9167797922847414,0.21563100814819336,0.2509584426879883,1.4482945731439743,1.9216819951978583,-0.10512403398752213,0.9764906167984009,1.4189664633547368,2.282500737533692,0.2646377682685852,0.5598413348197937,1.461169378062435,2.3378955031880784,-0.07597874850034714,0.9727745056152344,1.31681520344675,1.7805798092585554,0.1927853524684906,0.024143606424331665,1.3528190172257168,1.7679503053815024,-0.22835120558738708,0.8782001733779907,0.003455817699432373,1.1577084460314244,1.8540451645032212,106.51423337572547,103.583896775999,1.0,-0.0015223939959274554,-0.029731526421028272,-0.014211768752000966,-0.25409369255010933,154.83917515381626,1.1846357004346835,28,0.9333333333333333
1.4512650180723643,1.2866919437844238,-0.003293221117928624,0.9998652338981628,1.290898893584536,1.3785389901834149,0.19119766354560852,0.9998741745948792,1.3151320217883506,1.3677709949422046,-0.19304075837135315,0.9999752044677734,1.1484619555343463,1.8382001983777803,0.12584266066551208,0.9999643564224243,1.152240399209588,1.8391677367460764,-0.12606212496757507,0.9999793171882629,1.4020369378604451,1.9222346768344372,0.14726482331752777,0.24013690650463104,1.4382899791075594,1.9099319655607572,-0.10324384272098541,0.9743066430091858,1.4094309612594096,2.2866919437844238,0.16603001952171326,0.5375672578811646,1.4511446884926498,2.320403833026817,-0.07391650974750519,0.9704118967056274,1.319180455946329,1.7795111456656763,0.103537417948246,0.023966604843735695,1.3507085451552956,1.764099472241737,-0.12988904118537903,0.8471258878707886,0.0040590763092041016,1.1503511773719672,1.8386839675619282,109.49738517398332,105.68885461725,1.0,-0.002899602776879052,-0.0323280328159192,-0.01072497906791161,-0.021473502943974074,87.14615479813072,1.1585514984944563,29,0.9666666666666667
1.469326540355791,1.2957787399477445,0.016355277970433235,0.9998184442520142,1.3073117193713293,1.382363135921376,0.2157190591096878,0.9998654723167419,1.3326935952783667,1.37012743468305,-0.18635660409927368,0.9999728202819824,1.1479798959630465,1.8388139736738416,0.1285494565963745,0.9999664425849915,1.150759817962189,1.8250467559624715,-0.12878161668777466,0.9999803304672241,1.4007694551093786,1.9274253302776732,0.13677729666233063,0.2332332730293274,1.4335186930638133,1.9078503885034206,-0.10979501903057098,0.9751754403114319,1.408718047722521,2.2957787399477447,0.14179827272891998,0.5278095006942749,1.4484815489707685,2.316159410421453,-0.08612445741891861,0.9712135791778564,1.3228742902083108,1.795449813055143,0.12832942605018616,0.022300556302070618,1.361552585488605,1.7785303002966661,-0.11197832971811295,0.8121218085289001,0.004616260528564453,1.1493698569626176,1.8319303648181564,110.55348029278147,108.42095618424246,1.0,-3.177350780656115e-05,-0.0401586587225119,0.02216426196782385,-0.06078410995927312,7.826546249293187,1.1348609879944833,30,1.0
1.4820953348191197,1.295297517733831,-0.0021449816413223743,0.9998330473899841,1.3144089140908335,1.3734296586766472,0.24379292130470276,0.9998459815979004,1.3545542170940654,1.362545960636067,-0.1548844277858734,0.9999686479568481,1.1347699852361741,1.8246082570849125,0.13182364404201508,0.9999672174453735,1.1434824448394003,1.796374242609467,-0.1320870816707611,0.9999803304672241,1.3660580898555903,1.9348062678866413,0.1493595987558365,0.23692595958709717,1.4207400406867217,1.8904843851383757,-0.10968974977731705,0.9758803248405457,1.3822251060268382,2.295297517733831,0.13682684302330017,0.5273390412330627,1.4325056500628481,2.2975050388216522,-0.1243499293923378,0.9727125763893127,1.3182060541089513,1.7893219297668193,0.2265509068965912,0.021275829523801804,1.351098666867279,1.7771773508493118,-0.14137311279773712,0.7656663656234741,0.004139125347137451,1.1391262150377872,1.8104912498471897,118.04345864609003,110.40463303508231,1.0,-0.008589555946350502,-0.05378883257827704,-0.06712595793663957,-0.1094170658666647,4.561018855421906,1.1150871553042883,31,1.0333333333333334
1.5373305673023219,1.3359032953004069,0.0030178679153323174,0.9998428225517273,1.3652933854623792,1.4059470198675497,0.24494090676307678,0.9998236894607544,1.40404787361366,1.4051015718503153,-0.1711464524269104,0.9999637007713318,1.1525091358812733,1.8546151759355303,0.13646510243415833,0.9999691247940063,1.1700538578153674,1.8190789116731827,-0.1366806924343109,0.9999812245368958,1.3964131492858853,1.96582589962499,0.15900209546089172,0.23781420290470123,1.4467283172424799,1.9248574164206496,-0.1120089516043663,0.9766159653663635,1.4090133248224688,2.335903295300407,0.17232325673103333,0.5267173051834106,1.4567181042048991,2.3399005824622994,-0.09855719655752182,0.9740815162658691,1.3478753690257719,1.8226172504587888,0.253713458776474,0.019621580839157104,1.3853264182558047,1.821170031117849,-0.10446492582559586,0.7066571116447449,0.00031578540802001953,1.1612814968483205,1.8368470438043565,116.46115646070352,112.30171536097953,1.0,0.011172761351486319,-0.050982593435935634,0.15458807498881413,0.0293709685974667,0.9031616279094943,1.099060490877195,32,1.0666666666666667
1.585020290372457,1.371090936341796,-0.02131863683462143,0.9998566508293152,1.408523880456327,1.4209566345936662,0.24950774013996124,0.9997876882553101,1.4493023633324296,1.4394765813095103,-0.17318011820316315,0.9999587535858154,1.1684083937258698,1.8590933512348438,0.1394055187702179,0.9999697208404541,1.1892780753548167,1.8353719098592989,-0.139629065990448,0.9999816417694092,1.4277725311736402,1.9898587749979668,0.15076926350593567,0.22501572966575623,1.4672489831369777,1.9509034264286245,-0.14170606434345245,0.9755580425262451,1.446209049607976,2.371090936341796,0.17989152669906616,0.4974710941314697,1.46470037848307,2.3778667356081766,-0.13001133501529694,0.9731366634368896,1.3649096444225202,1.8440678530621009,0.21754653751850128,0.01785173825919628,1.4122346604735718,1.871049626407832,-0.11894597113132477,0.6424018740653992,0.006827414035797119,1.1788432345403432,1.8472326305470712,119.52487565885522,112.22696436484061,1.0,0.016714285671270666,-0.1027329078347327,0.04006164608355773,-0.37934600196050783,12.616308774719787,1.051138698380642,33,1.1
1.5889140068756715,1.3760777810738845,0.019666757434606552,0.9998528361320496,1.425620044584786,1.4371664107241582,0.27233484387397766,0.9997379183769226,1.4525371952345845,1.446126878686486,-0.15673664212226868,0.999955952167511,1.1677317368818276,1.8561348076743285,0.14117516577243805,0.9999698400497437,1.188093238556426,1.822775960965182,-0.14135760068893433,0.9999819397926331,1.4317953382986288,1.9934441083997128,0.1437889188528061,0.21199116110801697,1.4669824459132068,1.95169609493305,-0.17323502898216248,0.9756577610969543,1.454545322204498,2.3760777810738847,0.1647985279560089,0.4749498963356018,1.4608998349825908,2.380921224810259,-0.1802261769771576,0.9737392067909241,1.3715824234622989,1.8627193290348794,0.253573477268219,0.016302932053804398,1.4145556936182162,1.8838521358609908,-0.14169128239154816,0.5975227952003479,0.0033019185066223145,1.177912487719127,1.8394553843197552,120.87637698903214,113.9974569834042,1.0,-0.011375915080640618,-0.06838491299393376,-0.22481631995297227,0.275174031640647,0.21464495469920433,1.019831662429226,34,1.1333333333333333
1.605539242845297,1.3827487869057198,0.041043270379304886,0.999862790107727,1.430275019831799,1.4369792281225837,0.271442711353302,0.9997262954711914,1.4765636772728148,1.4482943195997415,-0.1373738795518875,0.9999568462371826,1.1661575385358443,1.8406612660724169,0.13903342187404633,0.9999707937240601,1.1890226601269074,1.8049183833049351,-0.13924968242645264,0.9999825954437256,1.4328692991771563,1.9953481664346415,0.12018568813800812,0.20500218868255615,1.4678718379387943,1.9531252503759584,-0.15948377549648285,0.975549578666687,1.4556393284850027,2.38547174431943,0.13228468596935272,0.45566877722740173,1.4631719321894097,2.3827487869057196,-0.13837215304374695,0.9738062024116516,1.3697086000166068,1.8703548228944666,0.25357332825660706,0.015076564624905586,1.4157051015917397,1.8763929805547206,-0.11066780984401703,0.5709699988365173,0.004166781902313232,1.1775900993313757,1.822789824688676,123.453128448065,117.36364132831375,1.0,-0.008427645925334284,-0.135076758277665,0.022297639370241137,-0.5027297588396532,0.5880615481976775,0.9772737276674254,35,1.1666666666666667
1.634724608768724,1.3898814974134381,0.035442840307950974,0.9998709559440613,1.4526491315568335,1.4380908731967774,0.28108397126197815,0.9996989369392395,1.5108870355001227,1.4517604270976607,-0.12837719917297363,0.9999555945396423,1.1696818327638092,1.8251625773922937,0.13806045055389404,0.9999712109565735,1.2021093986422335,1.7949428917280674,-0.13826486468315125,0.9999829530715942,1.4366901165154213,2.011077959220252,0.11468281596899033,0.2028024047613144,1.472365252662217,1.9589962088004145,-0.15652291476726532,0.9754937291145325,1.464129556680317,2.3936261025195438,0.1138405054807663,0.4433203637599945,1.457964473901247,2.3898814974134384,-0.16403602063655853,0.9738370776176453,1.3519057791441162,1.8793914079130738,0.24497847259044647,0.013800229877233505,1.4223369063343814,1.9020827569904708,-0.09983440488576889,0.5285347104072571,0.00501859188079834,1.1858956157030214,1.8100527345601807,128.9518246808564,119.3448010354009,1.0,0.03482171028566943,-0.1343524867504424,0.31831249991051075,0.008340802036009634,10.849913705643287,0.9554206785736408,36,1.2
1.6539744327506594,1.3790169302582578,0.05105327442288399,0.9998797178268433,1.4655925913135643,1.4189520003279095,0.2770494818687439,0.9996953010559082,1.5288035793761783,1.44080299714338,-0.12359483540058136,0.9999538660049438,1.1630330907686086,1.7868960181925158,0.135316401720047,0.9999725818634033,1.2084853329942356,1.7619731301500088,-0.13554900884628296,0.9999836087226868,1.4262778380056655,1.9983701354594943,0.12737378478050232,0.20964263379573822,1.4664493191200538,1.9515494525107497,-0.11515624821186066,0.9764580130577087,1.4485174203472289,2.3816011531049566,0.14263367652893066,0.4513564109802246,1.4513683923112997,2.3790169302582576,-0.09087631106376648,0.9751268029212952,1.334088181158314,1.8677947480923323,0.25018978118896484,0.012893554754555225,1.4294294473597324,1.8811544733972219,-0.04334036260843277,0.49229589104652405,0.008070886135101318,1.185759211881422,1.7744345741712624,132.09743633356246,124.2914225625842,1.0,0.055117548199199444,-0.1945738391162305,0.16139210811805577,-0.4803493264850056,21.832281075257512,0.9271932515571081,37,1.2333333333333334
1.6538377623737797,1.3587620333959929,0.049778904765844345,0.9998756647109985,1.467456245977138,1.3950914365344331,0.27429836988449097,0.9996702075004578,1.5304464273146412,1.4279288674819668,-0.12588360905647278,0.9999518394470215,1.1539350948403715,1.7458152637781825,0.13220122456550598,0.9999727010726929,1.205669660166532,1.7216555380813876,-0.13242338597774506,0.9999836087226868,1.409483845209867,1.9788024763554886,0.11708815395832062,0.2000599354505539,1.458213740497088,1.9378598182146234,-0.12044282257556915,0.9741895794868469,1.4321897421657361,2.3594570367934318,0.1300462931394577,0.4375186860561371,1.440031843792028,2.358762033395993,-0.10481835901737213,0.9745093584060669,1.340553504224725,1.8506336127636214,0.22903403639793396,0.012027657590806484,1.426479837383601,1.8634343117019057,-0.052736103534698486,0.4749513566493988,0.012236356735229492,1.1798023775034518,1.733735400929785,135.76947477900526,128.09350825901245,1.0,0.03418370271464108,-0.1923325320717132,-0.15665206028701423,0.004072247433319319,23.17335516388766,0.8942830425807676,38,1.2666666666666666
1.6498277014065534,1.335401697926049,0.03645239397883415,0.999869704246521,1.4650653790553214,1.3552165905946543,0.26301899552345276,0.9996391534805298,1.5242390237859815,1.4029352380958415,-0.13667161762714386,0.9999448657035828,1.1449151242903792,1.7109909299688668,0.1340753436088562,0.9999708533287048,1.1948838548757001,1.6921656018063393,-0.13426144421100616,0.9999821186065674,1.3919296396984069,1.9488550230180275,0.14658978581428528,0.19494302570819855,1.4474029119523615,1.9189033908147757,-0.1225196123123169,0.9747991561889648,1.4113405961591527,2.335401697926049,0.1827329695224762,0.43669700622558594,1.4280291809852812,2.3375816861976424,-0.10086426883935928,0.9757732152938843,1.3503134386566633,1.830620994101264,0.2208750993013382,0.011324979364871979,1.4213634415238185,1.8446755980394363,-0.09037147462368011,0.4564671814441681,0.017955422401428223,1.1698994895830397,1.701578265887603,136.7936359473538,129.2713946114398,1.0,0.012229382611637144,-0.1238706787793518,-0.1742208137688102,0.5365994341337953,27.373430768211005,0.8847768736567577,39,1.3
1.615902812357711,1.2833898646619455,0.02811318263411522,0.9998725056648254,1.44626759540025,1.3119193978086279,0.2594176232814789,0.9996165633201599,1.4990290148513412,1.348238435232458,-0.1410246044397354,0.9999400973320007,1.126857696443622,1.6541795530065975,0.13381265103816986,0.9999696016311646,1.1723553084099474,1.637214651773345,-0.13397525250911713,0.9999812841415405,1.3625199035098767,1.9039025023492826,0.14451847970485687,0.1864265501499176,1.4219212384836712,1.8776481985603983,-0.13433144986629486,0.9749634265899658,1.3811697005512338,2.2833898646619457,0.17967036366462708,0.42061954736709595,1.3975431057031864,2.2932910688509343,-0.11151809990406036,0.9763134121894836,1.3323660037007257,1.7654483981283242,0.19971421360969543,0.01075106579810381,1.3980012981602938,1.7835745909341911,-0.09994514286518097,0.4376281797885895,0.013965964317321777,1.1496065024267847,1.6456971023899711,139.4728134632913,130.5756258713668,1.0,0.037008720162442985,-0.14805505745969316,0.19174716151672022,-0.20555121172649574,26.52867389907271,0.8609092356756599,40,1.3333333333333333
1.5728625677256596,1.2163586393025327,0.0057311393320560455,0.9998736381530762,1.418444828166951,1.2666490474723404,0.2615424394607544,0.9995575547218323,1.4546445967193682,1.286541830260033,-0.1425144523382187,0.9999319911003113,1.1042713652924045,1.5950638061162183,0.13539138436317444,0.9999669194221497,1.1437788716862607,1.5760614147320045,-0.13552553951740265,0.9999797940254211,1.3367557815615232,1.84244948541367,0.14556317031383514,0.17860986292362213,1.3865400392428422,1.823074141037938,-0.14449110627174377,0.9746593832969666,1.3428521632703312,2.2163586393025327,0.19060197472572327,0.4063281714916229,1.3581828189075427,2.2282752248591984,-0.11457075923681259,0.9766126275062561,1.3059895678516327,1.711736385146357,0.19850437343120575,0.010200897231698036,1.3592590847841952,1.7171886026890242,-0.10717769712209702,0.42814138531684875,0.007878124713897705,1.1240251184893326,1.5855626104241114,137.71271041181814,131.4941441786335,1.0,0.06215112174278646,-0.09880514865226511,0.2093580548166506,0.3589832824983563,20.582896615630382,0.8599340736301551,41,1.3666666666666667
1.5364766248283024,1.1515050373760845,-0.017649564892053604,0.9998756647109985,1.3882474257694555,1.2249891564226683,0.23910096287727356,0.9995300769805908,1.4135119560717273,1.2288476063556701,-0.15043212473392487,0.9999242424964905,1.0832617919107461,1.539818967983767,0.1322624385356903,0.9999638795852661,1.112766773013506,1.5173245468992484,-0.13234108686447144,0.999977707862854,1.3093547094012628,1.7844623504052228,0.12185826152563095,0.1808970719575882,1.351548302062052,1.7697187393459797,-0.14718809723854065,0.9756960272789001,1.3032574581339254,2.1515050373760847,0.16698838770389557,0.4064316749572754,1.3195182564916212,2.1649337527766686,-0.11277742683887482,0.9778909087181091,1.2773129706724626,1.6586119563275152,0.17601284384727478,0.009856153279542923,1.320211806947417,1.656247307376227,-0.09411217272281647,0.42379793524742126,0.0015734434127807617,1.098014282462126,1.5285717574415076,136.30500621261572,131.95412718714053,1.0,0.04848113782033942,-0.0851358958203311,-0.0898266031683329,0.08182526432832335,8.588239461946618,0.8698544254759348,42,1.4
1.5013882593999293,1.0974871830897017,0.004881825298070908,0.9998641610145569,1.3644599745462598,1.1826177841695422,0.24045857787132263,0.9995349645614624,1.3836919904874758,1.17770811499328,-0.14989522099494934,0.9999215006828308,1.0672636302139962,1.4897210465488215,0.13157740235328674,0.9999637603759766,1.095909322209476,1.4652108563161683,-0.13164645433425903,0.9999774098396301,1.2798427274085575,1.7375597430092256,0.11806537210941315,0.18202778697013855,1.3212654980578062,1.7243133855364416,-0.1479227989912033,0.976940929889679,1.2691965169241697,2.0974871830897017,0.16319040954113007,0.41057729721069336,1.288152956367411,2.1122668984057715,-0.11273816972970963,0.979194164276123,1.2517507558919274,1.619116051296882,0.18381808698177338,0.009829129092395306,1.2910835954602624,1.6068103910312117,-0.0895027294754982,0.4261479079723358,0.002051621675491333,1.081586476211736,1.477465951432495,137.6850185360174,134.10618848710652,1.0,0.075928620647397,-0.1073241587028572,0.21590009330590512,-0.18289444982322964,5.387848453642364,0.8610030781885574,43,1.4333333333333333
1.4650655186169212,1.0460948217057895,0.007220965810120106,0.9998658299446106,1.3376527366953594,1.1260225305877594,0.23842814564704895,0.9995566010475159,1.3523442833484003,1.123735574461134,-0.14594601094722748,0.9999222159385681,1.0546032379217691,1.439426326366257,0.12661731243133545,0.9999639391899109,1.0821992634574016,1.4164759243788019,-0.12670157849788666,0.9999774098396301,1.2523349727274071,1.696359463563275,0.10901165008544922,0.18041853606700897,1.2944567517473442,1.6848940192083128,-0.1485019475221634,0.9774792194366455,1.2394086807881468,2.0460948217057893,0.15480974316596985,0.4047272205352783,1.2592206508458588,2.063830997175871,-0.11272028833627701,0.9799964427947998,1.2244088243501172,1.5662783803199118,0.17566722631454468,0.01047394797205925,1.2638475277095509,1.5571110425358787,-0.09855629503726959,0.44195619225502014,0.0009779930114746094,1.0684012506895852,1.4279511253725294,140.30198019698955,136.35157359690095,1.0,0.08921709898757935,-0.12222132126952759,0.1163956341126344,-0.13441508935618227,8.164535337731564,0.8437072999915016,44,1.4666666666666666
1.4635963766651376,1.0332250002392862,-0.00018220288620796055,0.9998660087585449,1.337995785510184,1.1219965240377259,0.23865385353565216,0.9995793700218201,1.3457770970180216,1.1127110383372643,-0.1571623980998993,0.9999218583106995,1.0622656121795455,1.4292420840292863,0.1271308958530426,0.9999642968177795,1.0769695790184937,1.4054881030343023,-0.1271674931049347,0.999977171421051,1.2585175155456303,1.6848901065746291,0.10616882145404816,0.18260642886161804,1.2903113759181484,1.6763036835240248,-0.15496227145195007,0.9785847663879395,1.237210774012653,2.033225000239286,0.15661370754241943,0.40428611636161804,1.255404436075822,2.0538883738647256,-0.11526735126972198,0.9810513854026794,1.2339279053408554,1.5596659924574199,0.17658093571662903,0.012646706774830818,1.2585838221130738,1.5481404406390455,-0.08264952898025513,0.44953685998916626,0.003989845514297485,1.0696175955990195,1.4173650935317943,138.98755845432154,136.48797160315362,1.0,0.04869110864147512,-0.029225323737847288,-0.3096721460496435,0.7136471734742746,10.147681770732918,0.8457108166233048,45,1.5
1.4311144137228964,0.9878816830254827,-0.060519348829984665,0.9998785257339478,1.3138408921406912,1.0794574371369623,0.232357457280159,0.9995979070663452,1.3202419253863784,1.0707596370030432,-0.16265471279621124,0.9999200105667114,1.0483433636556647,1.3915998432166712,0.12744182348251343,0.9999620318412781,1.064630116553162,1.37752949214178,-0.12746842205524445,0.999975323677063,1.2374159603251076,1.6502547729091472,0.11567401885986328,0.19331620633602142,1.267842813825241,1.6445896141932463,-0.15195804834365845,0.979550302028656,1.2182508315504674,1.9878816830254826,0.18431948125362396,0.4103723466396332,1.2326427789845014,2.014877812437055,-0.10303078591823578,0.9820141792297363,1.2181811500710424,1.515787482375485,0.1745016872882843,0.015857547521591187,1.2391390798778397,1.5063751748841818,-0.08488648384809494,0.44665512442588806,0.0038092732429504395,1.0564867401044133,1.3845646676792256,140.5849325631782,137.3013033334756,1.0,0.05639919953142472,-0.04808950092598302,0.06880938892844553,-0.1548509191885205,8.792473399239427,0.8531476069343764,46,1.5333333333333334
1.3954461154843474,0.9351623025018744,-0.049954067915678024,0.9998839497566223,1.2799160643345564,1.0345103316625297,0.23125393688678741,0.9995962381362915,1.2857787797787534,1.02814573737793,-0.17764699459075928,0.9999143481254578,1.033379426913487,1.3483751282265561,0.12966278195381165,0.999959409236908,1.046263131721307,1.3356532469601288,-0.12966333329677582,0.9999734163284302,1.2093323025164888,1.6096436201865967,0.11635655164718628,0.19268639385700226,1.238209700191996,1.6041931694788045,-0.15723338723182678,0.9799808859825134,1.1919132870280629,1.9351623025018743,0.18079349398612976,0.40665990114212036,1.20401099177769,1.9667044742083435,-0.11207987368106842,0.9825460314750671,1.196182213307608,1.4593258920190568,0.1658044159412384,0.01826511137187481,1.2119022144714622,1.458108495377201,-0.09703732281923294,0.45069876313209534,0.0028553307056427,1.0398212793173969,1.3420141875933425,142.9783959324161,139.05439201809696,1.0,0.06235752041483462,-0.07093744238924654,0.053807843604972656,-0.1768506119994313,7.212931198129198,0.8589244939860841,47,1.5666666666666667
1.3636139860125311,0.8870057547730184,-0.07955285906791687,0.9998929500579834,1.2478513225471217,0.983275711050475,0.21727922558784485,0.9995992183685303,1.2574335085494581,0.9898321420509337,-0.18883016705513,0.9999130368232727,1.0224128097793692,1.300173386983519,0.12997844815254211,0.9999570250511169,1.0373164313749559,1.298652512407819,-0.12997551262378693,0.9999722838401794,1.1885603600998242,1.5695058926087784,0.11696018278598785,0.1979745477437973,1.2142252485984963,1.5699889679378418,-0.15580646693706512,0.9805198907852173,1.1677872107139475,1.8870057547730184,0.19328537583351135,0.40750518441200256,1.1784564787488465,1.923562399028804,-0.10210008919239044,0.9829996228218079,1.1706262372709977,1.4045315716709543,0.15059663355350494,0.020277468487620354,1.191955410911807,1.4243409110059513,-0.11720780283212662,0.4639136493206024,0.0030053257942199707,1.0298646205771624,1.299412949695669,144.5867589557577,141.1194315231645,1.0,0.0959569706920366,-0.11086270620445741,0.2755324829524219,-0.32687699794791025,48.74554191722567,0.8521577329007775,48,1.6
1.286866629483854,0.786292215319245,-0.11071719229221344,0.9999033808708191,1.1817009131198115,0.894677837751776,0.21149739623069763,0.9996330142021179,1.1888944708222582,0.9045190405653165,-0.1654299795627594,0.9999151825904846,0.9733119809001908,1.2143889364029947,0.12589240074157715,0.9999498128890991,0.9858589654196152,1.212137665979978,-0.12596610188484192,0.9999623894691467,1.12433541259326,1.4825189719087666,0.09393788874149323,0.21813230216503143,1.1489023995464238,1.481733851038172,-0.1664549708366394,0.9814052581787109,1.1042569398791324,1.7862922153192449,0.14600026607513428,0.43131038546562195,1.1151184553112916,1.8187588889007829,-0.11490801721811295,0.9839472770690918,1.2715377627635664,1.040133690790339,0.5075080394744873,0.09997555613517761,1.134469020946523,1.3280359514241373,-0.10711550712585449,0.4848255217075348,0.004767388105392456,0.979585473159903,1.2132633011914864,146.82817175760678,143.1114478143998,1.0,0.03965062232433045,-0.12626908709720866,-0.39702881007004764,-0.16587860801748464,46.73135349563706,0.8717248457211516,49,1.6333333333333333
1.2553512493652468,0.7477924794657792,-0.13571763038635254,0.9999129176139832,1.1539648207678486,0.8504305968257163,0.19635888934135437,0.9996609687805176,1.162707620577826,0.8655401307284595,-0.16828987002372742,0.9999178051948547,0.9542148214299903,1.1733478779800293,0.12285709381103516,0.999944806098938,0.9722859951714213,1.1779146097131625,-0.12297411262989044,0.9999575018882751,1.099479821409524,1.449834452513478,0.10408668220043182,0.22403524816036224,1.1235361549883716,1.450252083399046,-0.14585886895656586,0.9812828898429871,1.0789039458594347,1.747792479465779,0.1793673187494278,0.44094136357307434,1.08776256028801,1.779345341615804,-0.07613301277160645,0.9842769503593445,1.2548121455585093,1.0229734307781322,0.49472981691360474,0.1556665599346161,1.1178484773989337,1.282521575589264,-0.13198503851890564,0.4972137212753296,0.007480710744857788,0.9632504083007057,1.175631243846596,148.3323713222209,144.74929018255781,1.0,0.03441095037576672,-0.08288516488282184,-0.031630767425786244,0.29329641123341715,72.44210073023233,0.863294060880564,50,1.6666666666666667
1.2333454302345308,0.7174408900790037,-0.12264154851436615,0.9999203085899353,1.134535483143555,0.8249467347080803,0.19355811178684235,0.9996687173843384,1.1439292149885705,0.8322978251542118,-0.20112314820289612,0.9999188780784607,0.9474200937630377,1.1459805111452532,0.12334935367107391,0.999946117401123,0.962721112759994,1.1489302422964653,-0.12344751507043839,0.999959409236908,1.0805315728528464,1.425682958200958,0.13843321800231934,0.22334977984428406,1.106069984742729,1.4280007734745188,-0.14051061868667603,0.98160719871521,1.0585337868110265,1.7174408900790037,0.2304764986038208,0.44657018780708313,1.071457237138111,1.7523923588210417,-0.08309943228960037,0.9850591421127319,1.1625625528547838,1.1165845670018746,0.15057368576526642,0.14792363345623016,1.1055158431269427,1.252429052622943,-0.19266267120838165,0.5226422548294067,0.0036957263946533203,0.9550706032615158,1.1474553767208593,150.23824807431248,146.7215580726835,1.0,0.050671500965975884,-0.08061457441996805,0.1314280024513035,0.007908339121804884,70.6757391530794,0.8570108887854296,51,1.7
1.206308949703048,0.6840043744076421,-0.11219702661037445,0.9999281167984009,1.1133891281130934,0.7946218756955856,0.19449342787265778,0.9996964931488037,1.1185646640904299,0.8023251358033664,-0.18885162472724915,0.9999260902404785,0.9391058601757334,1.1152208443389473,0.12381671369075775,0.9999456405639648,0.9518038258245897,1.120577385467942,-0.12391708791255951,0.9999605417251587,1.0611602896129018,1.391216195045747,0.12895627319812775,0.251796156167984,1.0864211076699943,1.4034986874796966,-0.14109894633293152,0.9831022024154663,1.0426872812199235,1.684004374407642,0.2067927122116089,0.4838115870952606,1.0532696763606924,1.7216316647663454,-0.08573935925960541,0.9863294363021851,1.213254352655575,0.9895067097118815,0.3512772023677826,0.22406251728534698,1.0885736013653893,1.2234911607403787,-0.17565302550792694,0.5694875121116638,0.003941982984542847,0.9454548430001616,1.1178991149034447,152.5331719528827,148.6052413382446,1.0,0.054285131662611556,-0.07144325445435447,0.03418348257198753,0.05887555883746726,84.34279771406162,0.8525392713847955,52,1.7333333333333334
1.1764043140222247,0.6556754097667522,-0.09638521075248718,0.9999333620071411,1.0861279018502905,0.7672621490073246,0.20386187732219696,0.9997114539146423,1.091428431088362,0.7678719776883163,-0.2071801871061325,0.9999319911003113,0.9250887975405818,1.0801405033428606,0.12824802100658417,0.9999468922615051,0.9404423258029387,1.0831836065833462,-0.1283397525548935,0.9999629259109497,1.0314143825775217,1.3620387401333771,0.1281885951757431,0.2506753206253052,1.059431970396812,1.3737386526820523,-0.1401330828666687,0.9839077591896057,1.0207137183702657,1.6556754097667523,0.19854305684566498,0.48985108733177185,1.030711672122094,1.68454557249961,-0.08920670300722122,0.9870316386222839,1.0633081604730383,1.1169987266079673,0.16612888872623444,0.2124079167842865,1.0672373444451086,1.1836461293286966,-0.2608095705509186,0.610771656036377,0.00031894445419311523,0.9327655616717603,1.0816620549631035,157.24762786988245,152.45020066860806,1.0,0.06120778151442067,-0.09647196774309144,0.06435552535376217,-0.21127357331794877,73.97588499176157,0.8237384554917797,53,1.7666666666666666
1.147154869014408,0.6235038219845266,-0.056470852345228195,0.9999373555183411,1.0642667773694712,0.7477558377384446,0.21182361245155334,0.9997321963310242,1.0669624204579677,0.7352122638742145,-0.2033676654100418,0.999937891960144,0.9161008326735677,1.0512966699203308,0.1304151713848114,0.9999497532844543,0.9288085610665463,1.0507231906544783,-0.13049176335334778,0.9999656677246094,1.0112095529219562,1.3275914261944366,0.11993502080440521,0.23945051431655884,1.0326010447111567,1.341947963349624,-0.14038269221782684,0.9842723608016968,1.0009262606458793,1.6235038219845266,0.1774705946445465,0.4776185154914856,1.0108512959994458,1.6507020707048978,-0.10902881622314453,0.9873548150062561,1.0266073371151825,1.1226728246032887,0.18115602433681488,0.20318633317947388,1.0465656894685762,1.1462061474697687,-0.2734381854534149,0.6472983956336975,0.006690680980682373,0.922454696870057,1.0510099302874045,159.01474907710246,156.35447281252522,1.0,0.05773339014796232,-0.07044573234745426,-0.016772995131117453,0.17746258607064438,61.39791547736635,0.8158078215379924,54,1.8
1.1210701134242655,0.5949389566513815,-0.059481631964445114,0.9999425411224365,1.0476490854150038,0.7275286877162588,0.21833868324756622,0.9997504353523254,1.0444644776601946,0.7078317586186145,-0.19767701625823975,0.9999434351921082,0.9126097025385933,1.0322242902143073,0.13130398094654083,0.9999517202377319,0.9186101497168676,1.0296773946989608,-0.13139237463474274,0.9999680519104004,0.9952903517992776,1.3008589512746997,0.11842314153909683,0.22379422187805176,1.0101740744661645,1.3137839628165555,-0.14926716685295105,0.983788788318634,0.9879001597630043,1.5949389566513814,0.17701707780361176,0.45228612422943115,0.993596960593403,1.6222537301828204,-0.13267254829406738,0.9868439435958862,1.0152253659899397,1.1033986647028307,0.186814546585083,0.19160908460617065,1.0326586198005092,1.1138635368287328,-0.2895734906196594,0.6805732846260071,0.010690689086914062,0.9156099261277305,1.030950842456634,161.45309558187245,159.06042391134082,1.0,0.06681980736407601,-0.014191280523213598,0.07427821475245361,0.4054762406110188,43.098505937462264,0.8274415863282399,55,1.8333333333333333
1.1148905638791622,0.5885073889820688,-0.10634280741214752,0.9999467134475708,1.0409308536963504,0.7163928052101033,0.19075335562229156,0.9997656941413879,1.0396124687671067,0.702241495000823,-0.23491446673870087,0.9999483823776245,0.9090188619605918,1.0314393353169993,0.13298504054546356,0.9999538064002991,0.9186106755929806,1.031596395277045,-0.1330491304397583,0.9999704360961914,0.98402593020566,1.2972834423693305,0.1696571558713913,0.2272193431854248,1.0064417551997402,1.309041392846225,-0.12831449508666992,0.9849643707275391,0.9821985222582729,1.588507388982069,0.25597622990608215,0.47049203515052795,0.989659854719537,1.6156864181962058,-0.08675579726696014,0.9878160953521729,1.0109780099649952,1.1026161530044005,0.1587183028459549,0.18170103430747986,1.0310076391733352,1.1093090291430443,-0.31805941462516785,0.711462676525116,0.007711976766586304,0.9138147687767861,1.031517865297022,163.88423424618483,159.30118869091416,1.0,0.01442644929166235,0.035774788183391755,-0.39330995913146893,0.3766018788813685,68.21872710710083,0.8459238029960501,56,1.8666666666666667
1.098175489038264,0.571740397635289,-0.11789146810770035,0.9999501705169678,1.0244225944917174,0.6970063756836885,0.18083277344703674,0.9997820854187012,1.0260668224272778,0.6843576237952823,-0.25919419527053833,0.999953031539917,0.9030556804515817,1.0208256971253815,0.13789506256580353,0.9999563097953796,0.9144168432641181,1.0214306795319912,-0.13792861998081207,0.9999728202819824,0.9725366981548902,1.2903433037145833,0.18864572048187256,0.22850801050662994,0.99233386027676,1.2982232211980989,-0.1293252855539322,0.9861676692962646,0.9716603824371617,1.571740397635289,0.2884010672569275,0.4848257303237915,0.979008127449627,1.5991654012379204,-0.08505290746688843,0.9887608885765076,1.0003004356479175,1.089283156432958,0.1588539034128189,0.1736822873353958,1.0212572555695814,1.0921894953762987,-0.3448818325996399,0.7395806312561035,0.006968706846237183,0.90873626185785,1.0211281883286862,165.36561232922142,161.74270168906736,1.0,0.03831758608249768,0.006318480539019054,0.19071935354002445,-0.23053857427817662,72.50221372579394,0.858233585975966,57,1.9
1.0821021806987245,0.5583646368541303,-0.12055827677249908,0.9999550580978394,1.0140300556705675,0.6848381906529224,0.1910298764705658,0.9998011589050293,1.0128346938118786,0.6673773155845409,-0.23123779892921448,0.9999576210975647,0.9064351529063469,1.0051810097933003,0.1366199254989624,0.9999587535858154,0.9109074624304118,1.0017086251836915,-0.13670262694358826,0.9999750852584839,0.9643240692074184,1.2793340984907806,0.15231767296791077,0.23135556280612946,0.980222253209907,1.2846775075890031,-0.16417106986045837,0.9871928095817566,0.9645174681154601,1.5583646368541302,0.21316485106945038,0.4984623193740845,0.9707082712089845,1.5857447949628327,-0.16754800081253052,0.9896027445793152,0.9959856050285861,1.0699435785770217,0.18178799748420715,0.17624619603157043,1.012112585409806,1.0696139530393556,-0.3541209399700165,0.7653996348381042,0.009702593088150024,0.9086713076683793,1.0034448174884958,168.1165422261017,164.42611037919536,1.0,0.05830706336542279,-0.06817949914216577,0.15423937119815995,-0.5651794590996726,33.607694052231814,0.8355973535023479,58,1.9333333333333333
1.066275344604526,0.5433817491411339,-0.1449022740125656,0.9999591708183289,1.0056587433129889,0.6735583672686368,0.17524053156375885,0.9998159408569336,0.9973936793667328,0.6516522577655254,-0.24084195494651794,0.9999616146087646,0.9112965161078463,0.9949215615421966,0.13523705303668976,0.9999604225158691,0.9074051663615024,0.9896108735326752,-0.13530415296554565,0.9999769330024719,0.9566915200626819,1.2687015654938418,0.1576385200023651,0.2230372130870819,0.9712022253420417,1.2744964257602185,-0.14920566976070404,0.9875605702400208,0.9599279133122167,1.543381749141134,0.25292545557022095,0.4905175566673279,0.9623830165175796,1.5727106989414141,-0.1442415863275528,0.989938497543335,1.007105836673693,1.0474541982403056,0.15808555483818054,0.17073431611061096,1.0066128380831416,1.0538662638172,-0.37831807136535645,0.7884430885314941,0.012278437614440918,0.9093508412346744,0.9922662175374359,171.2605854676002,165.68354011381192,1.0,0.06302561463352728,-0.018806217662319692,0.0386900128629388,0.3615520772223243,52.59557721675923,0.8369703211984696,59,1.9666666666666666
1.0502450190347978,0.5285005804191237,-0.13021023571491241,0.9999630451202393,0.9953926730249423,0.6586237009040212,0.18498913943767548,0.9998292326927185,0.9848288342950805,0.6366805925120667,-0.23847350478172302,0.9999651312828064,0.90792108828059,0.9810575847401387,0.13209812343120575,0.9999623894691467,0.9055604362729297,0.975565302945074,-0.13217470049858093,0.9999787211418152,0.9477664924355903,1.2588649277267585,0.1530880481004715,0.2320203185081482,0.9610471350891275,1.2697717509696476,-0.13329976797103882,0.9883790016174316,0.9513127374082758,1.5285005804191236,0.23779296875,0.5044243335723877,0.9533516834261372,1.5580018834653233,-0.12006485462188721,0.9905834197998047,1.0004989919036273,1.0272652673404163,0.1507720649242401,0.16663557291030884,0.9979708505299616,1.0353902923584821,-0.3209504187107086,0.809044599533081,0.012416183948516846,0.9067407622767598,0.9783114438426064,172.5913460198099,167.79021608227634,1.0,0.04560875149661497,-0.035233323843495014,-0.12874746651105273,-0.1270746106211313,38.4368366357434,0.8330375263292416,60,2.0
1.031980416818736,0.5118992056492079,-0.20764334499835968,0.9999666810035706,0.981641523459067,0.6405258874678139,0.13463807106018066,0.9998428821563721,0.9665952703032746,0.6238095776778341,-0.2687624990940094,0.9999684691429138,0.9058337972524346,0.9657813027578194,0.12910525500774384,0.999962568283081,0.9030369893355864,0.964251477499146,-0.12920670211315155,0.9999800324440002,0.9387142492749804,1.242681134235155,0.15109513700008392,0.23922128975391388,0.948398138040117,1.2568616020063617,-0.11885080486536026,0.9889705777168274,0.9413645701415706,1.511899205649208,0.2339889258146286,0.5196771025657654,0.9414355720499163,1.5416694404502251,-0.08436818420886993,0.9911494255065918,0.9924751009809263,1.0009516445204485,0.11120174825191498,0.17026589810848236,0.9903642277997703,1.0126139946846575,-0.3823377788066864,0.828050434589386,0.009556472301483154,0.9044353932940105,0.9650163901284827,173.79215713637598,169.78760434615072,1.0,0.055168319264425475,-0.025976408496689404,0.0793175112322243,0.07037860581918433,74.44157999463629,0.8361259158145014,61,2.033333333333333
1.0231287739623616,0.5079344727580553,-0.20039787888526917,0.9999699592590332,0.9704946534763513,0.6295317078663683,0.14441952109336853,0.99985671043396,0.9609884389953467,0.6170940558762639,-0.28001755475997925,0.9999715089797974,0.9085021002174368,0.9630277224955085,0.1326829344034195,0.9999637603759766,0.9113047490900757,0.9639810185843823,-0.13279515504837036,0.9999814629554749,0.9381128712976389,1.2384316322791467,0.16851726174354553,0.27150747179985046,0.947098207293402,1.2554688858622547,-0.11433058977127075,0.9899393320083618,0.93943707865952,1.5079344727580553,0.2643331289291382,0.5554806590080261,0.9398995729628994,1.5387003348088262,-0.07293997704982758,0.9919475317001343,0.9932901900941088,0.9952553745969697,0.12793739140033722,0.1877732127904892,0.9929594504685149,1.0019253250703237,-0.3894551694393158,0.8451991081237793,0.007123380899429321,0.9099034246537563,0.9635043705399454,174.14479066457056,171.54345005798453,1.0,0.05442871967450582,0.001859909063372789,-0.004891705113633488,0.21264421856988952,98.25493346067056,0.8373612767957118,62,2.066666666666667
1.010486024918723,0.49901597359353017,-0.21728523075580597,0.999972939491272,0.9537693039292678,0.6216715809278318,0.13750223815441132,0.9998685717582703,0.9538820245789034,0.6130025030614845,-0.2682588994503021,0.999974250793457,0.9052066994191985,0.9556565459823584,0.13216431438922882,0.99996417760849,0.9157193504472565,0.9592571833513258,-0.13230851292610168,0.9999827146530151,0.9366739948902735,1.2307102644169503,0.1669832319021225,0.29907774925231934,0.943074621484473,1.2497537343895369,-0.11486312001943588,0.9907159209251404,0.9350499058243837,1.4990159735935302,0.2572782635688782,0.5857859253883362,0.9357467432227745,1.5298178235383095,-0.07195210456848145,0.9926014542579651,0.9489550547130285,0.99794523102553,0.13352586328983307,0.18649467825889587,0.9930638467164931,0.9939849857752342,-0.3761659264564514,0.8606352210044861,0.004987448453903198,0.9104630249332275,0.9574568646668421,173.12668368200804,173.1216732221983,1.0,0.03598307512828272,-0.01325675371015703,-0.1407795982808574,-0.1168594546148086,100.63356500693016,0.8416305444906529,63,2.1
1.0034755346360738,0.49445727816565793,-0.23546835780143738,0.9999756217002869,0.9436088928910363,0.6181513452000219,0.12176139652729034,0.9998783469200134,0.9461972657117277,0.6092365100493716,-0.2814411520957947,0.9999767541885376,0.908036192814929,0.9520262420626848,0.1317354440689087,0.9999639987945557,0.9176537043213899,0.955173182949888,-0.13189487159252167,0.9999836683273315,0.9341569174560523,1.227154731305938,0.16269680857658386,0.3170897960662842,0.940570175212135,1.246082330186117,-0.11799409240484238,0.9910597205162048,0.9319309065036159,1.494457278165658,0.2503674626350403,0.6065158843994141,0.9347722820536386,1.5240142962032035,-0.07738499343395233,0.9929446578025818,0.9549157397644906,0.9751092816891082,0.10041797161102295,0.18889586627483368,0.9945847089281049,0.9898399267221483,-0.39729851484298706,0.8745327591896057,0.00514557957649231,0.9128449485681595,0.9535997125062864,174.09945910341636,174.30074183425586,1.0,0.044138891802679894,-0.00612517792514365,0.06832381575843004,0.05854163006231065,102.03695132849532,0.8417054795013904,64,2.1333333333333333
0.9996623119637006,0.49605866129507575,-0.2071864902973175,0.9999780654907227,0.9376937927564857,0.6143792784906259,0.14141502976417542,0.9998863339424133,0.9436591152180729,0.6103239216292985,-0.26856130361557007,0.9999789595603943,0.9157079504372143,0.9534363077732686,0.13378965854644775,0.999963104724884,0.9241656017996112,0.9568041969016309,-0.13397803902626038,0.9999843239784241,0.9372403038189856,1.2282482269052775,0.16065235435962677,0.33610478043556213,0.9414753820254161,1.2477078423357038,-0.11967498064041138,0.9913316965103149,0.9327178161469242,1.4960586612950757,0.24592025578022003,0.6265867352485657,0.9397169238960714,1.5248821825302274,-0.08029566705226898,0.9932059645652771,0.9618706025951287,0.9703663891940655,0.1264401227235794,0.1927136778831482,1.0009142638754773,0.9884633675139769,-0.3871387839317322,0.8870383501052856,0.002338886260986328,0.9199367761184127,0.9551202523374497,174.5523977865407,176.23122393601454,1.0,0.04772100306244035,0.005775971222102647,0.026555386832968,0.08912537466967681,108.00265512294831,0.8386269418251199,65,2.1666666666666665
0.9942258702193434,0.4912501635314975,-0.21933451294898987,0.9999802112579346,0.9322261607130901,0.6089887727257276,0.14736047387123108,0.9998905062675476,0.9387960579380507,0.6062322755034453,-0.26431629061698914,0.9999808669090271,0.9175485006093158,0.9509721754376206,0.13392373919487,0.9999614357948303,0.9233753725170253,0.9547715658128004,-0.1341184824705124,0.9999847412109375,0.9342087290280512,1.230256880941859,0.18969516456127167,0.35724833607673645,0.9380943404195266,1.2484747533120923,-0.09015509486198425,0.991417646408081,0.9296170736154419,1.4912501635314974,0.30500006675720215,0.6436128616333008,0.9372121459349932,1.5190440283447728,-0.0250701941549778,0.9932801723480225,0.9603216445654492,0.9584349803916721,0.13077190518379211,0.19091877341270447,0.9983097796471017,0.984134096858032,-0.39307284355163574,0.8982808589935303,0.0015949606895446777,0.9204619365631705,0.9528718706252105,175.57826773259478,176.94420293355458,1.0,0.025601149007625872,0.006216317007673808,-0.1601117621978783,0.0033465770894633637,120.64863081172614,0.8462231152978203,66,2.2
0.9912043056394069,0.4915127638224089,-0.24550509452819824,0.9999821782112122,0.9295213231763981,0.609069381455832,0.12898655235767365,0.999894917011261,0.93781610782231,0.606657195194069,-0.2824593782424927,0.9999825954437256,0.9208307147699338,0.9554281016325412,0.13399487733840942,0.9999586343765259,0.9293630760925333,0.9608401312956274,-0.13418756425380707,0.999984860420227,0.9342676024124438,1.23524345942961,0.1965964138507843,0.3845553994178772,0.938252626633726,1.2524173890467467,-0.08601729571819305,0.9916521310806274,0.9284090604697548,1.4915127638224088,0.30799025297164917,0.6663809418678284,0.9380979854404441,1.518806161745828,-0.015824170783162117,0.99346524477005,0.9609391387484881,0.956140831662604,0.11467549949884415,0.18983013927936554,1.0014376170626622,0.9835139712806269,-0.40689611434936523,0.9084200263023376,0.0013955533504486084,0.9250968954312336,0.9581341164640843,175.94113318719738,178.22045764342712,1.0,0.03295832702945552,0.037506883784111135,0.05368670214275916,0.22843117918000747,120.9494036119311,0.8614354366757664,67,2.2333333333333334
0.989313867131214,0.4935689824794587,-0.2230192869901657,0.9999839067459106,0.9257510522181962,0.6117335617487292,0.13660015165805817,0.9998942613601685,0.9380862882623685,0.609485961681034,-0.28405970335006714,0.999984085559845,0.9217557772642466,0.9609693679252811,0.13505986332893372,0.9999570846557617,0.9357037517239088,0.9669636214679179,-0.13526317477226257,0.9999852180480957,0.9354566776814922,1.2371938145245596,0.19308778643608093,0.40564095973968506,0.9393656056736454,1.2541581555504926,-0.07630708813667297,0.9915784597396851,0.925973264112712,1.4935689824794587,0.2956961393356323,0.6870594024658203,0.9399628130354614,1.520748055607237,0.0003060332383029163,0.993494987487793,0.9555469437843624,0.9632280063739945,0.13999798893928528,0.17662712931632996,1.007026135842959,0.9873833884023032,-0.38693684339523315,0.917525053024292,0.0012986063957214355,0.9287297644940777,0.9639664946965996,175.04199514464776,179.39784594475051,1.0,0.0178336288790811,0.03383267037272241,-0.11258312194168359,-0.027640747143854772,112.60056369004589,0.873111006983441,68,2.2666666666666666
0.9878958496674431,0.49658264150787373,-0.241624116897583,0.9999855160713196,0.9283941914053597,0.6157190428026464,0.11889400333166122,0.9998990893363953,0.9354818469788724,0.6123692345222411,-0.28896990418434143,0.9999855160713196,0.9311064331886025,0.9683629332813742,0.13484883308410645,0.9999554753303528,0.9398716287560269,0.9735936040751332,-0.13505515456199646,0.9999855160713196,0.9379907662426732,1.2395408032738338,0.20631477236747742,0.4184409976005554,0.9409692809339398,1.25633956411249,-0.06712116301059723,0.9913780093193054,0.9277111435108641,1.4965826415078738,0.32595518231391907,0.7015703320503235,0.9398989175944269,1.5240122655059263,0.01501147449016571,0.9934829473495483,0.9763358222338911,0.9645165508355398,0.11351834237575531,0.17176537215709686,1.0121115927430295,0.9902155042982504,-0.39950498938560486,0.9257336258888245,0.001931607723236084,0.9354890309723147,0.9709782686782538,176.25560334351985,179.5484605414269,1.0,0.03787387128706251,0.03928046842100204,0.15401600066073937,0.04142608086406321,121.26749708639991,0.8849633207569817,69,2.3
0.9867451766526446,0.4991923042600826,-0.24439644813537598,0.9999869465827942,0.9311279436844964,0.618968965310907,0.11735217273235321,0.9999015927314758,0.9339418347261133,0.6149377333047055,-0.2869884967803955,0.9999867677688599,0.9385776480090539,0.9764924513265486,0.13362795114517212,0.9999518394470215,0.9437032342406677,0.9797530492532903,-0.13385120034217834,0.9999852776527405,0.9424171532131114,1.2427049090550333,0.20645788311958313,0.42414146661758423,0.941921272337156,1.2599946912794742,-0.0619041733443737,0.9902764558792114,0.9291533232611197,1.4991923042600825,0.32598963379859924,0.7104531526565552,0.9397782180546603,1.5263381071098552,0.03397315740585327,0.9927167892456055,0.9943395042723399,0.9557799522919117,0.10832055658102036,0.1662508100271225,1.0172086192585226,0.9923060821083488,-0.40021538734436035,0.933120846748352,0.002321004867553711,0.9411404411248607,0.9781227502899195,176.21337549751436,179.90331583150322,1.0,0.032129457504144865,0.043067337697041755,-0.044100595009231684,0.028328768433209712,123.6558283292232,0.8997747551307496,70,2.3333333333333335
0.9876492696066327,0.5020375575714717,-0.25327444076538086,0.9999882578849792,0.9287479179920055,0.6219723760731027,0.10331571102142334,0.9999063014984131,0.9369945742978053,0.6167440929202231,-0.30350232124328613,0.9999879598617554,0.9405453145725042,0.9859211783197356,0.13388973474502563,0.999950110912323,0.9530759225681414,0.9910453545856697,-0.13411004841327667,0.9999855756759644,0.9461371933634403,1.2470059928408093,0.25931018590927124,0.43571507930755615,0.9460903815927398,1.2659383959173494,-0.027257736772298813,0.9902827739715576,0.9316088333707516,1.5020375575714717,0.4073440432548523,0.7222576141357422,0.94220770330762,1.5303433171111345,0.09320401400327682,0.9925411343574524,0.9938264512245741,0.961722918119155,0.11516045033931732,0.1562877744436264,1.0234059891456893,0.9961114053713549,-0.39196157455444336,0.9397658109664917,0.003002345561981201,0.9468106185703229,0.9884832664527026,175.51259487464574,179.38562613539546,1.0,0.02463569192640515,0.059957984724419,-0.058272775608677094,0.12901713440234108,114.09785361407803,0.9248868691845717,71,2.3666666666666667
0.9881903992152087,0.5036011699943695,-0.24364788830280304,0.99998939037323,0.928680380351071,0.6231371677143336,0.1163925975561142,0.9999117255210876,0.9377389913896838,0.6185925309906005,-0.2926310896873474,0.9999890327453613,0.9445914680963873,0.987401595754909,0.13438346982002258,0.9999489784240723,0.9564231042394055,0.9911055108040296,-0.13460353016853333,0.9999857544898987,0.9484594010477813,1.2490742810886424,0.22886867821216583,0.44135209918022156,0.9480216042135763,1.2672981459844561,-0.05059779807925224,0.9902094006538391,0.9343080237495428,1.5036011699943697,0.347197949886322,0.7349791526794434,0.943509344914785,1.531360524341743,0.03510298579931259,0.9925258755683899,0.9939018185510899,0.9659288667454327,0.129897803068161,0.1580193191766739,1.0275118723287975,0.9982601421634003,-0.3888736367225647,0.9457547068595886,0.002606123685836792,0.9505072861678964,0.9892535532794694,175.97084267918646,179.23662435518384,1.0,0.018599048856970987,-0.004771543396450667,-0.04753942885289743,-0.5075225153732985,109.88391594466766,0.9219386645159351,72,2.4
