nose_x,nose_y,nose_z,nose_visibility,left_shoulder_x,left_shoulder_y,left_shoulder_z,left_shoulder_visibility,right_shoulder_x,right_shoulder_y,right_shoulder_z,right_shoulder_visibility,left_hip_x,left_hip_y,left_hip_z,left_hip_visibility,right_hip_x,right_hip_y,right_hip_z,right_hip_visibility,left_knee_x,left_knee_y,left_knee_z,left_knee_visibility,right_knee_x,right_knee_y,right_knee_z,right_knee_visibility,left_ankle_x,left_ankle_y,left_ankle_z,left_ankle_visibility,right_ankle_x,right_ankle_y,right_ankle_z,right_ankle_visibility,left_wrist_x,left_wrist_y,left_wrist_z,left_wrist_visibility,right_wrist_x,right_wrist_y,right_wrist_z,right_wrist_visibility,trunk_lateral_inclination,center_mass_x,center_mass_y,left_knee_angle,right_knee_angle,person_height,center_mass_velocity_x,center_mass_velocity_y,center_mass_acceleration_x,center_mass_acceleration_y,body_orientation,torso_leg_ratio,frame,timestamp
1.1879492312046889,0.6749182629001387,-0.23396606743335724,0.9999992847442627,1.1255617572751622,0.7944115360304139,0.07716556638479233,0.9999537467956543,1.1211472305866899,0.7799387874318853,-0.29461315274238586,0.9999983310699463,1.1404212984770492,1.1451166999227596,0.12330122292041779,0.9999725818634033,1.1425062534057773,1.1397079361957352,-0.12346430867910385,0.9999924898147583,1.15114619437986,1.4115610508664558,0.22102561593055725,0.33625027537345886,1.150579105513235,1.4299485379581063,-0.07968733459711075,0.9501725435256958,1.13363460938262,1.6749182629001387,0.3407396376132965,0.6073726415634155,1.1338069587031534,1.7031918709232727,-0.004560183733701706,0.9563466310501099,1.2119417963430776,1.1407189363166157,0.08900696784257889,0.11824166774749756,1.1943955676423588,1.1781917514087044,-0.4223659038543701,0.9984275102615356,0.006947219371795654,1.1414637759414132,1.1424123180592474,173.89077333037199,174.89425945928494,1.0,0.0,0.0,0.0,0.0,23.506709925605314,0.8593374899929839,0,0.0
1.1997214172661654,0.6810345475668053,-0.24156174063682556,0.9999991655349731,1.1352336616752152,0.7988273438588508,0.049065809696912766,0.9999547600746155,1.130289864369777,0.7870391369022262,-0.3023839592933655,0.9999982714653015,1.1515004425448483,1.1600820787880186,0.11963607370853424,0.9999725222587585,1.1518824695105143,1.1570391444199755,-0.11977972835302353,0.9999923706054688,1.1606882599818171,1.4233091829810183,0.2219359576702118,0.33202216029167175,1.1567384344437217,1.4440105589296328,-0.07199640572071075,0.9505483508110046,1.1439040073613802,1.6810345475668051,0.3509327173233032,0.6036889553070068,1.1447788228006324,1.718535086338846,0.0007242591818794608,0.956771969795227,1.2226647113835767,1.1485854352125369,0.06265369057655334,0.12077385932207108,1.2040996292245993,1.1893044478012589,-0.4295162558555603,0.99825119972229,0.005607783794403076,1.1516914560276814,1.158560611603997,174.2748285035643,176.53606332823958,1.0,-0.0006335671193299656,0.032619544940764314,-0.003563600196425303,0.1834738786336411,9.73399784496676,0.8866737910105639,1,0.03333333333333333
1.207924178237935,0.6856940777321039,-0.27722838521003723,0.9999992251396179,1.14300485053748,0.8042059185274459,0.03516397625207901,0.9999564290046692,1.1379735982253236,0.7926975690922003,-0.30925244092941284,0.9999983310699463,1.1593807050931368,1.1690334632777053,0.1166776791214943,0.9999725222587585,1.1586394273591658,1.1666265814045889,-0.11682938039302826,0.9999924302101135,1.1675814369472073,1.4320191485814642,0.22834959626197815,0.3405473530292511,1.162753544013397,1.4539947029423466,-0.06770316511392593,0.9533007144927979,1.1519106540823543,1.685694077732104,0.369437038898468,0.6155819296836853,1.1526140857781717,1.73165695568866,0.006817230023443699,0.9591749906539917,1.2424222297031224,1.1325167041373982,0.05306484177708626,0.12898345291614532,1.2119574305239778,1.1985788560366355,-0.4498886168003082,0.9983152151107788,0.00543743371963501,1.1590100662261513,1.167830022341147,174.67895587414753,177.0884245604979,1.0,-0.003008547882567451,0.007136016098177807,-0.012632303469668371,-0.13698225876467884,14.547836226619317,0.8959513023643243,2,0.06666666666666667
1.206724631397997,0.6851193049273382,-0.2727559506893158,0.9999992847442627,1.1411643273667216,0.8030445347088929,0.03873952478170395,0.9999574422836304,1.1369436312102144,0.7924453445683585,-0.3082755506038666,0.9999983906745911,1.158209184708704,1.1688345257734687,0.11391644179821014,0.9999712705612183,1.1576120614363978,1.167495472424323,-0.11409582197666168,0.9999921917915344,1.1644894394376102,1.430952485976173,0.21734552085399628,0.34166449308395386,1.160681234726915,1.4530258824834177,-0.052227914333343506,0.9534119367599487,1.150799840195798,1.6851193049273383,0.3589065372943878,0.6258603930473328,1.1513853688414573,1.7306676614520253,0.05481884628534317,0.9599319696426392,1.2598886411727712,1.136936573611386,0.04442795366048813,0.13539306819438934,1.2100351493627366,1.1974179270571956,-0.45810261368751526,0.9984285235404968,0.005012840032577515,1.1579106230725509,1.1681649990988958,175.54446469298819,177.46651715430988,1.0,0.0002646484644638382,0.008197867225132454,0.017976854621979864,0.005875989070882076,21.365594253850514,0.8994619520067354,3,0.1
1.2069751318536148,0.6859101933180722,-0.24402041733264923,0.9999992847442627,1.1411460171636598,0.8032213375956758,0.05164692923426628,0.9999578595161438,1.1374128959390095,0.7930894713754122,-0.28409138321876526,0.9999984502792358,1.1578739045813458,1.1711902372860845,0.11304745823144913,0.9999695420265198,1.157767892258201,1.1692372659157146,-0.11324258893728256,0.999991774559021,1.1634664643062433,1.4328169276847211,0.20613345503807068,0.33824941515922546,1.1595140072406038,1.4555362131036778,-0.05414235591888428,0.9534178972244263,1.1490510573500197,1.6859101933180722,0.3265078663825989,0.6311022639274597,1.150921462642316,1.7314778445589585,0.04125814884901047,0.9603694677352905,1.2415429646138176,1.1393416647338221,0.06753949820995331,0.1403530240058899,1.2097043504129565,1.197805885259623,-0.4187041223049164,0.9985285997390747,0.004790812730789185,1.1578208984197735,1.1702137516008995,175.51555813682728,177.86700526261112,1.0,-0.0018389768969976877,0.00994180592737136,-0.011600802979488643,0.009607477803267444,0.5042358996471514,0.9039109059503979,4,0.13333333333333333
1.211985205365494,0.6887396892068856,-0.23783794045448303,0.9999992847442627,1.144919755678596,0.8061495917821534,0.04915409907698631,0.9999578595161438,1.1424204072162596,0.7970456539511528,-0.286195307970047,0.9999984502792358,1.1618553692049924,1.1758351940936869,0.11173804104328156,0.9999682307243347,1.1622274052780657,1.173636511518977,-0.11192319542169571,0.9999914765357971,1.1676529313437165,1.4383506805697643,0.2090637981891632,0.32686251401901245,1.1637047934253886,1.4611480134760577,-0.04806020110845566,0.9514964818954468,1.1534416595238481,1.6887396892068856,0.3313829302787781,0.6205881834030151,1.1553033584037982,1.7371217150812353,0.05118129774928093,0.9580070972442627,1.2145412450389654,1.1580170705082387,0.06718312948942184,0.13637426495552063,1.2143943287529662,1.2028829758634005,-0.4099159240722656,0.9985756874084473,0.004288166761398315,1.162041387241529,1.174735852806332,175.486410155489,177.96187602195073,1.0,-0.0014775677710002423,-3.595930326113999e-05,0.0020944552382540825,-0.056925670635849926,12.226905968290028,0.9076715736612861,5,0.16666666666666666
1.2127336343105124,0.6895106712995965,-0.22229060530662537,0.9999992847442627,1.1442094039769715,0.8061697347519166,0.053433001041412354,0.9999585151672363,1.1427186297482674,0.7986901715149736,-0.281907856464386,0.9999985098838806,1.1609439426997974,1.1758415600239127,0.11208324134349823,0.9999681115150452,1.1618184863724643,1.173558254322236,-0.11226550489664078,0.9999914169311523,1.1679364952200366,1.4385249903385706,0.2004576474428177,0.32775354385375977,1.1631789017035061,1.4613929784774295,-0.05202789977192879,0.952825665473938,1.1540875709309024,1.6895106712995966,0.307900995016098,0.6299379467964172,1.155380149010345,1.7376141170333075,0.02380664274096489,0.9594030380249023,1.2063157999983167,1.158696960302615,0.06857588142156601,0.13584347069263458,1.2145701760231133,1.2030677118919018,-0.408001184463501,0.9986439347267151,0.003522515296936035,1.1613812145361309,1.1746999071730744,175.31689181521196,178.1119567177831,1.0,-0.0048332512369412646,-0.0012357495215249465,-0.01939766202295036,-0.006935865989329682,23.549594575332204,0.9053519367766503,6,0.2
1.2081441040946514,0.687191058833764,-0.22747239470481873,0.9999992847442627,1.1398810647625597,0.8029803467195099,0.05620819330215454,0.9999573230743408,1.1384287777004152,0.7958429086590363,-0.27265018224716187,0.9999985694885254,1.1559891081622278,1.1714238975544427,0.10920808464288712,0.9999667406082153,1.1568294148962492,1.1698445243425766,-0.10941295325756073,0.9999911189079285,1.1646281926376396,1.4330195158559829,0.18619422614574432,0.3281761109828949,1.1578346310388379,1.4566990192113787,-0.05189626291394234,0.9522351622581482,1.15000584684543,1.687191058833764,0.29119446873664856,0.63814777135849,1.1508984757541878,1.731351478621506,0.033650971949100494,0.9598806500434875,1.2073411163093577,1.1619383285460645,0.06533309072256088,0.133113294839859,1.2099041464062703,1.1985300620837274,-0.4052417278289795,0.998727023601532,0.0033743083477020264,1.1564092615292385,1.1706342109485097,174.81595383825137,178.35256359196663,1.0,-0.002866268582451584,0.002350594467353918,0.01061898185286867,0.019519362778741275,30.51857398800891,0.9025962505096409,7,0.23333333333333334
1.2056727657573263,0.6857763036023108,-0.22663357853889465,0.9999992847442627,1.137480911247776,0.8014452723680923,0.05952751636505127,0.9999574422836304,1.1359634985565645,0.7941809783556385,-0.27257800102233887,0.9999985694885254,1.1531390350609017,1.1695032131003003,0.10955923795700073,0.9999667406082153,1.152878101977279,1.1676495062275443,-0.10975688695907593,0.9999911189079285,1.1624251830368837,1.4299926853184755,0.18933770060539246,0.32968708872795105,1.154643992412056,1.4537584806397466,-0.05711803585290909,0.9534754157066345,1.148658509551233,1.6857763036023108,0.29366958141326904,0.6467489004135132,1.1478023621866946,1.7284586151825814,0.011751608923077583,0.9613223075866699,1.208528687164382,1.1542434085459736,0.06633675843477249,0.13188262283802032,1.2072051500189094,1.1961109647503811,-0.40708547830581665,0.9987797141075134,0.003441542387008667,1.1530085685190903,1.1685763596639223,174.8775606041205,178.21966672999466,1.0,-0.0056335503504550315,0.0024163810872671328,-0.016261809929162655,0.0004148303199731704,5.576434703922603,0.9017749439170447,8,0.26666666666666666
1.2036056764693785,0.6846370036802165,-0.20882555842399597,0.9999992847442627,1.1355262244859832,0.8000631109556537,0.0718923956155777,0.9999568462371826,1.1339721250526318,0.7926383739101194,-0.25835612416267395,0.9999985694885254,1.1506250025511269,1.1676731241838356,0.10920338332653046,0.9999659657478333,1.1506581593517091,1.1659014960436338,-0.10940779745578766,0.9999908804893494,1.1603633055948648,1.4275179465892924,0.18641550838947296,0.32749173045158386,1.1522289627792934,1.4515529847871198,-0.05634605139493942,0.953890860080719,1.1468079514780367,1.6846370036802165,0.28287214040756226,0.6502423286437988,1.1457984273754602,1.7258598239738112,0.013506749644875526,0.9617776870727539,1.2026613356224922,1.152717272024232,0.07896173000335693,0.1300421804189682,1.2048033402964708,1.194416595732255,-0.3755395710468292,0.9988157749176025,0.0035236477851867676,1.150641580951418,1.1667873101137347,174.83586085083053,178.34200183667915,1.0,-0.002244562509565785,0.001395105182713279,0.020334162628600983,-0.006120247428258066,3.424167534776224,0.9007762780123545,9,0.3
1.2014985496339718,0.6834216114410584,-0.21549876034259796,0.9999992847442627,1.1341333930566841,0.7986507587429238,0.07149335741996765,0.9999566078186035,1.1316689899727077,0.7901164874872121,-0.26668161153793335,0.9999985694885254,1.1481021883580962,1.1654200796198515,0.10902724415063858,0.9999660849571228,1.1466424513802844,1.1636751398230325,-0.10923030227422714,0.9999908804893494,1.1582487644293038,1.4250064201975245,0.18129371106624603,0.32362252473831177,1.1499459148895868,1.448874699369589,-0.05641515180468559,0.9533417224884033,1.144826555629374,1.6834216114410583,0.2747867703437805,0.6526915431022644,1.1437001611991406,1.7233569011152934,0.0075072781182825565,0.9620210528373718,1.202897359767811,1.163213173938179,0.06970927864313126,0.1263492852449417,1.202367321298025,1.1925622364263673,-0.3917298913002014,0.9988411068916321,0.004057645797729492,1.1473723198691903,1.164547609721442,174.78829348227862,178.03285128560285,1.0,-0.006341815667009602,-0.0005588874789113157,-0.022393613393315817,-0.010654923401442194,37.73319802909559,0.898503402376287,10,0.3333333333333333
1.198531211719693,0.6817379452458309,-0.21659794449806213,0.9999992847442627,1.131672157281849,0.7964607369690091,0.06643401831388474,0.9999563694000244,1.1285421721076665,0.7859377265632996,-0.2703484892845154,0.9999986290931702,1.1441088117855216,1.1626512446314952,0.10822335630655289,0.999966561794281,1.1421315775536707,1.160997150824355,-0.1084248274564743,0.9999911189079285,1.1548402252553875,1.4221203751855416,0.1862887442111969,0.32551345229148865,1.147458392387642,1.4458778242820145,-0.05522327870130539,0.9534661173820496,1.1419344919076395,1.681737945245831,0.28970587253570557,0.6598330736160278,1.1408137548773538,1.720257559425668,0.01797226443886757,0.9627714157104492,1.2297686613438952,1.1579818404835551,0.07199104130268097,0.12386498600244522,1.1984694348737923,1.1896194640083282,-0.4201228618621826,0.9988915324211121,0.005015581846237183,1.1431201946695961,1.1618241977279251,174.7857847627634,177.54152772414218,1.0,-0.007865791377182001,0.0008421321340508553,-0.008533411822617677,0.007757493589957137,48.14003017815827,0.8963143557826133,11,0.36666666666666664
1.2002432746546436,0.6825741538521252,-0.22019369900226593,0.9999993443489075,1.131974371647422,0.7959487821086078,0.06674566864967346,0.9999580383300781,1.1299094794166542,0.7866002367013559,-0.2721213698387146,0.9999986290931702,1.1429611708985667,1.1639522803555717,0.1122882142663002,0.9999673366546631,1.141974675271219,1.162342886423102,-0.11247967183589935,0.9999912977218628,1.1540238447975315,1.4235298426195784,0.2219551056623459,0.3239089548587799,1.1488905367348798,1.4472417969144935,-0.05830878019332886,0.9560796618461609,1.1433240169866559,1.6825741538521253,0.34138739109039307,0.6633822917938232,1.1422272151468835,1.7236090665195918,0.0009265093831345439,0.9644583463668823,1.206593957636029,1.1583969039137108,0.08066536486148834,0.1262960582971573,1.1993280210646051,1.1910633187082653,-0.4018324017524719,0.9988366365432739,0.004450410604476929,1.1424679230848929,1.1631475833893368,175.19438758511603,177.22827424837718,1.0,-0.011602020298237765,-0.0004713164651569004,-0.02123935183922838,-0.007491446302482314,29.79660462727429,0.8964483543686742,12,0.4
1.2037353481474493,0.6840305800046693,-0.21826305985450745,0.9999992847442627,1.1345530994439783,0.7971475297421645,0.06651327759027481,0.9999595880508423,1.1320879412868325,0.7871386112641293,-0.27427008748054504,0.9999986290931702,1.144929596212112,1.1652803863360737,0.11433688551187515,0.9999685883522034,1.1416527549365576,1.163619007736833,-0.11450378596782684,0.9999915957450867,1.1559768919963402,1.4249603975164755,0.22058983147144318,0.32048946619033813,1.151757770674052,1.4474540561637046,-0.08044835180044174,0.958459198474884,1.1460155203346694,1.6840305800046693,0.3355775475502014,0.6672012805938721,1.144465418849189,1.7267602389685428,-0.02551494911313057,0.9659033417701721,1.2010303232016797,1.1599591574101964,0.08646906912326813,0.12762945890426636,1.199466547301994,1.1930153601307525,-0.4036673903465271,0.9987677335739136,0.004755377769470215,1.143291175574335,1.1644496970364533,175.3620290703077,176.46544809499548,1.0,-0.007607336610313017,-0.005288030719163919,0.02127630004589655,-0.025503087996722726,61.500153802507654,0.8951019585164993,13,0.43333333333333335
1.2043034013926401,0.6841029427339131,-0.21847721934318542,0.9999992847442627,1.1347710295126663,0.7937804385917802,0.07092659920454025,0.9999598264694214,1.1325073494313946,0.7862293589769973,-0.274314284324646,0.9999986290931702,1.1409641520410012,1.164876468819689,0.11624981462955475,0.9999690055847168,1.1396281541571154,1.163525036753431,-0.1164199560880661,0.9999916553497314,1.154602322606033,1.4252748413792689,0.22016966342926025,0.3267703056335449,1.1526139481843127,1.4471952702638267,-0.07595641165971756,0.9610901474952698,1.146211648566428,1.6841029427339131,0.332328736782074,0.6778015494346619,1.1457296754404764,1.7271265417242416,-0.019423019140958786,0.9679025411605835,1.192456348869741,1.1585926234144828,0.08705494552850723,0.1255536675453186,1.1989512535818596,1.1926647730723459,-0.4021187722682953,0.9987133145332336,0.0035868287086486816,1.1402961530990583,1.16420075278656,175.1451546592865,175.97018080370282,1.0,-0.018430791593370133,-0.0028772638130677864,-0.061398365997909314,0.013684375273794234,43.71484294905181,0.8945415272751503,14,0.4666666666666667
1.2055052062975038,0.6840503499690076,-0.1863206923007965,0.999998927116394,1.135255711645888,0.7932561624336466,0.09085951745510101,0.999932587146759,1.1327995268547744,0.7859702252991551,-0.24257858097553253,0.9999985694885254,1.1347558679411427,1.1645529011604867,0.1113012284040451,0.9999678730964661,1.1353333731050337,1.1629799743215334,-0.11148907244205475,0.999991774559021,1.1531327773199431,1.42508965726894,0.1812371462583542,0.3115978240966797,1.153654953399047,1.4467163035052482,-0.06398819386959076,0.9573628902435303,1.1451341488790245,1.6840503499690076,0.2649434804916382,0.6650749444961548,1.1470929992209389,1.726863017167762,-0.012409849092364311,0.966108500957489,1.1733221219795542,1.0784048888327653,0.11563966423273087,0.11411125957965851,1.197550615291416,1.192136520062784,-0.36599332094192505,0.9987209439277649,0.003461390733718872,1.1350446205230882,1.1637664377410102,174.19617901621552,174.96358476431982,1.0,-0.029429483658969014,-0.0015268096874347912,-0.0636768594527648,0.007814087746997446,20.083741394477503,0.8949026076898038,15,0.5
1.203007851401629,0.6812814915020157,-0.19906486570835114,0.999998927116394,1.1364424161505908,0.7902207278477552,0.08391725271940231,0.999934196472168,1.1290409388667093,0.7828501785670438,-0.2546367645263672,0.9999985694885254,1.1275217803433233,1.158321697843656,0.11118048429489136,0.9999681711196899,1.125177250260592,1.1563324336720855,-0.11136078834533691,0.9999918341636658,1.146597173005564,1.4194935017766108,0.18153515458106995,0.3051712214946747,1.150168076515005,1.43847442344735,-0.07441593706607819,0.9568192958831787,1.141849755759372,1.6812814915020156,0.2670764923095703,0.6603416204452515,1.1427331095145596,1.719961739248442,-0.022500310093164444,0.9653921723365784,1.2782881106570214,1.0913999969884247,0.1076061949133873,0.11138620227575302,1.1914857644024681,1.1869209160962013,-0.41252604126930237,0.998724639415741,0.0035156309604644775,1.1263495153019576,1.1573270657578707,174.78374300721552,173.42520581211662,1.0,-0.02406722113350026,-0.010357422443032152,0.03033332016984058,-0.05110803571331441,51.07463024677559,0.8871227760498651,16,0.5333333333333333
1.1996701580649887,0.6769826292229102,-0.1926845759153366,0.999998927116394,1.1289098496819012,0.779865151468212,0.08748413622379303,0.999938428401947,1.1249760587079904,0.7773948757657255,-0.26166459918022156,0.9999986290931702,1.1123562893874996,1.1447558962939903,0.11906497180461884,0.9999697208404541,1.111350522306641,1.142038090137715,-0.11920912563800812,0.9999921321868896,1.1368880660086176,1.410556667866344,0.18241217732429504,0.30788975954055786,1.145413369959811,1.4276594266544045,-0.09204837679862976,0.9593825340270996,1.1350976764359142,1.6769826292229102,0.2835460603237152,0.6602420210838318,1.1361049335420776,1.7108542569619414,-0.05026727914810181,0.9664843082427979,1.1957549924073898,1.1312329233011338,0.09911685436964035,0.11296460032463074,1.1813335341556328,1.178912739710149,-0.40856894850730896,0.998697817325592,0.0011858046054840088,1.1118534058470704,1.1433969932158528,174.34186705946775,171.31649850512255,1.0,-0.0433964668169607,-0.03889376537660044,-0.11503199462202035,-0.16888208691770867,22.905277083886467,0.8613046873871016,17,0.5666666666666667
1.2008036146676466,0.6753424249330936,-0.2260887324810028,0.999998927116394,1.1313347706576444,0.7782113099676135,0.0701935887336731,0.9999422430992126,1.124406570935771,0.7757598131581649,-0.287597119808197,0.9999986886978149,1.111265591500503,1.139541161028542,0.11834114789962769,0.9999697208404541,1.1042283565158204,1.1373222934303715,-0.11849566549062729,0.9999920725822449,1.1366017933698753,1.4075796978075301,0.194291889667511,0.2982466518878937,1.1440363875452737,1.4246956320907382,-0.07676810026168823,0.9579859375953674,1.1338837177332288,1.6753424249330935,0.3187160789966583,0.6488789916038513,1.1336749399856905,1.7073132986407082,0.0020844487007707357,0.9648526310920715,1.2632486052934018,1.1245084197835316,0.06359411776065826,0.13108982145786285,1.1763975579322627,1.1763103297220152,-0.45967039465904236,0.998762309551239,0.0011793076992034912,1.1077469740081616,1.1384317272294566,174.01859766607197,170.01370207500605,1.0,-0.010037842640473978,-0.014622551548478253,0.19269166648290675,0.14010894208034244,75.67882082124721,0.8533647246728976,18,0.6
1.2103986699878448,0.6784681820986314,-0.2234361618757248,0.9999988079071045,1.136595223311822,0.7816416742609754,0.06707566976547241,0.9999438524246216,1.1329382739430116,0.7793890739752467,-0.2904835343360901,0.9999986886978149,1.1091229938768963,1.1446767235259663,0.11911460012197495,0.9999703764915466,1.105110763203022,1.1434913340999406,-0.11925183236598969,0.9999921321868896,1.1400896305515578,1.414417872078723,0.21858903765678406,0.2939945161342621,1.1491009015682518,1.432270664457436,-0.06734202802181244,0.9583057761192322,1.1361098337428885,1.6784681820986314,0.3427700400352478,0.6384850740432739,1.1369903945430582,1.7122471207022565,0.018017418682575226,0.9634910821914673,1.21703120902079,1.1463542129757953,0.05712125450372696,0.12864302098751068,1.1786701481500674,1.1809270978046933,-0.45071443915367126,0.9986749291419983,0.0010804533958435059,1.1071168785399592,1.1440840288129535,172.58753624293982,168.86183278959408,1.0,-0.022532684967907952,0.013389561347285793,-0.0723134478249455,0.16275176918561038,77.8680810094076,0.8639140655514641,19,0.6333333333333333
1.221575298115055,0.6862243134726371,-0.17488080263137817,0.9999986290931702,1.1440568999328027,0.791657818887478,0.0927806943655014,0.9999459385871887,1.1434126235746758,0.7846884928798978,-0.2845810055732727,0.9999986886978149,1.1074948404243241,1.149832305992843,0.12304885685443878,0.999971330165863,1.1061104696904405,1.1481729575104482,-0.12317309528589249,0.999992311000824,1.1452032227791367,1.4210515678098372,0.218103289604187,0.29182037711143494,1.1541931486624029,1.4381295075328182,-0.07704546302556992,0.9596487879753113,1.1394444102039203,1.6862243134726371,0.3259863257408142,0.6273022294044495,1.1411515429320862,1.7199865655154447,-0.013195760548114777,0.9632366299629211,1.1842781347525713,1.1695738119376773,0.09272022545337677,0.12806624174118042,1.1834755340918761,1.1890868767493339,-0.3980748653411865,0.998655378818512,0.003329545259475708,1.1068026550573822,1.1490026317516457,170.8406371526279,167.93528045002125,1.0,-0.027576480723330174,0.002088349931662667,-0.028897807580688998,-0.06623421058524366,45.66626159208696,0.8589157802099595,20,0.6666666666666666
1.23590054053131,0.6991198701022218,-0.1653154194355011,0.9999982118606567,1.1505358069895708,0.8036675416966005,0.08793386071920395,0.9999486804008484,1.1540498224000841,0.7983304094865107,-0.2956155836582184,0.9999986886978149,1.0998034494381888,1.1574080137155338,0.12515553832054138,0.999972403049469,1.1081939679751978,1.1580442431189881,-0.12527576088905334,0.9999924898147583,1.1474205807216213,1.4315086239721622,0.2138698399066925,0.28604209423065186,1.1615745817626668,1.446937720650089,-0.05926761031150818,0.9588415622711182,1.1470854521884024,1.6991198701022217,0.32163283228874207,0.6138373017311096,1.1484627563775658,1.7315709598883542,0.019736165180802345,0.9609457850456238,1.197456187343505,1.174922340648674,0.08971594274044037,0.12598855793476105,1.1905203200081969,1.2027026000461947,-0.39615073800086975,0.9985897541046143,0.002533525228500366,1.1039987087066934,1.157726128417261,170.0731022829175,166.89368084410376,1.0,-0.05547962915749851,0.007580990880787856,-0.155323226315491,0.030694873970438172,86.17475004816764,0.8531490531387197,21,0.7
1.2498721952624852,0.7146224118868496,-0.16105984151363373,0.9999980330467224,1.1587624895483528,0.8183675952092313,0.09107267111539841,0.9999513030052185,1.1663464457630601,0.8159380874059778,-0.290818989276886,0.9999986886978149,1.1020316730536877,1.1667151357817396,0.12575946748256683,0.9999738335609436,1.111282199249879,1.1697310808659054,-0.12587092816829681,0.9999927878379822,1.1568974039047866,1.4427724831481523,0.21446101367473602,0.28374290466308594,1.1719628321491877,1.457402416868087,-0.061380885541439056,0.9593843817710876,1.1563429771162304,1.7146224118868496,0.3237994909286499,0.6015992760658264,1.1573159442554357,1.744934323769176,0.02116735652089119,0.9599134922027588,1.1837218169281984,1.2022495658181587,0.09719984978437424,0.12201661616563797,1.1997548983170263,1.221195855058768,-0.3845960795879364,0.9984080195426941,0.0011445283889770508,1.1066569361517833,1.1682231083238224,168.6422301013968,165.1726631967411,1.0,-0.03350595029142329,0.009510950527755468,0.12971397572495458,0.010841216747184794,98.80768948910368,0.8436984715111998,22,0.7333333333333333
1.2663488832332945,0.7336174134321538,-0.12129459530115128,0.9999979734420776,1.1705757738256835,0.8326308394464595,0.12255771458148956,0.9999526143074036,1.1822344415462989,0.8307905222641861,-0.2560291290283203,0.9999986290931702,1.1001037001081129,1.1825689167639555,0.12545020878314972,0.9999751448631287,1.1223123429349464,1.1881589377629875,-0.12558254599571228,0.999993085861206,1.1657058658191588,1.4602566377822055,0.20499296486377716,0.2971212565898895,1.186950094442883,1.4758624967903489,-0.06741847842931747,0.9614180326461792,1.1671069524479205,1.7336174134321538,0.2991275191307068,0.5999526381492615,1.172168720043923,1.7643361802098751,-0.00272733299061656,0.961135983467102,1.1882271118704488,1.2312828339707869,0.1214667335152626,0.11564567685127258,1.2130044987876072,1.2433696043887241,-0.34457927942276,0.9978059530258179,0.0008575916290283203,1.1112080215215296,1.1853639272634715,167.0015626644119,164.40446240110114,1.0,-0.04194926741297478,0.024325204512065657,-0.044920096981727844,0.08180964990214534,92.74195393301459,0.8429469861717147,23,0.7666666666666667
1.271788612081731,0.7403988241959235,-0.11224417388439178,0.9999979138374329,1.1745553111242715,0.8345076435996699,0.12050922960042953,0.9999544620513916,1.18789289561015,0.8363919631130764,-0.24850520491600037,0.9999985694885254,1.093572909663094,1.1876851318721902,0.12499623000621796,0.9999765753746033,1.1224837859535277,1.1938675797656095,-0.12512654066085815,0.9999933838844299,1.1616671537600614,1.4663309745685884,0.20156070590019226,0.3185030519962311,1.1928851320776426,1.485110607866875,-0.06696220487356186,0.9640469551086426,1.1688954827694777,1.7403988241959236,0.2904624342918396,0.6051616072654724,1.1780732982249427,1.7712675334360937,-0.004797924309968948,0.9631342887878418,1.1870542646011166,1.2366549678646768,0.12198565155267715,0.11033134907484055,1.2175717786476403,1.2522360925419238,-0.3196876347064972,0.9973224401473999,0.0008746683597564697,1.1080283478083108,1.1907763558189,167.77823595574927,163.44767924868043,1.0,-0.043233439960490054,0.004395728190248607,-0.006424488008554625,-0.11489170161959472,89.15613307007688,0.8424650891363524,24,0.8
1.2971716009052914,0.770814504379721,-0.10561410337686539,0.9999980926513672,1.191216727716927,0.8574120979080561,0.16002896428108215,0.9999562501907349,1.2111207339219534,0.8653744316221306,-0.22536496818065643,0.9999986290931702,1.099863905960945,1.2172335728227157,0.126774862408638,0.9999778866767883,1.1327360516667684,1.2205161519043208,-0.12694308161735535,0.9999936819076538,1.1822595266643445,1.4926679295653773,0.19485539197921753,0.35447052121162415,1.2136592843784348,1.5119994855260122,-0.06721775978803635,0.967158854007721,1.1881563909519173,1.770814504379721,0.27568724751472473,0.6253710389137268,1.1982086120203452,1.8010851614406969,-0.013107387349009514,0.9660854935646057,1.1882998952444779,1.274222666039461,0.157748281955719,0.10878009349107742,1.2395353673119027,1.2865010970113175,-0.31379038095474243,0.9973410367965698,0.0036345720291137695,1.1162999788138568,1.2188748623635184,164.5600755950995,161.42462548932903,1.0,-0.059072976274858344,0.045122554982729074,-0.08542588225374366,0.22984664507587158,81.45710970575713,0.8443463959548342,25,0.8333333333333334
1.3131791777151487,0.7940862724159616,-0.08033748716115952,0.9999982118606567,1.2034274438454926,0.8794449637627824,0.1686049997806549,0.9999576210975647,1.2255345912530662,0.8892225033586704,-0.21311524510383606,0.9999986290931702,1.1057028543534972,1.2376022488393856,0.12651897966861725,0.9999788403511047,1.1391599025334018,1.239323334400709,-0.1266791671514511,0.9999939203262329,1.1935399775303452,1.5109716565237383,0.19550743699073792,0.38930508494377136,1.2265860871703047,1.5301004892530796,-0.06538069993257523,0.9701586961746216,1.200898865372826,1.7940862724159616,0.28013527393341064,0.6478841304779053,1.2103669473976895,1.8202212509462705,-0.011139366775751114,0.9690757989883423,1.1881505330951017,1.293184919505731,0.1627468764781952,0.10777153819799423,1.2535484853041634,1.3119141626721458,-0.27895134687423706,0.9974538683891296,0.004416227340698242,1.1224313784434494,1.2384627916200472,163.67604862607914,160.06608814105735,1.0,-0.034299348304411496,0.039699844282444906,0.15199901321637005,-0.03531832286089663,77.68292532361143,0.8413885328647382,26,0.8666666666666667
1.3316576979466355,0.8162484020893589,-0.14637437462806702,0.9999983906745911,1.2222852372652357,0.9064718841963043,0.14314863085746765,0.9999591112136841,1.2439647899880273,0.9123690221555987,-0.23274342715740204,0.9999986290931702,1.12023544411583,1.262015880058356,0.1263376772403717,0.9999793171882629,1.1483779994807501,1.2644481418223692,-0.12650366127490997,0.9999940395355225,1.206700784853847,1.5370983454226357,0.21673628687858582,0.4192619025707245,1.2440548093548982,1.5558539407014476,-0.07023860514163971,0.9729616045951843,1.2129741850404934,1.8162484020893588,0.32939112186431885,0.6703662276268005,1.225442870539711,1.8421572599549314,0.0010464711813256145,0.9718753695487976,1.217256859763336,1.348020088898472,0.14906428754329681,0.10986019670963287,1.2726227831393324,1.3456648719417659,-0.3147382438182831,0.9974135160446167,0.002627849578857422,1.13430672179829,1.2632320109403627,163.8381584093677,158.10408412458798,1.0,-0.019054943959843355,0.04475800941682354,0.08858740113598279,0.025479200097784073,78.92482829649467,0.8537605678554208,27,0.9
1.3485971291232053,0.8357866856134034,-0.14053937792778015,0.9999985098838806,1.237198970143003,0.9301639462843788,0.14454253017902374,0.9999604225158691,1.2585067479158984,0.9313142033937147,-0.22432227432727814,0.9999985694885254,1.1283958696204017,1.2862780039270312,0.1260322630405426,0.9999796748161316,1.155521048217845,1.288165061050158,-0.1261974573135376,0.9999940395355225,1.2209620584160252,1.5548498902641874,0.22190061211585999,0.43272581696510315,1.2571780877203715,1.5722394251891771,-0.07392337918281555,0.975407600402832,1.2284685085427631,1.8357866856134035,0.3328333795070648,0.679955780506134,1.2396360414795626,1.8580488759557732,-4.185103898635134e-05,0.9741473197937012,1.2356000350181124,1.3593121307000344,0.14393073320388794,0.1107991561293602,1.2890951367075336,1.36262195074547,-0.3024562895298004,0.9971318244934082,0.0005070865154266357,1.1419584589191234,1.2872215324885945,162.51347952637173,156.7978460667079,1.0,-0.025854409716549672,0.05782848635944757,-0.03692295669542371,0.07048388792394351,76.99014663045159,0.8752804163374944,28,0.9333333333333333
1.3635910692968267,0.8529500958039207,-0.14706793427467346,0.9999986290931702,1.2560038056678946,0.9503455372222093,0.13644076883792877,0.9999620318412781,1.2705551056532984,0.945417230068545,-0.23273751139640808,0.9999983906745911,1.1383865890622822,1.3075787161687498,0.12571963667869568,0.999980092048645,1.1541574040735338,1.310260515936166,-0.12588247656822205,0.9999940395355225,1.233602223322742,1.5699259388517977,0.24288418889045715,0.43972882628440857,1.270020001876072,1.5859711327965365,-0.08432577550411224,0.9776421189308167,1.2407729416357298,1.8529500958039207,0.3667133152484894,0.6879454255104065,1.2512991525043033,1.8765621132052388,-0.007163295987993479,0.9762609004974365,1.2488954865450552,1.3683172959222198,0.12246519327163696,0.1139627993106842,1.3057752839948262,1.3847499929340086,-0.31901535391807556,0.9963419437408447,0.0021513700485229492,1.146271996567908,1.3089196160524579,161.50360809354456,153.52017198149449,1.0,-0.04044390064032442,0.05211589626007322,-0.08318566391331919,-0.036467959336273774,81.42686515886221,0.894441317164084,29,0.9666666666666667
1.3838819616039286,0.8814159482049568,-0.13378964364528656,0.9999986886978149,1.2757314456794464,0.9764683718119435,0.13747292757034302,0.999963104724884,1.2891888756326764,0.9700460773635644,-0.23202617466449738,0.9999982714653015,1.1515798769538723,1.3345173651574787,0.1255364716053009,0.9999808669090271,1.1643842931773987,1.3332438914160347,-0.12569625675678253,0.9999942183494568,1.228512347036486,1.6272740590157349,0.24569347500801086,0.45162433385849,1.288451499289186,1.6073383006612907,-0.08996157348155975,0.9797347784042358,1.2406399229792886,1.8814159482049568,0.3637515604496002,0.7003576755523682,1.2662286690897253,1.904185403813287,-0.03357037529349327,0.9783751964569092,1.282272665093237,1.4022624833984696,0.13899105787277222,0.1163296103477478,1.3274892252388282,1.4162650149695155,-0.3207436800003052,0.9960500597953796,0.0027633607387542725,1.1579820850656355,1.3338806282867568,168.0084120353312,151.36505631706726,1.0,-0.029609340996934946,0.035389189240901515,0.06820476856719976,-0.10440019443153639,65.1965645222855,0.8919037274316346,30,1.0
1.4026790498904742,0.9055350277010273,-0.13370822370052338,0.9999987483024597,1.2915440689997841,0.9950788808905638,0.13570427894592285,0.9999637007713318,1.3059284253667687,0.993616198172741,-0.2334565371274948,0.9999982118606567,1.1565983281581438,1.3581369654188633,0.1250579059123993,0.9999811053276062,1.1743140622827253,1.354546068121108,-0.12523099780082703,0.9999942779541016,1.250864258301012,1.6438063090399937,0.25020498037338257,0.46205008029937744,1.3052032580331436,1.6254920452595343,-0.0825042575597763,0.9815930128097534,1.254511563738883,1.9055350277010272,0.3695901036262512,0.7104406356811523,1.2825823309779893,1.929186876660234,-0.02021637186408043,0.9802461266517639,1.313974302864846,1.4373527968545026,0.14009512960910797,0.1173318400979042,1.3464246991320303,1.4471506943463188,-0.3142014741897583,0.9959787130355835,0.0006213188171386719,1.1654561952204345,1.3563415167699857,162.53639630363094,149.95578502219598,1.0,-0.04591988571174923,0.031819719808071426,-0.09741157779287919,-0.02463106582224556,58.151959766821655,0.8930561724544855,31,1.0333333333333334
1.429830851644175,0.935689068941772,-0.17217041552066803,0.9999988675117493,1.316390523971776,1.0280008943023995,0.12903563678264618,0.9999648928642273,1.3312967563651974,1.026655505772722,-0.23945260047912598,0.9999982118606567,1.1809967179101941,1.3905649665978055,0.12499569356441498,0.9999814629554749,1.18842071562078,1.388053336195101,-0.1251768171787262,0.9999943971633911,1.2881121097487904,1.6643601534622918,0.26399701833724976,0.46314048767089844,1.3313747395344262,1.6565023117717024,-0.0867341011762619,0.9833038449287415,1.2817309401801125,1.935689068941772,0.4056481420993805,0.7150524854660034,1.3079782147935504,1.9673197578229102,-0.018428783863782883,0.9819932579994202,1.3573615932891547,1.486617336946315,0.13621191680431366,0.11914069950580597,1.374976918055071,1.4964545202514778,-0.31612712144851685,0.9958062171936035,0.0005604326725006104,1.184708716765487,1.3893091513964533,157.28609842007356,147.6591028025855,1.0,-0.02498875527555753,0.04127294361316279,0.1454641835380361,0.05878625923818323,50.8313357352806,0.9000259958240197,32,1.0666666666666667
1.4573176750315102,0.964455634434578,-0.16395561397075653,0.9999989867210388,1.341099598912682,1.0594423238275077,0.1351432353258133,0.9999656081199646,1.3572660900913363,1.0583087828850346,-0.23938512802124023,0.999998152256012,1.2035393207319007,1.4233966556529791,0.1252896636724472,0.9999818205833435,1.2025664219026548,1.4212708104307068,-0.1254660189151764,0.9999945163726807,1.3296322907864453,1.684273757214031,0.25233086943626404,0.45303404331207275,1.3587884695730925,1.6868412588184458,-0.09808066487312317,0.9847176671028137,1.3167178904903736,1.964455634434578,0.38779497146606445,0.7016507983207703,1.334039954363633,2.0061661183897357,-0.021791571751236916,0.9832553267478943,1.384125714053099,1.5201253854735903,0.13978466391563416,0.11618940532207489,1.4032497126205974,1.5286594065477639,-0.3055512309074402,0.9948104619979858,0.00046306848526000977,1.2030528713172777,1.422333733041843,151.56448960944076,145.10207772711112,1.0,-0.033029870307320325,0.03759854122660801,-0.05005433955243843,-0.02975117533049445,45.29593001357336,0.9090865465536997,33,1.1
1.462997063821672,0.9734569244798998,-0.15934643149375916,0.9999990463256836,1.3462149137235797,1.0675561961916686,0.14134404063224792,0.9999660849571228,1.3623151193410166,1.0679739344233001,-0.23809294402599335,0.9999980926513672,1.204534861954505,1.4318916774885084,0.125479593873024,0.9999821782112122,1.2047076989507624,1.4292188558718146,-0.12565407156944275,0.9999946355819702,1.3337511692129853,1.690253546014628,0.25226959586143494,0.45308834314346313,1.3642150080515676,1.6931919214230284,-0.10510297119617462,0.9860831499099731,1.3153646816679414,1.9734569244798998,0.3869822919368744,0.6967395544052124,1.3397533000880884,2.014954940809188,-0.03181818872690201,0.9845109581947327,1.386588317800951,1.5257266404208316,0.15488840639591217,0.11378379166126251,1.4092705370631362,1.537272737658926,-0.29915788769721985,0.9944130182266235,0.00016999244689941406,1.2046212804526337,1.4305552666801615,149.7140577874646,144.50978705731788,1.0,-0.023206854968054417,0.020202983157162978,0.07445511853090811,-0.13124557045839647,17.549831571012447,0.9101483479819705,34,1.1333333333333333
1.4738834594714427,0.9929384896739636,-0.12653689086437225,0.9999991059303284,1.3564952780955841,1.0884599441239897,0.16801288723945618,0.9999669194221497,1.3709427181966176,1.0865351242723533,-0.2178027331829071,0.9999979734420776,1.2061161626787895,1.4520868413892207,0.12618806958198547,0.999982476234436,1.2091118028681012,1.4477064408404234,-0.12637189030647278,0.9999946355819702,1.3432821964347956,1.7030139201477983,0.2478693723678589,0.45213550329208374,1.3769083165988443,1.70443321833761,-0.09883712977170944,0.9872886538505554,1.3158224073620486,1.9929384896739637,0.3749791085720062,0.6900104284286499,1.350791370176982,2.030627823218558,-0.027448490262031555,0.9855053424835205,1.3951001593389518,1.5505474061609732,0.16781888902187347,0.11983835697174072,1.4212330462978877,1.5593915998830732,-0.28345006704330444,0.9936062693595886,0.0007773041725158691,1.2076139827734453,1.4498966411148222,145.9268029086753,142.25373376823003,1.0,-0.04715958367916438,0.06285388686588143,-0.17899054104953876,0.3199374415130702,11.899488899180302,0.9185452911117583,35,1.1666666666666667
1.5144767421735563,1.049656189708707,-0.12723225355148315,0.9999991655349731,1.3917023391731185,1.1459631516014217,0.15580083429813385,0.9999682307243347,1.4038339265424702,1.1397765096469106,-0.22314491868019104,0.9999979138374329,1.2296006298684696,1.5118836662328679,0.12734529376029968,0.9999834895133972,1.2285645381379529,1.5066127991070588,-0.12750956416130066,0.9999949336051941,1.3892304151411343,1.751460502959568,0.27437716722488403,0.4606844186782837,1.4189762451167278,1.7545377310767702,-0.09600569307804108,0.9885146021842957,1.3542184244422002,2.049656189708707,0.4283202290534973,0.7015557289123535,1.3868603619496773,2.089208644234232,-0.005121463444083929,0.9868316650390625,1.4404126938050992,1.621034096823148,0.16495826840400696,0.13329355418682098,1.4653059191968387,1.6329674080110865,-0.28332680463790894,0.9934155941009521,0.002428889274597168,1.2290825840032114,1.5092482326699634,139.62792480858224,136.99349254220695,1.0,-0.10337420392348462,0.14136671999680941,-0.43381839255729593,0.6065789823230188,35.01401652734743,0.9363470651536949,36,1.2
1.5388262571870535,1.0872746024589695,-0.14124923944473267,0.9999992251396179,1.4106271074571453,1.1862539565346681,0.15060798823833466,0.9999675750732422,1.4257520626275073,1.1800410096423561,-0.23428304493427277,0.9999977350234985,1.246447434909222,1.5542939134734608,0.12753669917583466,0.9999840259552002,1.2458895979458355,1.549080524396142,-0.12770041823387146,0.9999950528144836,1.4290803634890719,1.7821870612768163,0.26727327704429626,0.44786545634269714,1.4495960149507423,1.7884359801824377,-0.09447019547224045,0.9894875884056091,1.3977635154976717,2.0872746024589697,0.42299872636795044,0.6947949528694153,1.4105786806177223,2.13036025545854,0.027567874640226364,0.9876968860626221,1.472254360658964,1.6651610509583408,0.1625037044286728,0.13317759335041046,1.4949861975771728,1.6712837197011212,-0.28942570090293884,0.9925937652587891,0.0023935139179229736,1.246168516427529,1.5516872189348014,135.43060035347995,133.09022235537196,1.0,-0.04853549848863003,0.10357596676512375,0.43201753803641646,-0.30789696145375833,30.148725204147972,0.9479002170996123,37,1.2333333333333334
1.5622890572027939,1.1220942701085734,-0.10889632999897003,0.9999991655349731,1.42492677914428,1.2170588875787458,0.16432777047157288,0.9999666213989258,1.4476800408936923,1.2168863436781412,-0.22006109356880188,0.9999972581863403,1.2561241660575104,1.5931001978976116,0.1273988038301468,0.9999840259552002,1.2647270946396203,1.5892018087643163,-0.12756189703941345,0.9999948740005493,1.4527562982069144,1.815038453653684,0.2669101357460022,0.43564245104789734,1.4822989654771959,1.8209695517530067,-0.07082658261060715,0.9903218746185303,1.4255098041965513,2.1220942701085734,0.4168168008327484,0.6914717555046082,1.436630613132781,2.165689889604994,0.05815122276544571,0.9884757399559021,1.4988761010309932,1.6989524930702746,0.19016028940677643,0.14433208107948303,1.522021250160135,1.7053895623703657,-0.2564697861671448,0.9916354417800903,6.526708602905273e-05,1.2604256303485655,1.591151003330964,133.38896314057345,129.26296183848692,1.0,-0.06705936987477717,0.08296303442046525,-0.13515545548301938,-0.17270087803368625,41.4474812634234,0.9642342914751496,38,1.2666666666666666
1.5704490079972622,1.146732380936243,-0.06319522857666016,0.9999970197677612,1.429618055497548,1.2398454691608558,0.1717178225517273,0.9999637603759766,1.452277720512607,1.2430299111937724,-0.2171964943408966,0.9999964833259583,1.2570792758129021,1.6214879074495132,0.12740954756736755,0.9999841451644897,1.2701163237399122,1.6165463700312255,-0.12757082283496857,0.999994695186615,1.4555518191987273,1.835555219309959,0.27180513739585876,0.424436092376709,1.4972552892453304,1.837188450091037,-0.06390391290187836,0.9910708665847778,1.4260550189547847,2.146732380936243,0.42087826132774353,0.6940162181854248,1.45073152112337,2.184691910066183,0.0642613023519516,0.9892175197601318,1.5118985198060457,1.7252398275696517,0.1938224732875824,0.14231617748737335,1.5362679459485733,1.7406513846225078,-0.25209376215934753,0.9907765984535217,0.0011929571628570557,1.2635977997764072,1.6190171387403693,131.74990987032763,126.54333344548786,1.0,-0.0672509882752939,0.09172741314483548,0.003408889776064074,0.05890216120158557,44.91387923064914,0.9812755021599904,39,1.3
1.589101493180561,1.1810132334825127,-0.07152635604143143,0.9999954104423523,1.4482327968693867,1.2851669043617437,0.18057222664356232,0.9999601244926453,1.4682166684664466,1.2804762784414478,-0.21329323947429657,0.999995768070221,1.2723486934164157,1.659471324486403,0.12783780694007874,0.9999837875366211,1.2836792931349377,1.6537591952700812,-0.12800036370754242,0.9999942779541016,1.492716719545659,1.867517846558694,0.26959484815597534,0.39778414368629456,1.5257956497996255,1.8695663577251278,-0.061139583587646484,0.9914076328277588,1.4646712368665307,2.1810132334825125,0.4108455181121826,0.6719647645950317,1.476843793616669,2.222132889815744,0.09206493198871613,0.9891812801361084,1.5406921613727502,1.7826782700935988,0.2077806293964386,0.1471334546804428,1.562965935912831,1.791541120546779,-0.2528518736362457,0.9900491237640381,0.0017268955707550049,1.2780139932756767,1.656615259878242,128.24048160574046,123.8071293658504,1.0,-0.05397987112873005,0.06386479410252165,0.10050948990340992,-0.20498084444796344,38.07718157297934,0.9831589752944339,40,1.3333333333333333
1.581021459260303,1.1930744984994723,-0.07601238042116165,0.9999939799308777,1.4546208059347536,1.3126099921077115,0.18446819484233856,0.9999555945396423,1.4653133634098137,1.3021547648725527,-0.20795445144176483,0.9999948740005493,1.2762241572721411,1.6838783993426376,0.1278078556060791,0.9999828338623047,1.2846773785947168,1.6773024960288285,-0.12795785069465637,0.9999935626983643,1.5021558717625603,1.8797292384263051,0.2278074473142624,0.37792205810546875,1.5331198175063934,1.8823519166329512,-0.06674973666667938,0.9918463826179504,1.4815581137194378,2.193074498499472,0.36348092555999756,0.6660532355308533,1.4850274000040857,2.2311454919829017,0.06961894035339355,0.9896019697189331,1.5483773195958517,1.804432068980083,0.214565709233284,0.15899351239204407,1.569232429565781,1.8102674954342821,-0.2394598424434662,0.98929363489151,0.00382840633392334,1.280450767933429,1.6805904476857332,127.15973254454622,121.6836458833384,1.0,-0.03171220884432951,0.10560544993762157,0.15900429166331567,0.29173954815813086,26.455493934422908,1.006702985110438,41,1.3666666666666667
1.5919303009805559,1.22537355889372,-0.046222615987062454,0.9999889135360718,1.4689250269160863,1.3533921710986558,0.19343069195747375,0.9999488592147827,1.475593931766274,1.3387831448242558,-0.1958654522895813,0.9999935030937195,1.2875660911888889,1.735807573549963,0.12764938175678253,0.9999819993972778,1.2959616774468832,1.7236909520604244,-0.1277887225151062,0.9999927878379822,1.5255496918087446,1.910065045141295,0.2182658612728119,0.3546075224876404,1.5541660809351416,1.9135314732153932,-0.07059357315301895,0.9922511577606201,1.5053592367242916,2.22537355889372,0.3391821086406708,0.6564193367958069,1.5113700825426646,2.2669215770263142,0.056269824504852295,0.9901512861251831,1.572609595191985,1.8405816851537318,0.22331790626049042,0.16666150093078613,1.58612287627531,1.838515058950777,-0.24005146324634552,0.9872497320175171,0.005265146493911743,1.291763884317886,1.7297492628051936,122.54863586996449,119.41960170765604,1.0,-0.07167964989633495,0.1738518946005348,-0.30814456916941546,0.5197419538649459,9.345567179938671,1.048124348654373,42,1.4
1.5934213118015954,1.2479771412177407,-0.034104619175195694,0.9999841451644897,1.4598127281187787,1.3623704973351543,0.1964702606201172,0.9999428391456604,1.4802273888069553,1.359419633012708,-0.19188770651817322,0.9999918341636658,1.2868125563656334,1.7615410056251033,0.12654802203178406,0.9999811053276062,1.3010480281745296,1.749700976688414,-0.12668773531913757,0.9999919533729553,1.536925465063181,1.9371011091646126,0.21286213397979736,0.33742064237594604,1.5668759739392781,1.9327457433066162,-0.06492268294095993,0.9925264716148376,1.5211169949528622,2.2479771412177407,0.33470404148101807,0.650632381439209,1.526374294440667,2.2890784955292833,0.06027287244796753,0.9906085133552551,1.5786831050931363,1.8833646683323186,0.2103060781955719,0.171895831823349,1.5944847284567742,1.873304292551132,-0.22616621851921082,0.9848600625991821,0.00105324387550354,1.2939302922700815,1.7556209911567586,122.15485393481093,118.06610768076268,1.0,-0.07936976095603732,0.06877032792489443,-0.05328298105929436,-0.8136888396809534,26.81691274443374,1.0486825605126529,43,1.4333333333333333
1.5930068674172901,1.2723955683671426,-0.1296704113483429,0.9999845027923584,1.4704489730606711,1.3924423638931096,0.15193824470043182,0.9999353289604187,1.4745811375073465,1.3804880177189696,-0.23048512637615204,0.9999906420707703,1.3012641746186766,1.7917904605588524,0.12398632615804672,0.9999781250953674,1.3076535767249815,1.7851301494236305,-0.12410372495651245,0.9999905228614807,1.5515182889757073,1.9594495601146291,0.20998764038085938,0.3324669301509857,1.5797993348972352,1.9535373292386966,-0.06795673072338104,0.9928857684135437,1.539042295229064,2.2723955683671426,0.35175809264183044,0.6541835069656372,1.5420187499430331,2.3129186641636137,0.0918676108121872,0.9910599589347839,1.5833034292525712,1.9115452482218747,0.18442901968955994,0.1767723262310028,1.6068115813356676,1.9064862541940262,-0.24141380190849304,0.9849584698677063,0.004221409559249878,1.3044588756718292,1.7884603049912415,121.53736142784241,115.74846250892071,1.0,-0.026679181393770172,0.10964492436592777,0.4208869247417208,0.31547796606770273,20.850660188682593,1.0620158588503912,44,1.4666666666666666
1.5897110643916441,1.2750167030918547,-0.11248564720153809,0.9999840259552002,1.4706987046105942,1.395910843170725,0.15544891357421875,0.9999299645423889,1.475552993156886,1.3851636666437988,-0.2216198444366455,0.9999896883964539,1.3007731748851736,1.7981367561632466,0.12296225875616074,0.9999759793281555,1.3076951997493775,1.787430386886527,-0.1230800524353981,0.99998939037323,1.5527380059634346,1.9629973711006266,0.21426022052764893,0.31904491782188416,1.57992137972101,1.9556412517197341,-0.06790097057819366,0.9930616021156311,1.5414033909050693,2.275016703091855,0.3510260581970215,0.6488527655601501,1.5436188106046806,2.315533317810244,0.0779937207698822,0.9913215637207031,1.5819847227117778,1.9255545646162107,0.1907021552324295,0.1785987913608551,1.6088216995214315,1.9136990023429952,-0.23924002051353455,0.9840709567070007,0.0037910044193267822,1.3042341873172756,1.7927835715248868,121.11627936408519,115.95228746227568,1.0,-0.01273716407381984,0.01845316301312047,0.10834632636872857,-0.7081235519982256,9.9817614722506,1.0631619728691266,45,1.5
1.5657289603629583,1.2738296070691344,-0.17570362985134125,0.9999819993972778,1.4689891536468906,1.3991774497259875,0.10415838658809662,0.9999182224273682,1.446862552957064,1.386253749085266,-0.25195521116256714,0.9999875426292419,1.300430145595887,1.7998593247216796,0.11303205788135529,0.9999707937240601,1.2931290011466852,1.7870465773358477,-0.11310897767543793,0.9999870657920837,1.5388537284748585,1.9646731560871897,0.18045292794704437,0.307177871465683,1.5680890705832493,1.9492672966457991,-0.07302417606115341,0.9922308325767517,1.5320253961913781,2.2738296070691346,0.3230525255203247,0.6417523622512817,1.5356839957158595,2.3052517369647996,0.08432994782924652,0.9908912777900696,1.5586763680158078,1.9131304939722964,0.11451488733291626,0.16803309321403503,1.595053233186253,1.9096376518861802,-0.28364163637161255,0.9830374717712402,0.00458216667175293,1.2967795733712861,1.7934529510287636,123.38945573089835,115.33845093073086,1.0,-0.005998838244998267,0.0743840672494026,0.05051225055207369,0.4240739217626922,52.491514710074924,1.0641514081282808,46,1.5333333333333334
1.5488413152415474,1.2876969517983905,-0.13739114999771118,0.9999643564224243,1.4491023556001468,1.4134006280072064,0.12119998782873154,0.9999110102653503,1.4243084099294452,1.4013833487064966,-0.2639229893684387,0.9999842643737793,1.293808627041664,1.8192124422832114,0.11312825977802277,0.9999686479568481,1.288264764305133,1.8111442285908472,-0.11330156028270721,0.99998539686203,1.5336072183744363,1.9766960037866528,0.1990232765674591,0.29805219173431396,1.566903602174898,1.954195727339418,-0.08994247019290924,0.9924389123916626,1.5327659085269814,2.2876969517983903,0.34020987153053284,0.6467150449752808,1.5399420741903467,2.311529569065959,0.07509005814790726,0.9912494421005249,1.5559141503225666,1.904929795887544,0.1135195717215538,0.16456517577171326,1.578581475068505,1.9136995787213844,-0.32842472195625305,0.9820879101753235,0.004249304533004761,1.2910366956733985,1.8151783354370294,123.13921824358218,112.86078937071545,1.0,-0.07067864530238807,0.12898984815899436,-0.49419698503831855,0.41579271915527205,55.43445023869643,1.0812148056617263,47,1.5666666666666667
1.5477951661855478,1.31867283278164,-0.1450798213481903,0.9999588131904602,1.4361832561714551,1.44143942318356,0.1177683025598526,0.9999024868011475,1.4256179486509104,1.427087706850823,-0.27438443899154663,0.9999815225601196,1.3110363615205307,1.8510190477313417,0.11474420130252838,0.9999662637710571,1.2978468153444738,1.8487500732657631,-0.1149054616689682,0.9999834895133972,1.555000586980516,1.9812555846454099,0.1451272815465927,0.2867887616157532,1.5768060160120083,1.980543860089819,-0.11820302903652191,0.9911648631095886,1.5563601261316036,2.31867283278164,0.2558763325214386,0.6306389570236206,1.5618659521054659,2.34357584429073,0.02353585697710514,0.9899171590805054,1.5568483367091122,1.9135385389875534,0.09104850143194199,0.15475665032863617,1.5754850962485707,1.9466667965371738,-0.355337917804718,0.9765775799751282,0.005005955696105957,1.3044415884325022,1.8498845604985523,118.32569896931675,112.9317141913565,1.0,-0.03504839759790128,0.078799984361785,0.2955930927779299,-0.41964824052695376,97.22955872522192,1.0731455849216636,48,1.6
1.4905001894231737,1.2897604896089003,-0.203761026263237,0.9999621510505676,1.3948866798755115,1.422009597159488,0.10409747064113617,0.9999035000801086,1.3652002834638253,1.4134130173765485,-0.28085848689079285,0.9999810457229614,1.2961154704087583,1.832120684630797,0.11608890444040298,0.9999657869338989,1.2700622518225175,1.8466130554215325,-0.11625202000141144,0.9999827742576599,1.53644263026546,1.940559016521971,0.12597784399986267,0.3055567443370819,1.5449924555648848,1.949067151000356,-0.14547701179981232,0.9909594058990479,1.5371561003081153,2.2897604896089003,0.2348136454820633,0.6423503756523132,1.5422676987873625,2.312922188133459,0.007745821960270405,0.9894523024559021,1.51057389778204,1.8744096929977396,0.0885239690542221,0.1584816724061966,1.5016942592667766,1.9188332038864284,-0.3665035665035248,0.9768629670143127,0.00303572416305542,1.283088861115638,1.8393668700261647,114.40249810730694,110.00910120416933,1.0,-0.039406916012078484,0.08909645422054689,-0.03512303054561013,0.0826146194922773,132.62668888326507,1.11159118386254,49,1.6333333333333333
1.4901019453110032,1.3070549712244492,-0.174943208694458,0.9999587535858154,1.3963571169102453,1.4389768456557879,0.09667661041021347,0.9999057054519653,1.3607259569132393,1.4418664177203282,-0.28768831491470337,0.9999812245368958,1.3207279070997089,1.8658663119707801,0.11699096858501434,0.9999675154685974,1.2895383997895995,1.8987091001606158,-0.11706962436437607,0.9999836087226868,1.5750923076817434,1.954050619699218,0.1530178338289261,0.30618777871131897,1.5743165248775812,1.9852378094461813,-0.16483105719089508,0.9911558032035828,1.566980321657164,2.3070549712244492,0.28028374910354614,0.6405253410339355,1.5685682815904458,2.353498593325006,-0.021525364369153976,0.9894110560417175,1.5161535867980616,1.8773624552023627,0.05853121355175972,0.1507277488708496,1.5018037508128639,1.9558761727727876,-0.3697776198387146,0.9766455888748169,0.001003265380859375,1.3051331534446542,1.882287706065698,107.80424457601421,106.00693050206033,1.0,0.0010308663359419007,0.09018415581950712,0.32217346155250287,-0.003400339656701024,146.52549315146356,1.1635556458451668,50,1.6666666666666667
1.4726422565472788,1.3064806525586552,-0.18452896177768707,0.9999608397483826,1.3895700625977012,1.436835200705171,0.09245003759860992,0.9999099969863892,1.3451448906089676,1.4486807310640233,-0.2896547317504883,0.9999819397926331,1.3258749216667929,1.8743254736146213,0.11840828508138657,0.9999694228172302,1.295364481830139,1.9105396899726608,-0.11843790113925934,0.9999845027923584,1.5833771769745133,1.952403882572497,0.14639690518379211,0.3270586431026459,1.581220000964101,1.9914351676502793,-0.16508325934410095,0.9915863871574402,1.5713903025211242,2.306480652558655,0.27139410376548767,0.6488918662071228,1.5730633620956802,2.3594867539407627,-0.018995609134435654,0.9895581007003784,1.5006058341883992,1.8791124072913583,0.0426570288836956,0.14505235850811005,1.4810333785542618,1.9582991880892207,-0.3826957941055298,0.976438045501709,0.004101097583770752,1.310619701748466,1.8924325817936412,104.92911835349435,104.53164728735238,1.0,0.0141917522698492,0.03841762234621828,0.10581434995243531,-0.41836734021638816,148.1695092535132,1.1865172826490884,51,1.7
1.4609425521398716,1.3141317971526407,-0.23721008002758026,0.9999645352363586,1.3726913745977578,1.4476669671878233,0.08134253323078156,0.9999110698699951,1.339594397874117,1.460469879379148,-0.29665738344192505,0.9999832510948181,1.3355903775547369,1.8909077857231846,0.12087208032608032,0.9999697804450989,1.3082768797737065,1.928788536766563,-0.12092643976211548,0.9999850988388062,1.5940672112575878,1.9604905566450013,0.14850068092346191,0.3305700123310089,1.591829038111799,2.0054057395408362,-0.1852998435497284,0.9915162920951843,1.5923943034089225,2.314131797152641,0.25198909640312195,0.6473603248596191,1.5841684795759332,2.375939222536538,-0.05541738122701645,0.988783061504364,1.4940152536667035,1.8909589370307465,0.010962281376123428,0.13477583229541779,1.4699696308618206,1.9709412022655348,-0.42233380675315857,0.977537214756012,0.004401028156280518,1.3219336286642218,1.9098481612448737,104.79597425491498,103.93613327226575,1.0,0.01423512784481434,0.028536304528225732,-0.0004311742118605192,-0.07512234896883643,148.9916552219015,1.1989162843534023,52,1.7333333333333334
1.437458574521674,1.3066303549334983,-0.2379113733768463,0.9999680519104004,1.3362027093643674,1.4392242492322478,0.0728645846247673,0.9999171495437622,1.3143348897806106,1.4491179480027396,-0.30017074942588806,0.9999848008155823,1.3272341796098273,1.8818911283195616,0.12104896456003189,0.9999712109565735,1.299348964086872,1.9213656392227476,-0.12110958993434906,0.9999860525131226,1.5825364682294198,1.9536122671888119,0.1469642072916031,0.3397560715675354,1.583050489372984,1.9918343477972693,-0.16471029818058014,0.9913802742958069,1.5914928292497017,2.3066303549334983,0.2713591754436493,0.6419188976287842,1.5769713004286157,2.36180512212231,-0.027825232595205307,0.9868930578231812,1.4578811627303256,1.8354319365582608,0.01227627880871296,0.13171780109405518,1.4429364036056735,1.9610206961689718,-0.41282743215560913,0.9794865846633911,0.003416508436203003,1.3132915718483495,1.9016283837711545,107.14478123296774,103.00803408990792,1.0,-0.020298240477707938,0.0035512691793122635,-0.26565737176113524,-0.19156535641340602,145.92287518631701,1.1907769796758136,53,1.7666666666666666
1.4198196941844574,1.3034439414019028,-0.20715007185935974,0.9999710321426392,1.3128722541622824,1.4360929499422872,0.06812910735607147,0.9999232888221741,1.295537311261365,1.4465384758592443,-0.30495551228523254,0.9999861717224121,1.3183616024701335,1.879162110094147,0.12116336822509766,0.9999731183052063,1.299381122068337,1.9186558720142095,-0.12122718244791031,0.9999870657920837,1.5714028129624087,1.9544472607471906,0.15999025106430054,0.34460389614105225,1.579929234647511,1.9865879902308925,-0.1541328728199005,0.9911600351333618,1.5977402043459015,2.303443941401903,0.30577027797698975,0.6380804181098938,1.574904191311231,2.3556700195685543,0.02088857814669609,0.9853499531745911,1.4257141350050955,1.8343826665912792,0.07555870711803436,0.12880511581897736,1.4288042151685942,1.962236931198398,-0.38789501786231995,0.9808669090270996,0.0036118030548095703,1.3088713622692352,1.8989089910541783,110.88456714035891,102.83161767368316,1.0,-0.020269078775050093,-0.0016939734541645303,1.909245730998921e-05,-0.039372436735436736,153.62149941410232,1.1823665828858858,54,1.8
1.400782857174821,1.300486176938458,-0.2231215536594391,0.9999737739562988,1.29003132891662,1.4303143089372823,0.03544889762997627,0.9999297857284546,1.279943512427223,1.4465725580032451,-0.3249164819717407,0.9999874234199524,1.3184190880492725,1.8724583926944804,0.12082185596227646,0.9999752640724182,1.2981881206565604,1.9104597962781367,-0.12089785188436508,0.9999881386756897,1.5638104327314677,1.953596715390497,0.1581791490316391,0.3547511398792267,1.5754941694480886,1.9806580836651175,-0.13008460402488708,0.9909958839416504,1.5945952993286292,2.300486176938458,0.31497156620025635,0.6235144734382629,1.5734725270658863,2.3454261545895507,0.037574805319309235,0.9839476943016052,1.394992622795283,1.8543085328161903,0.04696793109178543,0.12040974199771881,1.4168400779500967,1.96015870563942,-0.4046572744846344,0.9809096455574036,0.005630403757095337,1.3083036043529166,1.8914590944863086,113.36785441233329,103.88809934933298,1.0,0.010929919060541627,-0.0338847517325805,0.23397102977411272,-0.24167110368668743,148.29669391626027,1.1681220151580571,55,1.8333333333333333
1.3900598830507955,1.2906849292066134,-0.31443771719932556,0.9999763369560242,1.2923462816359044,1.4235511442444917,-0.021305816248059273,0.9999356269836426,1.269855654586736,1.4386141757431923,-0.3748275637626648,0.9999885559082031,1.3165740808802426,1.8628767407061673,0.1209268793463707,0.9999768137931824,1.2937283431761954,1.8983091592504655,-0.12100638449192047,0.9999889731407166,1.5557604259888569,1.9465104830892794,0.17386291921138763,0.34059906005859375,1.5694081551911523,1.9646702165738068,-0.15437431633472443,0.9882408380508423,1.5856065127208432,2.2906849292066136,0.3447645604610443,0.5900103449821472,1.568779322330643,2.327241536415163,0.01628202572464943,0.9756860733032227,1.4063327752655876,1.8643552689768306,-0.06495287269353867,0.11082299053668976,1.4114434558460809,1.9513207974560198,-0.5009661912918091,0.9780920147895813,0.005239903926849365,1.305151212028219,1.8805929499783165,114.22882794907214,103.43524579701165,1.0,0.01978693579309606,-0.01772386979845197,0.06540462741529846,0.11757339419440076,144.03078380330203,1.174463211469562,56,1.8666666666666667
1.3754756092069622,1.289104651917324,-0.24730953574180603,0.9999786019325256,1.2624576097216293,1.4223726502469667,0.022143816575407982,0.9999409317970276,1.2592255302348174,1.4417250632504814,-0.33910292387008667,0.9999895691871643,1.307831023408799,1.8684677623291996,0.12138794362545013,0.9999786615371704,1.301141119670065,1.895011477285043,-0.12147961556911469,0.999989926815033,1.5435891140515288,1.9467204687409845,0.20931124687194824,0.3549840450286865,1.568630089679826,1.953873932549142,-0.14962658286094666,0.9889222383499146,1.5820665687668891,2.2891046519173237,0.37843212485313416,0.5981227159500122,1.571486099104777,2.319558707935241,0.012600259855389595,0.9766424298286438,1.3811326685804892,1.8909838550973717,0.009857642464339733,0.102837935090065,1.4002765437577591,1.9505857806993618,-0.42909178137779236,0.9778815507888794,0.006737172603607178,1.304486071539432,1.8817396198071212,114.774061651954,102.85793172105029,1.0,0.00243413469476749,0.018985872941188787,-0.12748359991506414,0.2698262165638076,160.04643544293327,1.1872808098091137,57,1.9
1.3225102960153972,1.257264412022525,-0.23226621747016907,0.999980628490448,1.2113650653516916,1.3870121883293607,0.028436634689569473,0.999945342540741,1.2180357902053611,1.406869072567977,-0.3247582018375397,0.9999904632568359,1.2703471001555824,1.8219249741634786,0.12076304107904434,0.9999802112579346,1.275087335160491,1.846864382983819,-0.1208706647157669,0.999990701675415,1.4888101264977776,1.9194392859482285,0.21309594810009003,0.3836364150047302,1.5292113112436119,1.8977784138107419,-0.13452813029289246,0.9894685745239258,1.5144636538452712,2.310777573941266,0.3569938540458679,0.6239718794822693,1.5351160150550671,2.257264412022525,0.012767125852406025,0.9777190685272217,1.3265691227598786,1.859347188189591,0.026245901361107826,0.09593012928962708,1.3532352498184037,1.9018369902215495,-0.42329445481300354,0.9791502952575684,0.007091909646987915,1.2727172176580366,1.8343946785736487,117.80488891895088,102.27029862464595,1.0,0.00902391212035706,0.001385047736160246,0.050969672027161905,-0.1312034772814676,176.96138266904845,1.1237830943620075,58,1.9333333333333333
1.3074178927601598,1.2573865674674023,-0.24044036865234375,0.9999825358390808,1.2055286429028471,1.388750472216477,0.03961680456995964,0.999949038028717,1.2068224701424803,1.4084656248941008,-0.3209018111228943,0.9999913573265076,1.2680132953456775,1.8245271116110249,0.12151788175106049,0.9999816417694092,1.273994064136638,1.8473574323576503,-0.12164141237735748,0.9999914169311523,1.4946653518891246,1.9153722968893225,0.19867043197155,0.39829209446907043,1.5302805320608903,1.894026860123929,-0.1348889172077179,0.9899401664733887,1.5185425200158855,2.2885143764981346,0.3427486717700958,0.6399350166320801,1.5364183863860095,2.2573865674674023,0.006290918681770563,0.978665828704834,1.322873039331313,1.864161244210914,0.027662644162774086,0.08855098485946655,1.343562005466443,1.9024528881118636,-0.4117085039615631,0.9803149104118347,0.007039368152618408,1.2710036797411577,1.8359422719843375,115.50291061131182,101.28814828889615,1.0,-0.01574180424334424,0.007995057892711557,-0.18917640479781067,0.050483580787959885,173.48016591823514,1.144038309535504,59,1.9666666666666666
1.2960350186183867,1.25709174742532,-0.235239177942276,0.999984085559845,1.187042080040125,1.3877899523615576,0.031245972961187363,0.9999523162841797,1.196113673522747,1.4095355973509616,-0.32242438197135925,0.9999921917915344,1.2662274127859103,1.8220391909657316,0.12020500749349594,0.999983012676239,1.2690227987430567,1.8450780367108501,-0.12034223228693008,0.9999921321868896,1.4999058110023094,1.8972388858234128,0.1696096658706665,0.3953714072704315,1.5299216504381832,1.8913095674497507,-0.14620907604694366,0.9891867637634277,1.536267769726338,2.2745822021337605,0.30677729845046997,0.6326366662979126,1.5355893419768076,2.25709174742532,-0.014336603693664074,0.9770809412002563,1.310882091226007,1.8647869801939476,0.012241316959261894,0.08112762123346329,1.3371078454846594,1.9017247515504476,-0.4298141598701477,0.9815698266029358,0.007768124341964722,1.2676251057644834,1.8335586138382909,113.3428185184114,100.93626977817028,1.0,-0.022897590680637542,-0.012386082173708193,-0.059361710179847774,-0.16886227796304232,176.58374858336987,1.1344191093518616,60,2.0
1.2786187608060902,1.2557261859277618,-0.2008904218673706,0.9999853372573853,1.1591534126407834,1.3888851382212701,0.03863612189888954,0.9999552369117737,1.1810186379842278,1.4132980670559359,-0.3221915662288666,0.999992847442627,1.255213928079198,1.826929026700086,0.12028558552265167,0.9999843239784241,1.2683033413280898,1.8434109604842996,-0.12041588127613068,0.9999927282333374,1.5001613620557792,1.8957346074267887,0.18901760876178741,0.41426146030426025,1.5287011087973659,1.8836444553797242,-0.13608905673027039,0.9894225597381592,1.528363882104348,2.266747481051627,0.3232731223106384,0.6516925692558289,1.535613839263389,2.2557261859277618,-0.005237992387264967,0.9778842329978943,1.3108146583425182,1.8699065100254513,0.05254305154085159,0.07591138035058975,1.3323704952814934,1.9001872333275323,-0.4043617844581604,0.9825621843338013,0.00872918963432312,1.261758634703644,1.8351699935921928,110.03699456406362,99.84754219889273,1.0,-0.03296423946807646,0.023592953570890734,-0.07121284232645894,0.25389271219231546,153.9133895840724,1.148946708988244,61,2.033333333333333
1.2689790368830132,1.2592677164992758,-0.20525822043418884,0.999985933303833,1.1577130052143756,1.392819014708037,0.03157063201069832,0.9999551177024841,1.1712261317398966,1.4164706805655454,-0.319638192653656,0.9999934434890747,1.2602073978091357,1.8281671455520847,0.11708544194698334,0.9999852776527405,1.2705132513432518,1.8458705577515777,-0.11722608655691147,0.9999932646751404,1.5035874452565714,1.8937439600115717,0.18834546208381653,0.4122422933578491,1.5315791780648076,1.883917005810495,-0.14474834501743317,0.9887408018112183,1.5346041921224567,2.26029815157047,0.3233635425567627,0.649347186088562,1.538922802112133,2.259267716499276,-0.021102391183376312,0.9765673875808716,1.3131404683712289,1.8732083959335302,0.012004779651761055,0.06899616122245789,1.332292100206513,1.9049828991360025,-0.41170734167099,0.9838528037071228,0.008442610502243042,1.2653603245761937,1.837018851651831,109.91645404355093,99.41246099983893,1.0,0.011693642628771352,-0.010275997209076909,0.3599123549675802,-0.2729415644166536,163.04257398011572,1.1500363367821727,62,2.066666666666667
1.2773729154368951,1.2806973377382627,-0.19549301266670227,0.9999861717224121,1.1658082163876704,1.417306993764308,0.02642332948744297,0.9999561905860901,1.1781310552763138,1.4352378443592761,-0.30160969495773315,0.9999939203262329,1.2783268712701867,1.8520245908614803,0.10960043966770172,0.9999859929084778,1.289330312346305,1.866570873495999,-0.10974949598312378,0.999993622303009,1.5224778116657538,1.9195530238547327,0.18503010272979736,0.4135633409023285,1.5520711677952226,1.9042795793559795,-0.13341322541236877,0.9872591495513916,1.5557856486535917,2.284952368190915,0.3017804026603699,0.657958447933197,1.5627128043932894,2.2806973377382627,-0.01463919598609209,0.9754381775856018,1.3285415599736814,1.8966526699004898,0.01747610978782177,0.06396329402923584,1.3485292060045502,1.9299408813005539,-0.394245982170105,0.9848079681396484,0.006317079067230225,1.283828591808246,1.8592977321787396,110.66901475972887,99.78671480315336,1.0,0.013542409478709697,-0.015367871234763898,0.013092804587055112,-0.038298972117580266,157.40604659349233,1.145344061256213,63,2.1
1.2699070052873693,1.2874118075734382,-0.1984938085079193,0.9999870657920837,1.1567735998027953,1.4202679748976093,0.02914629876613617,0.9999545812606812,1.1746127580500034,1.438714960567959,-0.2989453375339508,0.9999944567680359,1.2780506038377077,1.8555368558549308,0.10962843894958496,0.999986469745636,1.291723922545759,1.869946300380545,-0.10979004204273224,0.9999940395355225,1.5234193752283698,1.9244983028233873,0.16798920929431915,0.4165589511394501,1.555655936777129,1.9067978730449653,-0.13742689788341522,0.9866567850112915,1.55931952159708,2.289393860892148,0.27834948897361755,0.6638075113296509,1.5675063667972235,2.287411807573438,-0.03353046625852585,0.9751138687133789,1.3202769718967158,1.8858914249609995,-0.007269187364727259,0.05828915536403656,1.3491641228167544,1.9358845521355748,-0.4109715521335602,0.9861776828765869,0.006483256816864014,1.2848872631917334,1.8627415781177379,111.3170839652633,99.73188057944003,1.0,-0.015372995716541148,-0.007879298718170717,-0.2179415168042819,0.0566586105949862,152.07072687576436,1.1313828920052125,64,2.1333333333333333
1.2635563386402404,1.2880740138826907,-0.20124979317188263,0.9999879598617554,1.158891864132075,1.4211901098993347,0.026347795501351357,0.9999547004699707,1.1680767815682993,1.4390198051478105,-0.2981973886489868,0.9999949336051941,1.2792834746868271,1.850509702713765,0.10784964263439178,0.999987006187439,1.2916730227052822,1.8601521701360109,-0.10800689458847046,0.9999943971633911,1.5214364627485544,1.9294268999877642,0.1535879671573639,0.42718634009361267,1.55569572993765,1.9068748411696965,-0.13907380402088165,0.9862244725227356,1.5577421553199047,2.2898389222238795,0.25796112418174744,0.6762739419937134,1.5686099002251035,2.2880740138826905,-0.0406586192548275,0.9752961993217468,1.32443507712507,1.8820377458387838,-0.001297231181524694,0.05367986112833023,1.3464402127760065,1.9359482592029151,-0.40969690680503845,0.9874404668807983,0.006266534328460693,1.2854782486960545,1.855330936424888,113.8029110306836,101.97573708296947,1.0,0.004974543067347232,-0.05731081265377211,0.15879691896853781,-0.3857877664872937,143.5574895918257,1.1024476547135598,65,2.1666666666666665
1.2619689283382418,1.286856509969464,-0.2040150910615921,0.9999886751174927,1.1617294951140962,1.420503127546176,0.02135615423321724,0.9999558925628662,1.1647844613726968,1.4381799176919163,-0.2959234118461609,0.9999953508377075,1.2807522550406605,1.8410337956330871,0.10547956079244614,0.9999876022338867,1.2904330516995268,1.8541649559753863,-0.10562919080257416,0.9999947547912598,1.5222075480571844,1.9268045303765808,0.14515385031700134,0.4352537989616394,1.5548211411359498,1.904993269515545,-0.13973429799079895,0.9860158562660217,1.5579933029878945,2.2868565099694638,0.25743982195854187,0.6852549314498901,1.5673216654654754,2.2872902099309496,-0.04148571938276291,0.9756626486778259,1.3284171349617844,1.8814799184969475,0.0021677291952073574,0.05050980672240257,1.346110279951715,1.9348331488117103,-0.40099143981933594,0.9885695576667786,0.006216764450073242,1.2855926533700937,1.8475993758042368,115.23227992302509,102.75509433019627,1.0,0.0068462987309268605,-0.04790734745111347,0.013720927907431164,0.06854748837507017,159.40403203401186,1.0802969588395335,66,2.2
1.27309873307428,1.301062258337128,-0.20374950766563416,0.9999891519546509,1.1764578352113935,1.4366046980264902,0.01748017966747284,0.9999567270278931,1.1712972762031064,1.4543686168910062,-0.29604580998420715,0.999995768070221,1.3045206263829658,1.8529191838052606,0.10291705280542374,0.9999881982803345,1.3048457428001796,1.875370897504693,-0.10305969417095184,0.9999951124191284,1.541683540899971,1.9411660967846038,0.14704546332359314,0.43420863151550293,1.5723613683545012,1.9253229698262144,-0.1451198160648346,0.985388994216919,1.5761153746816747,2.301062258337128,0.27024370431900024,0.6872243881225586,1.583231945113082,2.3133181360974686,-0.04017319157719612,0.9754107594490051,1.341377036840643,1.9004153160853103,-0.008901630528271198,0.04683705419301987,1.3596973555198582,1.958739521765233,-0.3984432816505432,0.98961341381073,0.006177991628646851,1.3046831845915727,1.8641450406549767,115.87487979082681,102.18165121994299,1.0,0.036379515156828864,-0.032996521203861436,0.23066301036627662,0.1209771290373822,163.73116713581592,1.0815345176633206,67,2.2333333333333334
1.2850787171014628,1.317511390221062,-0.20077964663505554,0.9999895095825195,1.1905543123740188,1.455947873578029,0.02222941815853119,0.9999570846557617,1.1854631172616217,1.4741316928371304,-0.2883201837539673,0.9999961256980896,1.3266410133714177,1.876216846929195,0.10293164104223251,0.9999887943267822,1.3220701693688615,1.9003462092530146,-0.10307113826274872,0.9999954700469971,1.5647172262777398,1.964254699673216,0.1541718989610672,0.43870779871940613,1.592752129642159,1.951228128436368,-0.14605297148227692,0.9857743382453918,1.600123842696167,2.317511390221062,0.27774256467819214,0.6950529217720032,1.6000620428646062,2.343383125885823,-0.03735893964767456,0.9762765169143677,1.3554968476444065,1.9184740441141432,-0.00035625218879431486,0.04389594495296478,1.3755008976165142,1.9865220816787195,-0.38320696353912354,0.9905365109443665,0.006243497133255005,1.3243555913701397,1.8882815280911047,116.01740756835856,101.71393257945937,1.0,0.021249346443738246,0.0006924800366744206,-0.11652963738931808,0.2548407522120987,151.33111525022719,1.097909273332253,68,2.2666666666666666
1.2834205698120271,1.3199649198730101,-0.1982387900352478,0.9999900460243225,1.1921633626270716,1.4598766699065806,0.023469097912311554,0.9999579191207886,1.1832691380460745,1.476948488152282,-0.28095129132270813,0.9999964833259583,1.3325774500602179,1.8798418680828592,0.10228186845779419,0.9999893307685852,1.3247760006567957,1.9051949479607675,-0.10242830216884613,0.999995768070221,1.5689805960003647,1.9643265652297637,0.14587368071079254,0.43951013684272766,1.59601584519659,1.9558551876772878,-0.14753279089927673,0.9858527779579163,1.6034950715969947,2.3199649198730103,0.2749629318714142,0.6960257291793823,1.5999152218668444,2.348635722590085,-0.03893548995256424,0.9766380190849304,1.3568065326126206,1.9213353199548313,-0.008339261636137962,0.041571762412786484,1.3742842387814214,1.9914861811990836,-0.38614895939826965,0.9914093613624573,0.005850076675415039,1.3286767253585068,1.8925184080218134,115.20880526229392,101.14819465357839,1.0,0.01237505320570765,0.003578052886808253,-0.06518039594574554,0.021083829568001044,144.4090333853451,1.1058924880696301,69,2.3
1.278500719000491,1.3149053055151583,-0.18347683548927307,0.9999902844429016,1.185995276960654,1.4573974757676067,0.03066260553896427,0.9999591112136841,1.1772259250166992,1.4726399566561894,-0.2768630385398865,0.9999967813491821,1.3317404876057288,1.8746966371172482,0.10296584665775299,0.9999898076057434,1.3232586838289102,1.899725988102131,-0.1031130999326706,0.9999960064888,1.5644351130998222,1.9590580317466704,0.15510444343090057,0.4361521303653717,1.5914261391863203,1.950604497180493,-0.14369092881679535,0.985876739025116,1.5987237578695281,2.314905305515158,0.27663689851760864,0.6964636445045471,1.5953231279170508,2.3420095818749616,-0.04016966372728348,0.977062463760376,1.3514942489065842,1.9156991326988833,0.000570587522815913,0.041118063032627106,1.3642695040860715,1.9864094469111595,-0.38182392716407776,0.9921538829803467,0.005238533020019531,1.3274995857173195,1.8872113126096894,115.4315688019135,101.31329073479066,1.0,0.020562690168549367,0.0017367281482069989,0.062412390492037687,-0.01389476195427847,142.0276204412702,1.110909786894889,70,2.3333333333333335
1.273006506195607,1.3077318319505673,-0.18388545513153076,0.9999904036521912,1.1859374511058527,1.45306014907215,0.03206382691860199,0.9999603033065796,1.1679249552961621,1.4679217223395058,-0.2791251242160797,0.9999970197677612,1.329950024022424,1.8682756878720386,0.10333242267370224,0.9999904036521912,1.318780763873317,1.8954472190435323,-0.10347886383533478,0.9999962449073792,1.5648564817928352,1.9512672412108962,0.15138939023017883,0.44087058305740356,1.5864892839588816,1.9448445492437216,-0.144110307097435,0.9860825538635254,1.5949070732423738,2.307731831950567,0.2748904526233673,0.7034800052642822,1.5904219077590787,2.334908895454307,-0.03700762987136841,0.9776087403297424,1.3457840775674474,1.9089028883788002,0.0017509631579741836,0.04058552533388138,1.3554462958355888,1.981677607141826,-0.3854568898677826,0.9928491711616516,0.005123734474182129,1.3243653939478706,1.8818614534577855,114.27686096691544,101.03220884701163,1.0,0.008221120569674207,0.004619896725017617,-0.0970326477038381,0.022830777553474634,138.52566625998315,1.119505926981398,71,2.3666666666666667
1.2685032529872136,1.3049997911099862,-0.18874023854732513,0.9999905228614807,1.1829578722359622,1.4517510680149337,0.02780042588710785,0.9999611973762512,1.1660755884915068,1.468058645267122,-0.28240877389907837,0.9999971985816956,1.3290394926424103,1.8609272437808608,0.10280811786651611,0.9999908208847046,1.3168495518877614,1.8924877626705605,-0.10294653475284576,0.9999964833259583,1.5619902695233614,1.951766087379556,0.1542510688304901,0.43585994839668274,1.5842242808918119,1.9431615451784214,-0.14316226541996002,0.9858399033546448,1.591532151280565,2.3049997911099864,0.2782270014286041,0.7050038576126099,1.5881600449683229,2.3316469061317333,-0.036471087485551834,0.977687656879425,1.3441145324955175,1.9048483544818646,0.002610456431284547,0.03930753096938133,1.353038106717592,1.9828896636042124,-0.38722580671310425,0.993422269821167,0.005630373954772949,1.322944522265086,1.8767075032257106,116.0839047749233,101.3120585892236,1.0,0.0036766783580824552,-0.018461979771281268,-0.034246349875604244,-0.17434627285711504,139.23415981752206,1.1129560932978961,72,2.4
1.2680920761788337,1.3038694702152933,-0.185395747423172,0.9999905824661255,1.1788407349028658,1.451132026824398,0.0282027218490839,0.9999623894691467,1.1644512118171852,1.4675505540944576,-0.287236750125885,0.9999973773956299,1.3286280310525107,1.8586942898308523,0.10292760282754898,0.9999913573265076,1.3154305328296794,1.891313279470958,-0.10307823121547699,0.9999967217445374,1.5619809367457385,1.9513587608393048,0.15400059521198273,0.42721086740493774,1.5832465774895088,1.9421957220462664,-0.1431349366903305,0.9850797057151794,1.5904228794245157,2.3038694702152935,0.2750301659107208,0.7015268802642822,1.5871115363146635,2.330292242332556,-0.04232696443796158,0.977375864982605,1.3391029958994656,1.9036125538789803,0.0034112047869712114,0.03708413988351822,1.3502040347354614,1.9843133012947,-0.4119758605957031,0.9939337968826294,0.00567251443862915,1.322029281941095,1.8750037846509051,116.27088893118842,101.32800487770997,1.0,-0.00015520992320890408,-0.0031973244181034235,-0.028123917979322503,0.1120150984274277,137.79257169315835,1.1110896269073511,73,2.433333333333333
1.2666711605701004,1.3027130131777684,-0.18804273009300232,0.9999908804893494,1.1771176068895333,1.450620994815748,0.027668338268995285,0.9999640583992004,1.1648499401167254,1.4677512145176297,-0.2943926453590393,0.9999975562095642,1.3273366157217774,1.857070079550711,0.10442955791950226,0.9999918937683105,1.313725001728314,1.891047609918608,-0.1045764833688736,0.9999969601631165,1.5611086103477125,1.9502502477824568,0.16302940249443054,0.4201878011226654,1.5837639176677814,1.9455440620048337,-0.14372631907463074,0.9852187633514404,1.5898448241352268,2.3027130131777684,0.2915586531162262,0.6979830861091614,1.5860228799450249,2.3311651111267038,-0.0464271679520607,0.9777263402938843,1.335099805170322,1.9063157330352416,0.00012494847760535777,0.035496775060892105,1.3451810902290184,1.9866555204069476,-0.41091346740722656,0.9943140745162964,0.005922496318817139,1.3205308087250456,1.8740588447346593,116.3929442601415,101.74522763970118,1.0,-0.004557384546202218,0.0027443834046113696,-0.034343757043857163,0.046336111590605224,137.88490267268722,1.1092677062367082,74,2.466666666666667
1.265037016759379,1.30128550621184,-0.17836116254329681,0.9999907612800598,1.1775374549893658,1.4508018252074368,0.038015104830265045,0.9999648928642273,1.162384474176991,1.4654710517976215,-0.28225380182266235,0.9999976754188538,1.3260487091230482,1.8559766516231393,0.1045881137251854,0.9999922513961792,1.3112803370361148,1.8903800528563508,-0.10473431646823883,0.999997079372406,1.5586064880778616,1.9524037873062927,0.17728464305400848,0.400777667760849,1.584640321069469,1.9465911564456504,-0.14084386825561523,0.9845825433731079,1.5887091626719185,2.30128550621184,0.2991798222064972,0.6838675737380981,1.5849500753755577,2.3304561614533164,-0.0434504970908165,0.9772334098815918,1.333546124319839,1.9043727470994773,0.00704846391454339,0.03469988331198692,1.3407110446274468,1.9871949843921213,-0.3886038661003113,0.994644045829773,0.005075275897979736,1.3186645230795815,1.873178352239745,117.45217769372377,101.66601460141423,1.0,-0.007110539078911487,0.0035403272466309078,-0.01970915378737036,0.006151607597937006,136.63785437991285,1.1097770599208348,75,2.5
1.2635125047848295,1.3004869462619957,-0.20364412665367126,0.9999914169311523,1.1777048212656331,1.4499960998151158,0.03169293329119682,0.9999656081199646,1.1638256732726442,1.4651250289069995,-0.2848924994468689,0.9999978542327881,1.3252213505591213,1.8552869545961657,0.10466189682483673,0.9999924898147583,1.3105043085419903,1.8901003664796243,-0.10480853170156479,0.9999971985816956,1.5572534226490022,1.951491515074602,0.17313693463802338,0.39093008637428284,1.584025393733565,1.946321746828237,-0.14073875546455383,0.9844954609870911,1.587922651326743,2.3004869462619957,0.2972908616065979,0.6743499040603638,1.5842607823753658,2.329346420276002,-0.04501466080546379,0.9772153496742249,1.3275910787876952,1.9033432591460198,-0.0067439512349665165,0.033345650881528854,1.3360459564036817,1.9873344724513498,-0.3956063687801361,0.9949237108230591,0.00523686408996582,1.3178628295505557,1.872693660537895,117.54192339995454,101.65039935291345,1.0,-0.0012226097323728008,0.003194948289216313,0.04436529620450384,-0.002590995694949688,137.08390695322873,1.1113029952153697,76,2.533333333333333
1.2622274669663707,1.2989229443581471,-0.2178800404071808,0.9999920129776001,1.1773578464805996,1.4488022620955836,0.026333948597311974,0.9999659061431885,1.1635719540891225,1.4639479376650477,-0.285612553358078,0.9999979734420776,1.323994452125928,1.8538500635586368,0.10471318662166595,0.9999926090240479,1.3091929808140323,1.8888164328842132,-0.10485938936471939,0.9999973177909851,1.5554324568183242,1.950209361529922,0.17132094502449036,0.3829978406429291,1.5829190723398456,1.945576325767091,-0.14078250527381897,0.9844112396240234,1.586716933163293,2.2989229443581474,0.29561740159988403,0.6652022004127502,1.582990820990386,2.3276428796088613,-0.045992858707904816,0.9771439433097839,1.3241979120282397,1.9003751921040009,-0.015527439303696156,0.03225962817668915,1.3334039349231137,1.986218409086373,-0.39971697330474854,0.9951650500297546,0.005246758460998535,1.3165937164699801,1.8713332482214249,117.73092832434405,101.72560023582612,1.0,-0.001803911810806304,0.0007678835644350306,-0.00437836149900493,-0.018231886665616093,137.15535234292355,1.11216542074136,77,2.566666666666667
1.2623093182463303,1.2979441768387823,-0.21048608422279358,0.999992311000824,1.1774361547885381,1.4480709389996387,0.026427945122122765,0.9999669194221497,1.1640000450587609,1.4635143993267328,-0.2892988920211792,0.9999980926513672,1.3232951471800567,1.8530862542488735,0.10508431494235992,0.9999929070472717,1.3086006597668862,1.8880491009788327,-0.10522650182247162,0.9999974370002747,1.553896082286928,1.9503777497775223,0.1788838654756546,0.37129026651382446,1.5823659959761838,1.9449431816764937,-0.14049102365970612,0.9841390252113342,1.5882853757062252,2.297944176838782,0.30507218837738037,0.6584389209747314,1.5822076023932394,2.3270707101802444,-0.045213762670755386,0.9770103693008423,1.3228841149724158,1.898904134820628,-0.005004487466067076,0.0312761515378952,1.3302657546796404,1.9912016750164392,-0.3988112807273865,0.9951726794242859,0.005352377891540527,1.3159479034734716,1.8705676776138531,118.52571335656619,101.716382118144,1.0,-0.0003189642280346281,0.0007477524835753343,0.011700458359561235,-0.00015592549668000527,137.39796403021538,1.1113021189432972,78,2.6
1.2633882082418666,1.298130620240244,-0.2082453966140747,0.9999924302101135,1.177396016847433,1.4459070528929994,0.025503817945718765,0.9999678730964661,1.1646037402732152,1.4634323806339151,-0.2948187291622162,0.999998152256012,1.323407101916098,1.8534470806830758,0.10621390491724014,0.9999932646751404,1.3087355205547833,1.890025192712381,-0.10635481029748917,0.9999975562095642,1.5553278131604142,1.9499886988856792,0.1757427304983139,0.3650573492050171,1.58274686226367,1.946466604261122,-0.13962514698505402,0.9840782880783081,1.5911573338727594,2.298130620240244,0.30150121450424194,0.6536943912506104,1.5822284214940658,2.3280314422113992,-0.03963477164506912,0.9768995046615601,1.3191709041545099,1.8992403311828534,-0.007643232587724924,0.03051523119211197,1.3284219068918908,1.9935894988050404,-0.406618595123291,0.9950850605964661,0.006072819232940674,1.3160713112354405,1.8717361366977283,118.47648261963258,101.56126353612862,1.0,-0.0008292864012822141,0.0061221128000109775,-0.003751509574948437,0.039511751308461414,138.43285029234426,1.1126287800556605,79,2.6333333333333333
1.2638531306001393,1.2979618298547455,-0.20662498474121094,0.9999924898147583,1.1773408652120885,1.4452846800268682,0.025115281343460083,0.999968409538269,1.164727327419933,1.4633026438139634,-0.2954132556915283,0.9999982118606567,1.3233059442924295,1.8532929582253848,0.10665832459926605,0.9999935626983643,1.30892332252408,1.8907405755989728,-0.10680071264505386,0.9999976754188538,1.5552351582307682,1.9496901480201816,0.17392785847187042,0.3553692400455475,1.582639448869973,1.9464127161467266,-0.13713309168815613,0.9832757115364075,1.5915374975373253,2.2979618298547453,0.2997649312019348,0.6438211798667908,1.5817382239005722,2.328229745635272,-0.034742146730422974,0.9759396910667419,1.3167694834218033,1.8985841566542263,-0.006700141821056604,0.029131116345524788,1.3269645048934022,1.996103749912823,-0.4110145568847656,0.9946839213371277,0.006244301795959473,1.3161146334082547,1.8720167669121788,118.52010646609946,101.3615385791333,1.0,0.0016525095599144266,0.004099844960951693,0.019825069866654617,-0.01614886318581006,139.30487719872306,1.1140174400835727,80,2.6666666666666665
1.2642491395809614,1.298267362283502,-0.20071402192115784,0.9999924898147583,1.1781250166631205,1.4444906950555212,0.030127590522170067,0.9999685287475586,1.16498974755824,1.4632423172909266,-0.2813474237918854,0.9999982118606567,1.3234339633870607,1.853550306799224,0.10635586827993393,0.9999937415122986,1.309263473734708,1.8910047014510631,-0.10649989545345306,0.9999977350234985,1.557909998336698,1.9498871379974705,0.16680249571800232,0.3520371913909912,1.5832291691213414,1.947446023100116,-0.13632872700691223,0.9831502437591553,1.5927390592316095,2.298267362283502,0.28318339586257935,0.6443235278129578,1.5814769398753332,2.32883788860762,-0.035769637674093246,0.9760723114013672,1.3169234349610242,1.8972676266573463,-0.004607957322150469,0.029040522873401642,1.326135237971721,1.9954647071238345,-0.38926178216934204,0.9943970441818237,0.00649791955947876,1.3163487185608844,1.8722775041251436,118.04493521789732,101.37774859223525,1.0,0.0007970992345591453,0.0005839938539850166,-0.006513070109689696,-0.02676757661219009,139.71996970322562,1.1132776818260313,81,2.7
1.2639403296647278,1.2976895857583985,-0.20683524012565613,0.999992847442627,1.1778301257069528,1.4436099015812893,0.02765735425055027,0.9999685883522034,1.1666332985152648,1.4623470140461723,-0.2823053002357483,0.9999982714653015,1.3228243571286793,1.8530394402953223,0.10635968297719955,0.9999938011169434,1.3098683736030614,1.8902055721689501,-0.10650371015071869,0.9999977946281433,1.5544092423102887,1.9516048046355625,0.17677709460258484,0.34488093852996826,1.583036795199525,1.9460211337738502,-0.13654378056526184,0.983080267906189,1.5883130607128142,2.2976895857583983,0.2954542636871338,0.640430748462677,1.5808141238659592,2.3274991362820923,-0.040206022560596466,0.976090669631958,1.3174102921820785,1.8955452787189107,-0.012584169395267963,0.028475288301706314,1.3264224438914318,1.994519829149334,-0.3925725519657135,0.9944326281547546,0.0064958930015563965,1.3163463653658705,1.8716225062321363,118.65026373003167,101.21426320077121,1.0,0.004455581120082466,0.0015450397641148619,0.026907241583810464,0.0070695310554834394,141.28067545477535,1.116599172280845,82,2.7333333333333334
1.265191762043158,1.2982817832785591,-0.2008483111858368,0.9999929070472717,1.179706356084059,1.443514546159597,0.028945449739694595,0.999968409538269,1.1673414606617265,1.4618753499225001,-0.28042739629745483,0.9999983310699463,1.3231932995745785,1.8530896722262562,0.10588890314102173,0.9999939203262329,1.3101100126683443,1.8901773095400791,-0.10603511333465576,0.9999978542327881,1.5523366291201024,1.9528057111650174,0.1753808557987213,0.3408052921295166,1.5830370552293218,1.9452762256947582,-0.1366714984178543,0.9832935333251953,1.584280937576104,2.298281783278559,0.29414650797843933,0.6424006819725037,1.5811603144280122,2.3265757655442525,-0.04364430159330368,0.9766467213630676,1.3371944977246926,1.9019803518166916,-0.008083350025117397,0.028277665376663208,1.3272867642236055,1.9942494296150421,-0.3877253234386444,0.9947264790534973,0.006365478038787842,1.3166516561214614,1.8716334908831675,118.79998499756321,101.13154450639995,1.0,0.002628168576135016,0.00020454070021804467,-0.01525643491532207,-0.011191466670430325,141.26190062876978,1.118051052693537,83,2.7666666666666666
1.2671820103458462,1.2986052055225072,-0.20074641704559326,0.9999931454658508,1.183162501586127,1.4435851180198809,0.030392011627554893,0.9999685287475586,1.1683555551581881,1.461676593786784,-0.2755345404148102,0.9999983906745911,1.3253260715942459,1.8532394988079546,0.105257049202919,0.9999940395355225,1.310397221208744,1.8907510143475283,-0.10540701448917389,0.9999979138374329,1.5550347366100796,1.9501742934298754,0.15655484795570374,0.3458946943283081,1.5831933472419617,1.9465842304765395,-0.13957607746124268,0.9836314916610718,1.5845745242392866,2.2986052055225072,0.2731660008430481,0.6469990611076355,1.581403645839602,2.328987660706039,-0.04863002896308899,0.9771662354469299,1.344291937454501,1.906057268381621,-0.00879378616809845,0.029700467362999916,1.327455608218218,1.9941241948578883,-0.38823986053466797,0.9950233697891235,0.006271660327911377,1.317861646401495,1.8719952565777416,117.72518369245596,101.29883635787598,1.0,0.008341288601086756,0.0017108359574465964,0.04267679069759524,0.011252227410028036,139.15995127071807,1.1171742355856007,84,2.8
