nose_x,nose_y,nose_z,nose_visibility,left_shoulder_x,left_shoulder_y,left_shoulder_z,left_shoulder_visibility,right_shoulder_x,right_shoulder_y,right_shoulder_z,right_shoulder_visibility,left_hip_x,left_hip_y,left_hip_z,left_hip_visibility,right_hip_x,right_hip_y,right_hip_z,right_hip_visibility,left_knee_x,left_knee_y,left_knee_z,left_knee_visibility,right_knee_x,right_knee_y,right_knee_z,right_knee_visibility,left_ankle_x,left_ankle_y,left_ankle_z,left_ankle_visibility,right_ankle_x,right_ankle_y,right_ankle_z,right_ankle_visibility,left_wrist_x,left_wrist_y,left_wrist_z,left_wrist_visibility,right_wrist_x,right_wrist_y,right_wrist_z,right_wrist_visibility,trunk_lateral_inclination,center_mass_x,center_mass_y,left_knee_angle,right_knee_angle,person_height,center_mass_velocity_x,center_mass_velocity_y,center_mass_acceleration_x,center_mass_acceleration_y,body_orientation,torso_leg_ratio,frame,timestamp
0.620378272969341,0.29303987692135847,0.4013884961605072,0.999997615814209,0.5365201630715106,0.4533323647412797,0.14626212418079376,0.9999977350234985,0.7058392543244162,0.4433641765149748,0.12109921127557755,0.9999954104423523,0.57735157928732,0.7467329949871314,0.02572268806397915,0.9999935030937195,0.6680564343819692,0.7295274815399238,-0.026038656011223793,0.9999935030937195,0.612076009114748,1.0523262700983693,0.13322758674621582,0.9949876070022583,0.6964595060059116,1.0564269758822602,0.052700258791446686,0.9826455116271973,0.6109052808029979,1.3016779643216825,0.23176690936088562,0.9953489899635315,0.7029197182206532,1.2930398769213585,0.17275771498680115,0.9928109049797058,0.5193684752829945,0.8317920241300832,0.13341321051120758,0.9934571385383606,0.7466989188934335,0.8041853699026748,0.14244979619979858,0.9910720586776733,0.007340550422668457,0.6227040068346446,0.7381302382635276,173.24830428840966,176.59820618847522,1.0,-0.10677463359460881,-0.04743742642309032,-0.5802518907219872,-0.2652566930255514,87.18209740913663,0.794424459150845,0,0.0
0.5869237810391469,0.2794269360631487,0.34367096424102783,0.9999977350234985,0.5040775759783246,0.42423170708430796,0.0890568196773529,0.9999979734420776,0.6871131812038194,0.4234910793068328,0.09946312010288239,0.9999958276748657,0.5592464087199106,0.7305057612749545,0.01984781213104725,0.9999940991401672,0.6532805455046856,0.7210556140998648,-0.02011210098862648,0.9999940991401672,0.581726610477293,1.0256939765513298,0.1379874050617218,0.9952800869941711,0.6706499510113247,1.0326163104045736,0.06131991744041443,0.9842962622642517,0.5882213314814929,1.2884340228992197,0.25161632895469666,0.9949365854263306,0.6830251326790334,1.2794269360631487,0.196003258228302,0.9926777482032776,0.48789298133807707,0.802098798971205,0.13611768186092377,0.9940466284751892,0.7194130697147545,0.7748978984793282,0.15325650572776794,0.9907853007316589,0.0005701184272766113,0.6062634771122981,0.7257806876874097,177.0610351318875,179.67951138715722,1.0,0.08414814397156845,0.1566207329670818,1.4842637612360863,1.60941846577638,94.47234668142762,0.7993457669173766,1,0.03333333333333333
0.5867957845229042,0.2761906455456361,0.24277690052986145,0.9999978542327881,0.5063964790750967,0.41569589588402006,0.0018316745990887284,0.999998152256012,0.6903726925166066,0.41858296963455777,0.00017341143393423408,0.9999961853027344,0.560979593380466,0.741963673579458,0.01858316734433174,0.9999945163726807,0.6586776445794195,0.7323582787823271,-0.01884501986205578,0.9999945759773254,0.5869400273143006,1.0353128104544467,0.1350700408220291,0.995381236076355,0.6768118467573456,1.034141436029791,0.07952570170164108,0.9855194687843323,0.5968970990331044,1.2833024727560796,0.22222724556922913,0.9946160316467285,0.6950332872245382,1.276190645545636,0.19540897011756897,0.9922710061073303,0.4895735360898519,0.8065660781694372,0.07774212956428528,0.994510293006897,0.7228916403364557,0.7796054778719516,0.032713502645492554,0.9910749793052673,0.002211242914199829,0.6098286189799428,0.7371609761808925,177.24194364933035,179.13367792128366,1.0,0.0038583377634630236,0.058943821851530395,-0.6165081445162833,-0.7521070955936737,93.88225924335485,0.8487583805721512,2,0.06666666666666667
0.5803217204194778,0.27279469212570123,0.2407749891281128,0.9999975562095642,0.5106735079423202,0.40150241873893483,0.017987016588449478,0.9999982714653015,0.686024931995443,0.4094580903001661,-0.027006134390830994,0.9999964237213135,0.5560056058325836,0.7420427114088076,0.0330938994884491,0.9999942779541016,0.6545911824852583,0.7327588934958421,-0.03330259025096893,0.9999945163726807,0.5827806871981523,1.0359509878701514,0.17468556761741638,0.9946206212043762,0.6727116491900321,1.0316464251522204,0.08090205490589142,0.9862489700317383,0.5951494314281309,1.2877129181965299,0.2701646685600281,0.9917746782302856,0.6905913859896856,1.2727946921257012,0.1934833824634552,0.989737868309021,0.4868782797349847,0.7956830802769939,0.07971424609422684,0.9947694540023804,0.7191617857301112,0.7742965026682925,-0.030774030834436417,0.9899590611457825,0.006139934062957764,0.605298394158921,0.7374008024523249,177.60732296996272,179.2290000053944,1.0,0.0007536196643961897,0.045063860842398086,-0.023756185779873845,-0.10376038200916232,92.20284313312926,0.8550481470348148,3,0.1
0.5850808079504733,0.27457475724950153,0.1960228830575943,0.9999858736991882,0.5074746186899236,0.3981419322960216,-0.02559429034590721,0.9999982118606567,0.6815621603359714,0.4052386594667919,-0.05744011327624321,0.9999957084655762,0.5563832164475438,0.7493226335689106,0.031837306916713715,0.9999854564666748,0.6554022639237768,0.7394573497159043,-0.031975239515304565,0.9999874234199524,0.585898975541032,1.0417559182306686,0.2049006223678589,0.9904454946517944,0.6754947395291888,1.036346906313243,0.09488950669765472,0.9839168787002563,0.6020689739883929,1.2890206171645633,0.34572166204452515,0.9805670380592346,0.6932948734506109,1.2745747572495014,0.23010475933551788,0.9775232672691345,0.48943130125922635,0.7995782339289741,0.02878221869468689,0.9942041635513306,0.7203748063899296,0.7790293823878954,-0.061179351061582565,0.9835324883460999,0.0054582953453063965,0.6058927401856603,0.7443899916424074,177.97812202668297,179.59853994340318,1.0,-0.011731666734295647,0.03526902524675103,-0.09878677750394663,-0.07870663540038703,92.23891814031307,0.8724464643506226,4,0.13333333333333333
0.5802296407224542,0.2757321657306494,0.27205929160118103,0.9999746680259705,0.504903671334478,0.3976577474260128,0.03761102259159088,0.9999979734420776,0.6797821335031594,0.40087208213653575,-0.006659616716206074,0.9999953508377075,0.5520768222491467,0.7505821406273843,0.031264934688806534,0.9999792575836182,0.6509009111787271,0.7400828816911754,-0.03139815479516983,0.9999832510948181,0.5834168648693403,1.0431930005453882,0.2047128975391388,0.9860026836395264,0.6731607634280807,1.0383140233145072,0.10026349872350693,0.9821231961250305,0.6014686878285026,1.2950970410880038,0.33547332882881165,0.9665775299072266,0.6904824881258909,1.2757321657306495,0.22316916286945343,0.965185821056366,0.48711174779859046,0.793044060923675,0.10304653644561768,0.9915818572044373,0.7173509821562236,0.7745313198733621,0.00019359202997293323,0.9808753132820129,0.00248757004737854,0.6014888667139369,0.7453325111592799,177.98554429793592,179.9042147584337,1.0,-0.005061558567538956,0.04183916850622529,0.04990910598118633,0.05134447135367299,91.548772366032,0.8674487655121782,5,0.16666666666666666
0.5777238132978811,0.2743879504760832,0.2460520714521408,0.9999557733535767,0.5062343144976216,0.3969688689124555,0.009512871503829956,0.9999977350234985,0.680878831787936,0.3956846641064429,-0.024214161559939384,0.9999949336051941,0.5526663939869607,0.7581055702919206,0.028866034001111984,0.9999755620956421,0.6517366226027537,0.7474865066598215,-0.029000017791986465,0.9999806880950928,0.5837700282220792,1.0500922504558852,0.20184031128883362,0.981395423412323,0.6743648680733341,1.044891412122169,0.1114748865365982,0.9787080883979797,0.600131428374837,1.3003785506328414,0.32548972964286804,0.9528826475143433,0.6913221324603258,1.2743879504760833,0.22872014343738556,0.9493230581283569,0.48818675602158995,0.7955045456849904,0.07361496984958649,0.9881868958473206,0.7207470605363234,0.7816547951374977,-0.031181182712316513,0.9781556129455566,0.0009911954402923584,0.6022015082948572,0.7527960384758711,177.6596912717727,179.87484372339105,1.0,-0.006779752006170461,0.04144719007629176,-0.012913176341006355,-0.003816418663019749,91.20842344472449,0.8931242918624344,6,0.2
0.5722013635533981,0.27435993438974315,0.2603238821029663,0.9999047517776489,0.4987507006165079,0.3952022965935622,0.022394759580492973,0.9999971985816956,0.678294031032877,0.3921349369080306,-0.020145224407315254,0.999994158744812,0.5500408953732363,0.7563815346146711,0.02963373064994812,0.9999692440032959,0.64992262671139,0.7438722937638896,-0.0297744981944561,0.9999761581420898,0.5807013407979623,1.038685067671513,0.20212411880493164,0.978247880935669,0.6718239117272903,1.038340823207645,0.10036087036132812,0.977499783039093,0.6001888383923945,1.2912231447643145,0.30621933937072754,0.9432889819145203,0.6895754204838261,1.2743599343897432,0.18693813681602478,0.9407229423522949,0.48803432277275377,0.789480070689324,0.09562861919403076,0.9841760993003845,0.7138446551865061,0.7772503169658204,-0.004934732802212238,0.976164698600769,0.0023772120475769043,0.5999817610423132,0.7501269141892803,178.21408517241076,179.9523371177714,1.0,0.0017577270113901496,0.0029686367929001073,0.06208713179204717,-0.2795030103694337,90.94380945095212,0.8915403795272177,7,0.23333333333333334
0.5739448605199177,0.2739447697910578,0.22230181097984314,0.9998633861541748,0.5007949295925709,0.397059836706198,-0.008853868581354618,0.9999962449073792,0.6825979209076376,0.39234996646217346,-0.041953541338443756,0.9999929666519165,0.5528852250387485,0.7620816528466344,0.027204226702451706,0.9999580383300781,0.6532090286180251,0.7485506981576115,-0.0273553766310215,0.9999673962593079,0.5818993106170275,1.0441157498718068,0.17320145666599274,0.9747779369354248,0.6743201285971556,1.0398385983773317,0.11406426131725311,0.9728720784187317,0.605163502960975,1.299500271231031,0.25701257586479187,0.9348784685134888,0.6904716416234744,1.2739447697910578,0.18708063662052155,0.9259036183357239,0.48781904248583485,0.7920628694631193,0.0464065745472908,0.9786478877067566,0.7155060891516062,0.7777496389618758,-0.04126662388443947,0.9752498865127563,0.0036356449127197266,0.6030471268283868,0.7553161755021229,179.33137363656573,179.80144526062804,1.0,0.00530578425042506,0.01738421365307339,0.028057785316837287,0.11412938859974536,90.44024598470476,0.9042924220390253,8,0.26666666666666666
0.5683809013342104,0.27261707028330645,0.20717301964759827,0.99980229139328,0.4940903699867695,0.39541655049029223,-0.024518616497516632,0.9999950528144836,0.67494625000103,0.3872684479250968,-0.048137713223695755,0.9999908804893494,0.547937130166019,0.7581877968917632,0.02330784872174263,0.9999302625656128,0.6479680213114599,0.7438305721764934,-0.02346624806523323,0.9999444484710693,0.576768520951159,1.0398851468017412,0.16302034258842468,0.9669786095619202,0.6690583237052832,1.0328014367036904,0.12188708782196045,0.9574295878410339,0.5995501609898398,1.2947058395035294,0.241959810256958,0.9131594300270081,0.684720876107304,1.2726170702833064,0.20458760857582092,0.8899981379508972,0.4854670278752965,0.7861667921393869,0.025274822488427162,0.9695765972137451,0.7096659120416652,0.7718887548507329,-0.04069957137107849,0.9705723524093628,0.00633549690246582,0.5979525757387395,0.7510091845341283,179.2650041411017,179.56244215026075,1.0,-0.005589235455708999,0.008790380177600813,-0.08266247328379948,-0.06447628665939044,90.27510463453747,0.8967644122752078,9,0.3
0.5720608267157521,0.27334497263791635,0.1990426629781723,0.99978107213974,0.49643371858858426,0.39541726756930734,-0.030445780605077744,0.9999938607215881,0.6791003649732944,0.38866087606552147,-0.057686947286129,0.9999895691871643,0.548757627921085,0.7618068246334926,0.023438360542058945,0.9999100565910339,0.6499558857830722,0.7461911283760732,-0.023598557338118553,0.9999299645423889,0.5785839500788487,1.0409125972738242,0.18137617409229279,0.9622211456298828,0.6714039394008217,1.0366096173819803,0.12095977365970612,0.9510697722434998,0.6002103105556641,1.292883035181201,0.2704828381538391,0.9002482891082764,0.6883517832791666,1.2733449726379162,0.2165839970111847,0.8702890276908875,0.48629345828249304,0.79052761349596,0.03042132593691349,0.9610683917999268,0.7129158992583938,0.7733910781916923,-0.05288218334317207,0.9686521291732788,0.0052352845668792725,0.5993567568520786,0.7539989765047829,178.80591522842315,179.8710558807775,1.0,-0.005099684401208215,0.0030285340361696643,0.003914973310972874,-0.0445621398850959,89.35541920849604,0.9066106869706309,10,0.3333333333333333
0.5695583607280759,0.26521371474046257,0.18834355473518372,0.9997426271438599,0.49439806757548027,0.3904849037172435,-0.03538694232702255,0.9999927282333374,0.6772233835158357,0.38662931503397224,-0.08374302834272385,0.9999884366989136,0.5469122781789589,0.7575703172931818,0.024810347706079483,0.9998981952667236,0.6474363122539346,0.7414550799219017,-0.02497709169983864,0.9999218583106995,0.5753086901694532,1.0356000094285873,0.18148379027843475,0.9573407769203186,0.6675166032126439,1.0295557726458675,0.12196759134531021,0.9449540376663208,0.5978178173267803,1.289596439068051,0.2681766152381897,0.8919377326965332,0.684136304413984,1.2652137147404625,0.21536393463611603,0.855033814907074,0.4823092499010161,0.7887062959315053,0.02318490855395794,0.9536186456680298,0.7093783836790007,0.7677971610355487,-0.08070967346429825,0.9680081605911255,0.003005295991897583,0.5971742952164468,0.7495126986075418,179.23266193946898,179.95291561399597,1.0,0.010622461415094918,-0.000279889384630754,0.12298878873892649,-0.02579016468733596,89.03361315645664,0.9157608503525859,11,0.36666666666666664
0.5714582410690311,0.26778195228341756,0.16758200526237488,0.9997186660766602,0.4950465673081317,0.39162954300802555,-0.05996081233024597,0.9999918937683105,0.6780298926280619,0.3862771453432069,-0.10159425437450409,0.9999868273735046,0.5467110895632155,0.7586569325612493,0.025008317083120346,0.9998818635940552,0.6480344554301033,0.7425506532815532,-0.02517523244023323,0.9999082088470459,0.5760180925686487,1.0389029119452011,0.18466129899024963,0.9513140320777893,0.6688482665710997,1.0300682236138945,0.11980519443750381,0.9345072507858276,0.5959639846146492,1.290884080974744,0.27062925696372986,0.8790332078933716,0.6847253998822274,1.2677819522834175,0.21436388790607452,0.8325088620185852,0.48270330166578196,0.7904843879460407,0.005951683036983013,0.9483600854873657,0.710814932921637,0.7687280128360061,-0.0997920036315918,0.9642444849014282,0.004162818193435669,0.5973727724966593,0.7506037929214013,178.55582060215588,179.68066467800935,1.0,-0.00865801052339783,-0.004355230881417596,-0.1492852477148186,-0.03151153956886454,88.98045954406705,0.9114808682927867,12,0.4
0.5713389236130761,0.26866581076340956,0.1693345010280609,0.9996699094772339,0.49649536439999775,0.3914214706846431,-0.0662122443318367,0.9999902248382568,0.6788685261543179,0.3842080199226853,-0.10118971765041351,0.9999856352806091,0.546678835852828,0.7574497530300632,0.024862250313162804,0.9998583793640137,0.6488080699668833,0.7418173474870506,-0.02502720057964325,0.9998935461044312,0.5749119223071965,1.0370615686318447,0.18402153253555298,0.9452834129333496,0.6683350747297006,1.0288402242738492,0.11498405784368515,0.9246907234191895,0.5925870427661476,1.2891809825535736,0.27058926224708557,0.8678171038627625,0.6836802767541827,1.2686658107634097,0.20993104577064514,0.8116042017936707,0.4822420183765436,0.789093161018883,-0.001140610664151609,0.9380144476890564,0.7110661166592883,0.7678076954493583,-0.10325782001018524,0.9639121294021606,0.005612403154373169,0.5977434529098556,0.7496335502585569,178.24447226193124,179.76906860766945,1.0,0.0046344706748384,-0.00526944316211435,0.10265458271225464,-0.007074915699134815,89.10430291260823,0.9074317467159815,13,0.43333333333333335
0.5734509828499956,0.2710453408731178,0.16490177810192108,0.9996359944343567,0.496556597872638,0.39320307648992736,-0.06697315722703934,0.9999889135360718,0.680628767227983,0.38346862728108594,-0.1081792488694191,0.9999845027923584,0.5476524009620086,0.7595517210825742,0.025069942697882652,0.9998372197151184,0.6499827255101718,0.7436559251231203,-0.025237098336219788,0.9998788833618164,0.5769432206813531,1.0389737729508361,0.18283239006996155,0.9385152459144592,0.6703717519767032,1.032936162524762,0.11607102304697037,0.9142998456954956,0.5956491104439662,1.2923410499636023,0.26973599195480347,0.8552626371383667,0.6865117168522593,1.271045340873118,0.21155691146850586,0.7902758121490479,0.48384410229594266,0.7912494255202116,-0.007319173775613308,0.9315045475959778,0.7132433728124942,0.7702656502873028,-0.1126764640212059,0.9627603888511658,0.0075518786907196045,0.5988175632360901,0.7516038231028472,178.238180688739,179.8461493280108,1.0,-0.004993818998859037,-0.0015869314291817652,-0.07233901706537915,0.027743711470893766,89.11035479222787,0.9049495449969185,14,0.4666666666666667
0.5734186173642436,0.27007393815888203,0.16218572854995728,0.9995895624160767,0.4948719119959244,0.39229202647535266,-0.090522401034832,0.9999878406524658,0.681030885114535,0.3814216400116149,-0.13205178081989288,0.9999836087226868,0.547103244747362,0.7588550690084811,0.02520904317498207,0.9998294115066528,0.6493534546443624,0.7432105878216212,-0.025375787168741226,0.9998740553855896,0.5774698450008071,1.0393751162720994,0.1881384402513504,0.9360160231590271,0.6704470111525405,1.032512256704142,0.11924232542514801,0.9093127250671387,0.5964833921728478,1.2931442427624535,0.273759663105011,0.8543059825897217,0.686010311877172,1.270073938158882,0.2139829397201538,0.7830114364624023,0.4830584266807845,0.7917090401606544,-0.025988757610321045,0.9252979159355164,0.7128195259057166,0.7718332673886082,-0.13942568004131317,0.9621186852455139,0.008436232805252075,0.5982283496958622,0.7510328284150511,178.10658420319024,179.5780741848296,1.0,-0.0028365398152182405,-0.0022635596588243666,0.01658208972544791,-0.005209886738441746,89.41054509241839,0.9047181919801435,15,0.5
0.5688421687968535,0.26305068513299246,0.15968064963817596,0.9995447397232056,0.4907338755626935,0.3872818448682023,-0.08059411495923996,0.9999861717224121,0.6754472725818759,0.3781310365935798,-0.12393437325954437,0.9999825954437256,0.5420561463000628,0.7523620582883075,0.02619061805307865,0.9998025298118591,0.643618069594299,0.7368306190925219,-0.02635752223432064,0.9998575448989868,0.5722894489947559,1.0341423235449938,0.18677660822868347,0.9275290966033936,0.6649721134426202,1.0245749947758818,0.11051438003778458,0.8993687033653259,0.5922893633144567,1.2832786994492185,0.2728436589241028,0.8412119746208191,0.6806160413512164,1.2630506851329926,0.20404474437236786,0.7613477110862732,0.47935503678778846,0.7848805116827468,-0.021689902991056442,0.9156684279441833,0.7063238629629295,0.7654752567195965,-0.13084502518177032,0.9618417620658875,0.007161617279052734,0.5928371079471809,0.7445963386904147,178.4656302764601,179.50896106406523,1.0,-0.003012002090093747,-0.0011998237892081908,-0.0015496383099051312,0.00812826407617267,89.30744946803135,0.9090760554791504,16,0.5333333333333333
0.567195065313672,0.2616795546276068,0.15854182839393616,0.9995161294937134,0.4886910147868031,0.3855463358651756,-0.07684361189603806,0.9999849796295166,0.6726691922760887,0.3777609943787425,-0.12363791465759277,0.9999821782112122,0.5397857139399459,0.7497902291319963,0.026777509599924088,0.9997894167900085,0.6415597183742688,0.7344307170498948,-0.02694627083837986,0.999850332736969,0.5702612195688442,1.0326616482890345,0.18470261991024017,0.9229952692985535,0.663097934297264,1.022389296878196,0.10510964691638947,0.8942661881446838,0.5907194342047676,1.2836196862373397,0.2663406729698181,0.8357198238372803,0.6788811549627769,1.2616795546276067,0.18865200877189636,0.7506949305534363,0.47757151197617437,0.7835557787576777,-0.017759250476956367,0.9071343541145325,0.7042280402633257,0.7634870267246785,-0.12414606660604477,0.9625979661941528,0.006111174821853638,0.5906727161571074,0.7421104730909456,178.51135823306322,179.49613288481444,1.0,-0.0031154479680499236,-0.0020957524298283944,-0.0008783242791131984,-0.00702792170098959,89.40293359711006,0.9035108058113458,17,0.5666666666666667
0.5672215793983696,0.26214910981187234,0.15795397758483887,0.9994985461235046,0.48861776585179606,0.3854424969529694,-0.07584121823310852,0.9999834299087524,0.6719045848573707,0.3773533375029092,-0.11899147182703018,0.9999812841415405,0.5402407826623848,0.7497644576854958,0.026250649243593216,0.9997619986534119,0.6413945874136703,0.7344262041159443,-0.02642454206943512,0.9998327493667603,0.5705914455890753,1.0321362003751706,0.18441325426101685,0.9208000302314758,0.6630084266395999,1.0220153265227223,0.10572979599237442,0.8886486291885376,0.5904224997497703,1.282830023991101,0.2672976851463318,0.8309609293937683,0.679094872885166,1.2621491098118722,0.19081754982471466,0.7392290830612183,0.47761593954111164,0.7832122540961489,-0.01742945984005928,0.9024122357368469,0.7039912992799746,0.7633839333367463,-0.12162093818187714,0.9634248614311218,0.006350129842758179,0.5908176850380276,0.7420953309007201,178.38807477097313,179.53449057743242,1.0,0.0015198804491660127,0.00032073115895697995,0.037329627453674276,0.019460353176457234,89.44265379053124,0.9028834414293901,18,0.6
0.5667741730046242,0.2623639264651713,0.15819430351257324,0.9994571208953857,0.48916870085894026,0.38506847347928647,-0.07428063452243805,0.9999821186065674,0.671565584418481,0.37762061054146767,-0.11905194818973541,0.9999808669090271,0.5392022093895449,0.7497257197927549,0.026489565148949623,0.9997521042823792,0.6411387566375222,0.7348848148412847,-0.026668181642889977,0.9998277425765991,0.5704997179702629,1.03256228121103,0.18762192130088806,0.9186860918998718,0.6628835293589492,1.0220034826852344,0.11156196892261505,0.8861255049705505,0.5898700309402235,1.2822945214288026,0.26804089546203613,0.8292593955993652,0.6789977679645539,1.2623639264651714,0.19280174374580383,0.7346906065940857,0.4773200161007991,0.7830169028968246,-0.0159858800470829,0.8986734747886658,0.7043623921246933,0.7632080984627837,-0.11951465904712677,0.9650076627731323,0.005846589803695679,0.5901704830135336,0.7423052673170197,178.12080660389134,179.50448647204092,1.0,-0.004697384353270376,0.0013970137800425866,-0.04435489721624031,0.007678282009916015,89.52912436861752,0.9034369490601976,19,0.6333333333333333
0.5671511594615252,0.26255112891811744,0.16152535378932953,0.9994015097618103,0.48967790645204895,0.3852034985401478,-0.06904011964797974,0.999980628490448,0.6718005243886414,0.37733001502499397,-0.12122964859008789,0.9999805092811584,0.5392306635605656,0.7508188005405131,0.027448054403066635,0.9997416734695435,0.6413061927623291,0.7360189412430262,-0.027628889307379723,0.9998236298561096,0.5709925409093545,1.0333645800890143,0.1937035620212555,0.9124289155006409,0.6631269714832411,1.024391176840994,0.11896177381277084,0.8789845705032349,0.5904668596524338,1.2822922514117114,0.2794216275215149,0.818393349647522,0.6797492553738649,1.2625511289181175,0.21131280064582825,0.7201823592185974,0.47846671713425726,0.7823203315188538,-0.005838324315845966,0.8841403722763062,0.7047544340977169,0.7635051973268042,-0.11844637244939804,0.9652872085571289,0.006177455186843872,0.5902684281614473,0.7434188708917697,178.0594243265109,179.6652068291271,1.0,-0.0016174273834696983,0.005509958794886131,0.02348001117970276,0.031324265652297484,89.46862308357643,0.9068037985667853,20,0.6666666666666666
0.5674473909818323,0.262957459809811,0.16518956422805786,0.9993709921836853,0.4901057500547219,0.3850632417856361,-0.06834232062101364,0.9999794363975525,0.6720786870394241,0.3777675596468614,-0.11977852880954742,0.9999801516532898,0.5386515917990126,0.7524904540700926,0.027766723185777664,0.9997279644012451,0.6411362696694798,0.7372539034949048,-0.027945974841713905,0.9998164176940918,0.5713796528808036,1.03332274363402,0.19545412063598633,0.9085443615913391,0.6633783623562031,1.0248649433324415,0.11860332638025284,0.876724362373352,0.5921185276163144,1.2820916530875308,0.2852690517902374,0.8131539821624756,0.6804503763650072,1.262957459809811,0.2119736224412918,0.7143996953964233,0.4790910313860447,0.7815389619865263,-0.012036627158522606,0.8787837624549866,0.7046812297833013,0.7637631636549359,-0.11998250335454941,0.9658832550048828,0.005721598863601685,0.5898939307342462,0.7448721787824987,178.11826380262124,179.67916970534782,1.0,-0.0051150247226593604,0.009078602044590682,-0.028194869882555845,0.02875388374468726,89.07022762843003,0.9107932555020938,21,0.7
0.5675242691465574,0.2632142967422456,0.16730210185050964,0.9993370175361633,0.4899002061244471,0.38434658930309606,-0.06686462461948395,0.9999783635139465,0.6719706760777354,0.37799113460605716,-0.118627168238163,0.9999800324440002,0.5385013009260161,0.7532810936044415,0.02772585116326809,0.9997212290763855,0.6408958313836466,0.7376675871563425,-0.027905110269784927,0.9998137950897217,0.571532745949125,1.0335060585575848,0.19318245351314545,0.9086170792579651,0.6637253181532504,1.0247810895665117,0.11776196956634521,0.8779013156890869,0.5923746210877803,1.2820534346394532,0.27912673354148865,0.8152033090591431,0.68042338407982,1.2632142967422457,0.20758220553398132,0.7161310315132141,0.479112985555137,0.7805407880804108,-0.014174913987517357,0.8746629953384399,0.7045927415121525,0.7635443143808737,-0.12088124454021454,0.9675307273864746,0.004983872175216675,0.5896985661548313,0.745474340380392,178.07060509878636,179.45978377203147,1.0,-0.0018950437004787441,0.004371896406650259,0.0256641072606436,-0.03751461699889885,88.83467733506761,0.9122193089427449,22,0.7333333333333333
0.567562232430834,0.26344757967874916,0.1684124618768692,0.9992827773094177,0.4901873392323247,0.384194645201238,-0.06667871028184891,0.9999770522117615,0.6720226336862726,0.37826405255213036,-0.11839691549539566,0.9999794363975525,0.538440534971266,0.7534141790413594,0.02749842405319214,0.9997159242630005,0.641006382221785,0.7378862106688555,-0.027678808197379112,0.999810516834259,0.5717013995865661,1.0339802933692548,0.18325357139110565,0.9085545539855957,0.6640812441320239,1.0248845335096008,0.11189895868301392,0.8771650195121765,0.5926397945366825,1.2833359112293492,0.25040537118911743,0.8161566853523254,0.6805112543692297,1.2634475796787492,0.19623929262161255,0.7135032415390015,0.47884799256532,0.7781659341171886,-0.015368342399597168,0.868660032749176,0.7046991287446379,0.7637245213561737,-0.12251920998096466,0.9679954051971436,0.004649639129638672,0.5897234585965255,0.7456501948551075,178.03905746469724,179.3430486482015,1.0,-0.0008294350740598551,4.3109931084192056e-05,0.008059926640473865,-0.03273583175361974,88.83684482152935,0.9110886458919021,23,0.7666666666666667
0.5668512398685864,0.263346820330534,0.17073015868663788,0.9992348551750183,0.4898340854176827,0.38202146349267124,-0.0693383514881134,0.9999757409095764,0.6713980257351422,0.3779319710161513,-0.1157212108373642,0.9999791979789734,0.5378745315587056,0.7524981399269803,0.024809254333376884,0.9997063875198364,0.6403726211608333,0.7371945231595827,-0.024991601705551147,0.9998064041137695,0.5712567344385443,1.032964734489211,0.18291309475898743,0.9077847003936768,0.6636812698057968,1.0239579152058138,0.10931999981403351,0.874210774898529,0.5921993553899123,1.2823305701317746,0.25241753458976746,0.8136644959449768,0.6798918733509947,1.263346820330534,0.18538476526737213,0.707902193069458,0.47841250879094466,0.7770982192427461,-0.020278440788388252,0.8611268997192383,0.7040914048209196,0.7632258033028637,-0.12412865459918976,0.968774676322937,0.0032088756561279297,0.5891235763597694,0.7448463315432815,178.01300628022761,179.22707213636204,1.0,-0.0008332886742392977,-0.0014033565058429213,-3.503931945896088e-05,-0.01115042746009891,88.89653622975206,0.9093332388992119,24,0.8
0.5657769269819822,0.26324640153284423,0.1691012680530548,0.9992548823356628,0.4892803354119537,0.3817795275677212,-0.06626283377408981,0.9999756813049316,0.6709651627053979,0.37775834283590415,-0.11539773643016815,0.9999796748161316,0.5373704880388673,0.7527341606409713,0.025477180257439613,0.9997103810310364,0.639729594340466,0.7373642753851186,-0.025664836168289185,0.9998102188110352,0.5707376380192549,1.032178491325919,0.1826760470867157,0.9044713973999023,0.6631741077996376,1.0233145486897002,0.1097790002822876,0.8727896213531494,0.5917754597406469,1.2816372987844509,0.25511205196380615,0.8108386993408203,0.6793390761100749,1.2632464015328442,0.19153085350990295,0.7058919072151184,0.4771000425303019,0.7765208444495527,-0.01205261517316103,0.8596675992012024,0.7036174590143699,0.7625391476409838,-0.12137413024902344,0.9700564742088318,0.0031577348709106445,0.5885500411896667,0.7450492180130449,178.0113828567417,179.16728584011,1.0,-0.0008485042320112128,0.005774869396876312,-0.00011705759212858045,0.05295828895133984,88.84703089123218,0.9109625741977287,25,0.8333333333333334
0.563417871235378,0.26313837573232457,0.1784096211194992,0.9992499947547913,0.48757056151560635,0.3827506678020733,-0.06004432588815689,0.9999748468399048,0.669774514412533,0.37746936633216,-0.11096278578042984,0.9999797344207764,0.5365299496486506,0.7519305950652273,0.025929614901542664,0.9996927976608276,0.6387345561588588,0.73626662387092,-0.02611672505736351,0.99980229139328,0.5698289303721012,1.0314110089025237,0.18518953025341034,0.9004275798797607,0.6625335863013878,1.0227575330162855,0.10318797826766968,0.871635377407074,0.5912181217087832,1.2802068572298178,0.2585511803627014,0.8032941818237305,0.6794787001876257,1.2631383757323247,0.17963257431983948,0.6996325254440308,0.4759161514249092,0.7760865344555615,0.002829099539667368,0.8531073331832886,0.7028549289777515,0.7616858112044103,-0.11311572790145874,0.9707581400871277,0.004151523113250732,0.5876322529037548,0.7440986094680737,178.11915111505064,179.28356524434346,1.0,-0.002488765490927854,-0.0014828726011253339,-0.012957082000146034,-0.05725478968003983,88.84088851474468,0.9090868233738816,26,0.8666666666666667
0.5631803021215109,0.2634447474251251,0.17603567242622375,0.9992337226867676,0.48733672080655693,0.3843664522393752,-0.06079480051994324,0.9999737739562988,0.6699433736206134,0.3786709143672758,-0.11226066201925278,0.9999799728393555,0.5362194608738158,0.7534882699601289,0.025838414207100868,0.9996828436851501,0.6385999578387827,0.7369524410508569,-0.026026511564850807,0.9997990727424622,0.5698711814957728,1.0330604130574317,0.18450412154197693,0.8953362703323364,0.6626449358213319,1.0233224878592135,0.10758671909570694,0.8661691546440125,0.591436774984309,1.2805153187684033,0.25454118847846985,0.7962873578071594,0.6797542665098266,1.2634447474251251,0.18814042210578918,0.6898633241653442,0.4755350690630283,0.77669328514634,0.005488577298820019,0.8415882587432861,0.7030471159851978,0.7619001097720027,-0.11233196407556534,0.9719667434692383,0.004475682973861694,0.5874097093562992,0.7452203555054929,178.1171249178183,179.27601876381817,1.0,-0.0032230421519926855,0.006829341088580888,-0.005701633368791465,0.06461940964892973,88.36896712149954,0.911948427824781,27,0.9
0.5617068275152378,0.2633231340948759,0.1758733093738556,0.9992295503616333,0.4860460085859893,0.3846576759112637,-0.060280244797468185,0.9999726414680481,0.669283082920497,0.3779678851892301,-0.11347280442714691,0.9999796748161316,0.5353773224881859,0.7534044715630229,0.026433181017637253,0.9996770620346069,0.6381107584693827,0.7369307770517344,-0.026618655771017075,0.9997970461845398,0.569566012754759,1.0330573919024493,0.18717560172080994,0.8942741751670837,0.6626465775100373,1.0229292384525848,0.11036254465579987,0.8666528463363647,0.591458728639393,1.2804392863841447,0.27060604095458984,0.7978434562683105,0.6797559790623238,1.2633231340948758,0.2005649358034134,0.6941534280776978,0.4749405532187239,0.7797488813071202,0.0031673579942435026,0.8353185057640076,0.7030372229379499,0.7619828378440929,-0.11674591153860092,0.9725186824798584,0.005256921052932739,0.5867440404787843,0.7451676243073787,178.08731528469065,179.1676102659437,1.0,-0.005435435555730661,-0.000503941584742877,-0.0178596648920433,-0.059200158339864306,88.5098032813696,0.9121284297354461,28,0.9333333333333333
0.5623510313746057,0.2639314487158645,0.14318585395812988,0.9992660284042358,0.4861203402444971,0.3858343535253722,-0.07116132229566574,0.999972939491272,0.6701623827209583,0.3780198176493093,-0.13863709568977356,0.9999799728393555,0.5359792515261389,0.7560326471833329,0.02994256280362606,0.9996885061264038,0.6382776635320095,0.7396752922859924,-0.030121123418211937,0.9998043179512024,0.570249272718548,1.034738433800435,0.1996326744556427,0.890848696231842,0.6634461962691554,1.0240877105694313,0.11990027129650116,0.8657404184341431,0.5919468389763726,1.2821588840298912,0.29997140169143677,0.7976572513580322,0.6805621414638738,1.2639314487158646,0.22820422053337097,0.6968779563903809,0.4753183091260019,0.7810965101067421,-0.007072851061820984,0.8327404260635376,0.7039664789224676,0.7635492007086785,-0.1353221982717514,0.972538948059082,0.0061321258544921875,0.5871284575290742,0.7478539697346626,178.00176421021538,179.024766235944,1.0,-0.003155238788528603,0.011694499673883538,0.016342523574966013,0.08714073295533024,88.58593026057241,0.9186163664928005,29,0.9666666666666667
0.5616037771202879,0.2647996996522878,0.13515852391719818,0.999286413192749,0.4859502384530664,0.3873709761733929,-0.08912677317857742,0.9999729990959167,0.6706550357689102,0.37952379167854705,-0.1426747739315033,0.9999803304672241,0.5358956639845527,0.7564966953922182,0.02977115847170353,0.9996938705444336,0.6377359018363459,0.7402699982417892,-0.029950600117444992,0.9998088479042053,0.5701404873535385,1.0352864473567889,0.19755765795707703,0.8809569478034973,0.6637184266042762,1.0246948424827822,0.11916615813970566,0.858929455280304,0.5924024920833004,1.2815436741315498,0.29208558797836304,0.7901657819747925,0.6808882332064072,1.2647996996522877,0.22208964824676514,0.6904138922691345,0.47552529493739426,0.7825596432922433,-0.019088689237833023,0.8280240297317505,0.7045547542043321,0.7662871095173783,-0.13996145129203796,0.9723082184791565,0.0061531662940979,0.5868157829104493,0.7483833468170037,178.16279594483538,178.87069075300272,1.0,-0.005670780804257094,-0.00020557766440418908,-0.019012120651266076,-0.09008901786826293,88.65262910487085,0.9186008067722914,30,1.0
0.5578130840466877,0.2599380260354259,0.14725446701049805,0.9992806315422058,0.4827112099764888,0.38590729802733786,-0.08831645548343658,0.9999723434448242,0.6678325175235895,0.37711777429092325,-0.1334969699382782,0.9999801516532898,0.5330068769197669,0.7524035711557642,0.02889118157327175,0.9996902942657471,0.6350118918945524,0.7369824905613086,-0.029066454619169235,0.9998076558113098,0.5665324878683934,1.0301135690837813,0.20894429087638855,0.8830974698066711,0.6608563432445549,1.0207214381321903,0.1282573789358139,0.8614336252212524,0.5902610367165024,1.2729314885460237,0.32622796297073364,0.7930160760879517,0.6774926337647645,1.2599380260354258,0.24590663611888885,0.6935938000679016,0.4727578168134266,0.7803115243802533,-0.009530342184007168,0.8281140923500061,0.7019244262931128,0.7644384505126903,-0.13273917138576508,0.9723480343818665,0.006918549537658691,0.5840093844071597,0.7446930308585363,178.6977815785286,178.77378033219867,1.0,-0.004607738571650819,-0.006789876995015785,0.008551904399549191,-0.054079165616900036,89.21725062216193,0.926241423200945,31,1.0333333333333334
0.5574415886731614,0.2596596304970899,0.1633196920156479,0.9992415308952332,0.4804308564422969,0.3862482217018975,-0.08400508761405945,0.9999721646308899,0.6665573659160108,0.37611773803169085,-0.12564301490783691,0.9999801516532898,0.5313415612243133,0.7497682217140111,0.02753448858857155,0.9996829628944397,0.6343290641812822,0.73511127117997,-0.02770497277379036,0.9998041987419128,0.565253021332309,1.0301112463847755,0.20741429924964905,0.8820857405662537,0.6601387039396611,1.020290986560664,0.1277235448360443,0.8595460057258606,0.5914509424804862,1.273592939903376,0.2884520888328552,0.7912008762359619,0.6773672379164026,1.25965963049709,0.21605058014392853,0.6883894205093384,0.4716884115475347,0.7802922796963054,-0.004516675602644682,0.8246130347251892,0.7017354251291309,0.7648779968541523,-0.12303135544061661,0.9725175499916077,0.00797542929649353,0.5828353127027978,0.7424397464469906,179.24400683976273,178.9454034730793,1.0,-0.008152842472925281,-0.016134469508434654,-0.02690889106005916,-0.07092260807344851,89.8725644783435,0.9178473860428381,32,1.0666666666666667
0.5580543101329087,0.26005321292826,0.17316767573356628,0.9992316961288452,0.4798403001899157,0.38677485379180443,-0.07352489233016968,0.9999714493751526,0.6657921348882101,0.3766216455958483,-0.12025711685419083,0.9999808073043823,0.5311136850817977,0.7489308868907923,0.026998167857527733,0.9996780753135681,0.6343651644668908,0.7349328191945126,-0.027170386165380478,0.9998048543930054,0.5654205192127653,1.0316135145426049,0.19132927060127258,0.8776116967201233,0.660963176023681,1.020157056011962,0.11477722227573395,0.8554706573486328,0.59343473477313,1.275448570574163,0.2535304129123688,0.7844126224517822,0.6782183271989952,1.26005321292826,0.1938907355070114,0.6793006658554077,0.4712571858954147,0.7815788182457397,0.005266151390969753,0.8134779930114746,0.702704939033731,0.7639833657149644,-0.12269220501184464,0.973820686340332,0.00798305869102478,0.5827394247743443,0.7419318530426525,179.63430634975688,178.7864669970453,1.0,-0.0063379116037354044,-0.010966685118224496,0.013690980131736986,0.03891507058964565,90.33761124371622,0.9129925169025433,33,1.1
0.5585238455423852,0.2600672413774461,0.18113625049591064,0.9992573857307434,0.47951633678721695,0.38713525633178636,-0.05693840980529785,0.9999717473983765,0.6655640933753352,0.3771024881540525,-0.11432822793722153,0.999981701374054,0.5308909557443031,0.7485211903140107,0.027336815372109413,0.9996809959411621,0.6343889009063725,0.735129065971394,-0.027507146820425987,0.9998089075088501,0.5653439334557314,1.032753210418094,0.1910812258720398,0.8744062781333923,0.6615851775997217,1.0202421279175098,0.1130610853433609,0.8540024757385254,0.5940997703057674,1.2767242513747972,0.26032528281211853,0.7771203517913818,0.6788626577669375,1.260067241377446,0.19709622859954834,0.6720705628395081,0.4709164472266579,0.7826770222280574,0.021807190030813217,0.8110613226890564,0.70345321773861,0.7634058728370403,-0.11385776847600937,0.9753402471542358,0.007880866527557373,0.5826399283253377,0.7418251281427024,179.81084853922258,178.67175747259625,1.0,-0.00475840391817815,-0.005913069430766824,0.01154130794362688,0.03686181446008531,90.71812737881994,0.9112890871490963,34,1.1333333333333333
0.5587470097847307,0.2600706943504579,0.15777933597564697,0.9992741942405701,0.477698249970127,0.38722065445625214,-0.058714281767606735,0.999971866607666,0.664051355599361,0.37720158907349444,-0.13810056447982788,0.9999823570251465,0.530332490551989,0.7487750466434966,0.03060757741332054,0.9996829032897949,0.6332257830254278,0.7351317539186258,-0.030771413818001747,0.9998124837875366,0.5653816665863033,1.0303933940425096,0.21092715859413147,0.8748140335083008,0.6617677071609127,1.0181263930641635,0.11435189098119736,0.8579704165458679,0.5939818850115153,1.2724103354788934,0.30282434821128845,0.7800437211990356,0.6787790891020059,1.2600706943504578,0.2026790827512741,0.681262731552124,0.47098947289001475,0.7836988671836908,0.025773335248231888,0.8107057213783264,0.7039769476445739,0.7634397798069833,-0.12278401851654053,0.9768547415733337,0.007867604494094849,0.5817791367887084,0.7419534002810612,179.64529808417976,178.26272112449925,1.0,-0.007594768218030839,-0.000779155528827594,-0.020587050871739676,0.03729674561758935,90.72963962706176,0.9152170780690859,35,1.1666666666666667
0.5613665322006154,0.261712146573151,0.1558130383491516,0.999311089515686,0.4797403731789011,0.39056207405129795,-0.053830187767744064,0.9999715685844421,0.6663045060924428,0.37916340983727254,-0.14514964818954468,0.9999830722808838,0.5333121856608317,0.7534741581971919,0.03691316395998001,0.9996846318244934,0.6363457998060814,0.7396045996225877,-0.03708074614405632,0.999815046787262,0.5688963714023133,1.0356895804256716,0.21067404747009277,0.8743298053741455,0.6657489691846182,1.0191462045369433,0.12791216373443604,0.8598181009292603,0.5973751606648403,1.279360486440764,0.29665088653564453,0.7798358798027039,0.6820187007592503,1.2617121465731511,0.22689852118492126,0.6844350099563599,0.47196923361147985,0.7885496618415376,0.029955795034766197,0.8055158257484436,0.708825456818175,0.7666552909143405,-0.13743750751018524,0.9783148169517517,0.00889599323272705,0.5848289927334566,0.7465393789098898,179.47971523891172,177.83278445355327,1.0,-0.003921179259684414,1.5678115726852666e-05,0.026798581855860898,0.005759805932431534,90.73054732047692,0.9212918836760003,36,1.2
0.5627416599967696,0.26234217142921973,0.1573696732521057,0.9993512034416199,0.48081170085325875,0.39207350227816495,-0.05482478812336922,0.9999721050262451,0.6648276889816725,0.3788421922419049,-0.14119216799736023,0.9999836683273315,0.5353415875241636,0.7538300898379746,0.036484815180301666,0.9996913075447083,0.6390745016703425,0.7376522325265243,-0.0366453155875206,0.9998180866241455,0.5718818783912124,1.0369359618592022,0.16798293590545654,0.8812236189842224,0.6670608939305074,1.0155867463901107,0.11722813546657562,0.8653813004493713,0.5998898115888557,1.2843138509991123,0.20521926879882812,0.7916805148124695,0.6807882971229663,1.2623421714292198,0.1898527443408966,0.6967624425888062,0.4726655085665855,0.7913335519112445,0.006198553368449211,0.816711962223053,0.7130109332139715,0.7628384179016996,-0.14913615584373474,0.9800779819488525,0.010287851095199585,0.5872080445972531,0.7457411611822494,179.1050073175742,177.43420358018813,1.0,0.0015682055676651224,-0.02879809670769317,0.04420319637108802,-0.23140576828394513,89.70776367220243,0.9127989677514067,37,1.2333333333333334
0.566442548903377,0.2663858615510977,0.138907328248024,0.9993946552276611,0.48419813957847374,0.39699751120021765,-0.07146409153938293,0.9999729990959167,0.6695418879401389,0.38187739138893523,-0.15300217270851135,0.9999843835830688,0.5411619306578593,0.7592429922570846,0.03586544841527939,0.9997038245201111,0.644649946513925,0.7418933838568091,-0.036038026213645935,0.9998246431350708,0.5772046400271938,1.0451370819414092,0.1654157191514969,0.887214183807373,0.6707292215839085,1.0176263565025907,0.12350872904062271,0.8702545166015625,0.6045255699317479,1.2948681823812522,0.20419473946094513,0.8038805723190308,0.6838339672223228,1.2663858615510977,0.2091415822505951,0.7107901573181152,0.47613416846976936,0.7982297555167519,-0.003140727523714304,0.8276668787002563,0.7209066141017966,0.7642795912077152,-0.18047995865345,0.9817677140235901,0.01165500283241272,0.5929059385858922,0.7505681880569468,179.0580287236408,177.61252060399858,1.0,0.004371541886240931,-0.01243387681987962,0.020826340717569808,0.12403860324903168,89.41964049081868,0.9105610637899577,38,1.2666666666666666
0.5706521314434857,0.2744207703675821,0.14276757836341858,0.9993946552276611,0.48824253570493253,0.4025218954675494,-0.0646267756819725,0.999972403049469,0.6743952303405076,0.384458123777697,-0.15271428227424622,0.9999848008155823,0.5460939514040671,0.7636960733660175,0.03937903791666031,0.9997091889381409,0.6501395708110113,0.7460574361417964,-0.03958453610539436,0.9998281002044678,0.5819544411205426,1.0500217974952573,0.16929565370082855,0.8889249563217163,0.6752596080613337,1.022962698094762,0.12697917222976685,0.8736106157302856,0.6103663863623037,1.3040521905172213,0.20000597834587097,0.8106282353401184,0.6862272821936611,1.274420770367582,0.20825710892677307,0.7192143201828003,0.47972827094893633,0.8044901183811239,-0.001881356700323522,0.8292878270149231,0.7294423487283938,0.7674034891075565,-0.17690370976924896,0.9831827878952026,0.013812661170959473,0.5981167611075392,0.7548767547539069,179.24294217620474,177.31393021606124,1.0,0.003405532842191262,-0.013831365031907208,-0.007939800893850942,-0.010286665945324033,89.47835130129694,0.8966453943705331,39,1.3
0.5761181782492292,0.2832277393016711,0.14404155313968658,0.999409556388855,0.4929223413788302,0.4093328576160269,-0.0621597059071064,0.9999719262123108,0.6802569188151965,0.3882632882870479,-0.15311768651008606,0.9999850392341614,0.551943570066944,0.7709473881310368,0.039527904242277145,0.9997103810310364,0.6563337930535308,0.7530809251783743,-0.03973422944545746,0.9998287558555603,0.5875703643328458,1.0596639977719435,0.1718473732471466,0.8901106715202332,0.6806076488734233,1.0317242339679464,0.12596681714057922,0.8741673827171326,0.6161724477858297,1.3151015331262101,0.20830528438091278,0.8143465518951416,0.6895648760132267,1.283227739301671,0.20200876891613007,0.7226788401603699,0.484187526503407,0.8117132667696251,-0.0016012049745768309,0.8311734795570374,0.7388503166247464,0.7753583417973775,-0.1717984676361084,0.9843949675559998,0.015962570905685425,0.6041386815602374,0.7620141566547055,179.35438977601333,177.06099033452085,1.0,0.00360730514649344,0.0009027957838138818,0.0013414373780353869,0.11721829506891077,89.55772937021342,0.8892163750328804,40,1.3333333333333333
0.5811678038461976,0.290836712825008,0.14344868063926697,0.9994308352470398,0.4972896580263851,0.4171259655960926,-0.06049586087465286,0.9999715089797974,0.6853244670105183,0.3922980026907111,-0.1526528298854828,0.9999850988388062,0.5575152340738704,0.7787859771706775,0.039595283567905426,0.9997066855430603,0.6620115839887593,0.7609836298245285,-0.03979913145303726,0.9998254776000977,0.5928900321381122,1.0682044055597923,0.19048447906970978,0.8927253484725952,0.6845871630508108,1.038579324543947,0.13623231649398804,0.8752367496490479,0.6211797764054916,1.3253888983775366,0.25950315594673157,0.8205860257148743,0.6934099718912289,1.290836712825008,0.25213947892189026,0.7283234000205994,0.48844387539451983,0.8193257120789152,0.013991122134029865,0.83598393201828,0.7485120750188329,0.7835897612517169,-0.1766624003648758,0.9855219721794128,0.018648207187652588,0.6097634090313149,0.769884803497603,179.3086408717618,177.35375780099417,1.0,0.0030334756104118017,0.009957863354021297,-0.004781164508875996,0.07148360643571601,89.78616918926639,0.8881722344016635,41,1.3666666666666667
0.5850790514150006,0.2936822349626098,0.15540263056755066,0.9994546175003052,0.5009969973350509,0.4223411032499075,-0.05841697379946709,0.9999712109565735,0.6898728256743364,0.3991849007112181,-0.13125790655612946,0.9999851584434509,0.5617944864688194,0.7883999879752687,0.03300461545586586,0.9997013211250305,0.6665974951461341,0.7684565234007347,-0.03320670872926712,0.9998190999031067,0.5984646001185203,1.076850025696467,0.18481019139289856,0.8990830183029175,0.6883487069736086,1.0429725039807938,0.1459478735923767,0.8776788115501404,0.6263667338367304,1.3346649817118548,0.2574465870857239,0.8297691345214844,0.6975112484005668,1.2936822349626098,0.27110427618026733,0.7334170937538147,0.4921946381851099,0.8256282842147579,0.012851923704147339,0.8452951908111572,0.7570606120012575,0.7897372596213041,-0.17394913733005524,0.986640989780426,0.017263144254684448,0.6141959908074767,0.7784282556880017,178.93177757417735,177.56267047631252,1.0,-0.001010606878886993,0.02024922138982268,-0.029705597044062504,0.07462669849876138,88.65571721111426,0.9028573634451477,42,1.4
0.5877280645180007,0.29437092762816275,0.15432067215442657,0.9994828104972839,0.503270706882628,0.42392370263988144,-0.057721953839063644,0.9999704360961914,0.6918835283860905,0.401521565499778,-0.13097277283668518,0.99998539686203,0.5643233800113289,0.7921256564046071,0.03155294433236122,0.9997005462646484,0.6692791711739704,0.7726914883238688,-0.03174576908349991,0.9998182058334351,0.6011436556975998,1.0819678944314852,0.18485945463180542,0.9046003222465515,0.6900569623344838,1.0447416527150142,0.1484096348285675,0.8798108100891113,0.628698188409718,1.3401555436157193,0.2708984613418579,0.8371182084083557,0.6997088348186664,1.2943709276281627,0.2858099639415741,0.7375274896621704,0.49568367962148707,0.8293178467666161,0.012878512032330036,0.8494625091552734,0.7624742348599416,0.7939732636233576,-0.17211183905601501,0.9876752495765686,0.0166265070438385,0.6168012755926496,0.782408572364238,178.85189034796488,177.84675051548427,1.0,-0.0011422384842557068,0.003864054767823462,-0.0009952101241269538,-0.12900340687428882,88.92435231397485,0.9105142377660805,43,1.4333333333333333
0.5929761321833018,0.29613126707318105,0.158745676279068,0.9994640946388245,0.5077209361015714,0.4270100964632138,-0.05779481679201126,0.9999687671661377,0.6971148247553889,0.404625627218498,-0.12111596763134003,0.9999852180480957,0.5695074455616422,0.7995870657897285,0.02328619733452797,0.9996960163116455,0.6745772595330322,0.7795574336443971,-0.023474186658859253,0.999814510345459,0.6076859725092153,1.0905029320226947,0.17312225699424744,0.9102545380592346,0.6943237268473951,1.0532153402978985,0.1570795774459839,0.8778723478317261,0.6337206254175057,1.3500352964536873,0.26349422335624695,0.844811737537384,0.7037998134317297,1.296131267073181,0.3072230815887451,0.7353623509407043,0.5009036932209138,0.8358038355297561,0.024177026003599167,0.8469111323356628,0.7721884301083981,0.8028824941427029,-0.15699219703674316,0.9884927272796631,0.01648426055908203,0.6220423525473372,0.7895722497170629,178.25186766578233,178.1067940996118,1.0,0.0032023091683226683,0.008095478115083226,0.03406891872067028,0.032876741092758184,88.62309090958219,0.9229626916151202,44,1.4666666666666666
0.5955365083826726,0.2964845169218576,0.15705585479736328,0.9994626641273499,0.5093201860790354,0.4277567522704455,-0.06078249216079712,0.9999672770500183,0.6986043869541062,0.40536342591958835,-0.12385217845439911,0.9999850988388062,0.571473836856462,0.8017741938591323,0.02282491885125637,0.9996881484985352,0.6761597922333084,0.7815718602356905,-0.023009037598967552,0.9998091459274292,0.6102341847066737,1.0929937047187281,0.17290273308753967,0.9150024652481079,0.6952291922260684,1.055816024427918,0.1588606983423233,0.8764415979385376,0.6352263388005737,1.352968713416403,0.26028138399124146,0.8515857458114624,0.7047176533444955,1.2964845169218575,0.3119867444038391,0.7342655062675476,0.5028154710823984,0.8375735499827568,0.021587273105978966,0.845020055770874,0.7753879375949557,0.8062994387147783,-0.15866787731647491,0.989251971244812,0.016453802585601807,0.6238168145448852,0.7916730270474114,177.90981584965195,178.280117459184,1.0,0.0029716879166885282,0.0025752493778027096,-0.0018775802741369993,-0.04372591999364134,88.51241604569145,0.9270085681768998,45,1.5
0.6037124925105903,0.3019391573076418,0.14283716678619385,0.9994691610336304,0.5157755750926836,0.4330899916152227,-0.06259140372276306,0.9999656081199646,0.7057574890048569,0.41048809029364103,-0.12995104491710663,0.9999850988388062,0.5778658481955409,0.8102537830447943,0.02316952310502529,0.9996746182441711,0.6832437255139527,0.7899620767511198,-0.0233561210334301,0.9998010993003845,0.618585034036473,1.104761793881976,0.16714897751808167,0.9186145067214966,0.7024940115980777,1.0677930162165614,0.1588335633277893,0.8717147707939148,0.6424958436351256,1.3656920788461355,0.2531075179576874,0.8559762239456177,0.7109304007731696,1.3019391573076418,0.31488221883773804,0.7288769483566284,0.5139017238181398,0.8466508536466607,0.02105388231575489,0.8421435952186584,0.7845833733967601,0.8150034692484956,-0.16544680297374725,0.9900122284889221,0.01643127202987671,0.6305547868547468,0.8001079298979571,177.3638716745228,178.09993757068403,1.0,0.0004771243655099237,-0.0002561292417974853,-0.018746386253930197,-0.021214194220153977,88.4488790395887,0.9312864031829573,46,1.5333333333333334
0.6109913188054238,0.30451229738060553,0.13062870502471924,0.999497652053833,0.5220976742011342,0.4362311912085268,-0.06009281426668167,0.9999650716781616,0.7092454608950773,0.4125839937037807,-0.13871484994888306,0.9999855160713196,0.5810598072864197,0.813747130007001,0.02721434272825718,0.9996786117553711,0.6862393786829474,0.7938504343068978,-0.027385402470827103,0.9998051524162292,0.6229654229051961,1.1042329551715693,0.19027021527290344,0.9203115105628967,0.7051675836981308,1.0733369076722712,0.14670297503471375,0.8737071752548218,0.6486465744327934,1.35167808210008,0.30940526723861694,0.8594469428062439,0.7107902673895262,1.3045122973806056,0.29909420013427734,0.7352837324142456,0.5203378718374979,0.8489414470964538,0.017113097012043,0.8408112525939941,0.7888343034374828,0.8190746114760173,-0.1729264259338379,0.9907029271125793,0.017107516527175903,0.6336495929846836,0.8037987821569494,177.71636028598974,177.51884519135191,1.0,8.250829328911149e-05,-0.0016969991446396685,-0.003028732370752289,-0.01098430295419048,88.16499849839532,0.9496168887241854,47,1.5666666666666667
0.6166965195781959,0.3068715078757647,0.16290652751922607,0.9994708895683289,0.5296832051001337,0.43880960784901485,-0.04943811148405075,0.9999632835388184,0.7148953772051679,0.4153531748620679,-0.10455937683582306,0.9999845623970032,0.589688231466777,0.819548438107908,0.019495919346809387,0.9996601939201355,0.6911439174480993,0.7995802994225072,-0.019676227122545242,0.9997871518135071,0.6288446855818891,1.112438120769505,0.15841151773929596,0.9255498051643372,0.7089818143233609,1.0813342254805671,0.16062204539775848,0.8694584965705872,0.6529195504399419,1.3637332192115077,0.24889206886291504,0.8646652698516846,0.7125615499132417,1.3068715078757647,0.3250557780265808,0.7248415350914001,0.5293237047537542,0.8415004876488398,0.01827624812722206,0.8437016010284424,0.794179786890767,0.8261000985462432,-0.16218577325344086,0.9911720156669617,0.016849279403686523,0.6404160744574382,0.8095643687652075,177.85768799254424,177.2867519123223,1.0,0.016325953746324545,0.00021843566144919742,0.11811815177747703,0.014017110358577648,87.82180350815177,0.9541405049975434,48,1.6
0.6258887717756769,0.3126977958100344,0.14726413786411285,0.9995007514953613,0.5414431904883888,0.4443379664836539,-0.04735303670167923,0.9999643564224243,0.7220405029952519,0.4196321245694291,-0.11213211715221405,0.9999851584434509,0.5972041192962402,0.8271890713217789,0.02043658122420311,0.9996833801269531,0.6967662535979696,0.8072236800740247,-0.020628897473216057,0.9998013973236084,0.635071272770275,1.1192719031744427,0.16786028444766998,0.9292970299720764,0.7142936354670212,1.0899924571954833,0.16007402539253235,0.8721484541893005,0.6583374668638049,1.3656123383187433,0.27352792024612427,0.8706860542297363,0.7167435624601335,1.3126977958100343,0.31383150815963745,0.7312068939208984,0.5375870686273108,0.8459055802117756,0.017571359872817993,0.8441970348358154,0.8001502204842298,0.8333878198300908,-0.15787139534950256,0.9916477203369141,0.017607808113098145,0.6469851864471049,0.8172063756979018,178.00850424014058,177.08333875005377,1.0,0.011718210954909956,0.009692823195591041,-0.0366278321268087,0.0732518760947064,86.94742664433655,0.964521490584387,49,1.6333333333333333
0.6322585655331869,0.3189824246059714,0.16135601699352264,0.9994305968284607,0.5474424819215103,0.4462603226947958,-0.020614221692085266,0.9999583959579468,0.7287374840014759,0.4240191314853053,-0.10593350231647491,0.9999850988388062,0.5998275580532866,0.8300600566439053,0.022556688636541367,0.9996879696846008,0.7005872177197113,0.8103235973035587,-0.022767934948205948,0.9998074173927307,0.6383925119561289,1.1221951843025777,0.16838598251342773,0.9294360876083374,0.7161569456786879,1.0945232051534453,0.15833863615989685,0.8675451874732971,0.6612899732228048,1.3697248526708563,0.27125102281570435,0.8669710755348206,0.7188999815720509,1.3189824246059714,0.3151471018791199,0.718474805355072,0.5429048408417081,0.84563028832814,0.10429660975933075,0.7913641333580017,0.8026668894251697,0.8383017574554487,-0.10385824739933014,0.9916654229164124,0.015790492296218872,0.6502073878864989,0.8201918269737319,177.76487181728535,177.5643715344289,1.0,0.005475167687909803,-0.0011903834393243628,-0.04700012597998695,-0.081624366337021,86.68972400685641,0.9540631441640334,50,1.6666666666666667
0.638744506741933,0.3214473960270393,0.16746282577514648,0.999442458152771,0.5510585886637807,0.4496731555724486,-0.019952716305851936,0.9999579191207886,0.7341604152959118,0.4288011134468845,-0.10602420568466187,0.9999852776527405,0.6042894871931936,0.8309352984519482,0.02463129721581936,0.9997049570083618,0.7029069843580026,0.811574755595302,-0.024843210354447365,0.9998179078102112,0.6398627547060513,1.1208883056777623,0.16953004896640778,0.9323813915252686,0.7171555965800758,1.096317540380832,0.15698906779289246,0.8688636422157288,0.6625691708087715,1.3731455225528508,0.2607210576534271,0.8706419467926025,0.7189902648440754,1.3214473960270394,0.3097008466720581,0.717823326587677,0.5457144657097285,0.8466788037567734,0.07319630682468414,0.7713344097137451,0.8013671221435231,0.8399283680598465,-0.1196560263633728,0.9915187358856201,0.014795929193496704,0.6535982357755982,0.8212550270236251,178.14904578171877,177.60220657021043,1.0,0.018381324188295793,-0.0014145792136504584,0.0987218479419194,-0.001702163394025562,86.84109342098836,0.9481811723014614,51,1.7
0.6479471361903086,0.3242040229125384,0.18566939234733582,0.9994704127311707,0.5584172344560401,0.4532482051172034,-0.004326967988163233,0.9999591112136841,0.7433694512945547,0.43725463234453843,-0.09911941736936569,0.9999857544898987,0.6106843194690781,0.8346810808546313,0.031127605587244034,0.9997259378433228,0.7100121616965934,0.8157854750709714,-0.03133446350693703,0.9998306035995483,0.6444158183646095,1.1233731862082525,0.18130025267601013,0.9364169239997864,0.7204671328016895,1.1014268096699973,0.15077242255210876,0.8751658201217651,0.6659489218878527,1.377291319298718,0.26048415899276733,0.8772802948951721,0.7219115190329833,1.3242040229125385,0.2985266447067261,0.72505122423172,0.5518697753333698,0.8487758613423003,0.06556191295385361,0.7689803838729858,0.8034765610516071,0.844278930652484,-0.1272372454404831,0.9916573762893677,0.011286616325378418,0.6603482405828357,0.8252332779628013,178.18291284801452,178.2752848683408,1.0,0.027763177962211002,0.0019411007365152172,0.06802582436242881,0.024595554214899576,87.03160062660278,0.9517554073852864,52,1.7333333333333334
0.6512637710429543,0.3274945719883812,0.15441757440567017,0.9995041489601135,0.5670871617506327,0.45502351989940143,-0.01689291186630726,0.9999604821205139,0.7480288126719167,0.44102849910718445,-0.12360606342554092,0.9999862313270569,0.6178463963677041,0.8380943236980385,0.038551077246665955,0.9997471570968628,0.7158307103280183,0.8196811105195667,-0.03875192999839783,0.999843418598175,0.6484556830914819,1.1245030100772428,0.19592097401618958,0.938709557056427,0.7236272510058965,1.1058622355850765,0.14866605401039124,0.878574550151825,0.6687298016009697,1.382571534446023,0.27774524688720703,0.8829850554466248,0.7224181141859076,1.3274945719883813,0.29816490411758423,0.7318745851516724,0.5566485604308449,0.8532117569556961,0.060373760759830475,0.7677716612815857,0.8057637387704684,0.8476553763289925,-0.17265655100345612,0.9915155172348022,0.009835034608840942,0.6668385533478611,0.8288877171088026,178.39178368460665,178.1268757916323,1.0,0.02724161936267748,0.001438725607602953,-0.004667001137661544,-0.0037350471429732487,86.90517068963501,0.9519939308385281,53,1.7666666666666666
0.6591328603671436,0.33100872980331003,0.15737399458885193,0.9995372891426086,0.5708652458693745,0.4564505176180579,-0.013413466513156891,0.9999622702598572,0.7531343911061555,0.44538728313379383,-0.11534955352544785,0.999986469745636,0.6248241148568614,0.8399553913490929,0.037705473601818085,0.9997663497924805,0.7210864718761245,0.8221034292422161,-0.03790658339858055,0.9998544454574585,0.6510361394260515,1.1231750103136782,0.18708908557891846,0.9419792890548706,0.7257405816085597,1.104932308051343,0.14260855317115784,0.8812586069107056,0.6688714381146362,1.3870079323397204,0.25473684072494507,0.889290988445282,0.7234509769247789,1.33100872980331,0.29367783665657043,0.738389790058136,0.5606877230777929,0.8594929092266664,0.0646824985742569,0.7689512968063354,0.8059566619347376,0.8494157070145977,-0.14411243796348572,0.9911255836486816,0.007756292819976807,0.672955293366493,0.8310294102956546,178.579681359499,178.47700336166002,1.0,0.035393799385143296,0.001350889370777398,0.06314813047811953,-0.0007125184452047496,87.50269543294675,0.9464921221727934,54,1.8
0.6667095958326452,0.32835292812285777,0.13478033244609833,0.9995726346969604,0.575856525384124,0.45554020853185156,-0.033475033938884735,0.9999645948410034,0.7587837091575438,0.44475301519965993,-0.1292344629764557,0.9999868869781494,0.6284773075008031,0.8374535755949006,0.03743631765246391,0.9997854232788086,0.723191034456423,0.8202192894454066,-0.037635255604982376,0.999865710735321,0.6501255232840226,1.1153852229343606,0.19053038954734802,0.9433732032775879,0.7248557305443256,1.0992959878284152,0.14061622321605682,0.8808659315109253,0.6646023914994484,1.3833263190016285,0.2790466547012329,0.8934650421142578,0.7221762551262948,1.3283529281228577,0.3018382787704468,0.7417906522750854,0.5626579907627941,0.8594837436316289,0.016276754438877106,0.7769542336463928,0.8039581397801491,0.847464736259255,-0.17485451698303223,0.9909802079200745,0.007581055164337158,0.675834170978613,0.8288364325201536,178.63888564444412,178.98802670563785,1.0,0.03413940433432691,-0.0014247125140605082,-0.0088636057880242,-0.021020520197740353,87.53211758613216,0.9493070241680267,55,1.8333333333333333
0.6651167397005862,0.32774824656629714,0.15869459509849548,0.9995957612991333,0.5764393292396489,0.45531687322391257,-0.025730859488248825,0.9999661445617676,0.7591019089302278,0.44471088852751184,-0.10870961099863052,0.9999869465827942,0.6286237532765169,0.8347790239790142,0.0358419343829155,0.999799907207489,0.7248171521654325,0.8194836017657787,-0.03604627028107643,0.9998735189437866,0.6496248138580393,1.1125762640520696,0.16651302576065063,0.946391761302948,0.7255590190367658,1.097041970027265,0.13037586212158203,0.8827261924743652,0.6614423167261004,1.382393541733242,0.22649326920509338,0.8980897665023804,0.7218661235348156,1.327748246566297,0.2689177393913269,0.744228184223175,0.5632906604532315,0.8553965677747394,0.0167999304831028,0.7831302881240845,0.8033908950988169,0.8461023443692209,-0.16907857358455658,0.9904110431671143,0.00746038556098938,0.6767204527209747,0.8271313128723965,178.18459476765426,178.9298080837387,1.0,0.01119583359751525,-0.007228012106091216,-0.17199620552882233,-0.04357198903049261,88.79552521662333,0.9457839685333976,56,1.8666666666666667
0.669944372450764,0.3273198700433664,0.13304606080055237,0.9996303915977478,0.5789015083043672,0.4552228327868855,-0.035816408693790436,0.9999684691429138,0.7620519210363347,0.4458647389163252,-0.13745592534542084,0.9999876022338867,0.635734931984764,0.8330350055716904,0.037473201751708984,0.9998171329498291,0.7288095092950687,0.819105218294083,-0.03768078237771988,0.9998840689659119,0.6494760565529917,1.107002734169436,0.17797112464904785,0.9469560384750366,0.7264238471019809,1.0933906455777471,0.1212303414940834,0.8824277520179749,0.6594758577266346,1.3748768478226048,0.2554404139518738,0.9016063213348389,0.7217990486359972,1.3273198700433664,0.26244646310806274,0.7505806088447571,0.5648979075357498,0.8534555523255389,0.011973109096288681,0.7866979837417603,0.8041466157837763,0.8450245525141804,-0.19325819611549377,0.9900984764099121,0.006585657596588135,0.6822722206399164,0.8260701119328867,179.26655085065616,179.36573663847102,1.0,0.045013625774090175,-0.00519981093135398,0.2595620180162795,0.015538955161661974,90.04287047976025,0.9501163319902064,57,1.9
0.6674923852751617,0.3226077285159788,0.13276709616184235,0.9996651411056519,0.5796387617209212,0.45277828058271175,-0.048988454043865204,0.9999710321426392,0.764891726207107,0.446350565814359,-0.12583866715431213,0.9999883770942688,0.6360605029767212,0.8285815892860953,0.031329184770584106,0.9998336434364319,0.729895405388562,0.816331340621884,-0.03154173865914345,0.9998941421508789,0.6472516218017992,1.1008591242718746,0.17728029191493988,0.9490448832511902,0.7254986637840168,1.0854520414735036,0.1251053810119629,0.8808321952819824,0.6531370458845749,1.3681609058516808,0.2555026113986969,0.9070678353309631,0.7209804470399098,1.3226077285159787,0.26384061574935913,0.7570890784263611,0.566056465131264,0.842732725506008,0.004844089038670063,0.7977726459503174,0.8025158438424841,0.8411781138519625,-0.18584710359573364,0.9895928502082825,0.004538476467132568,0.6829779541826416,0.8224564649539896,178.9076894650395,179.84453331317377,1.0,0.022148028562807096,-0.006538257589045993,-0.16957667341982316,-0.010120071344518885,91.10044620756346,0.956292481410574,58,1.9333333333333333
0.6742389038045155,0.32257866125750373,0.1347823590040207,0.9996923804283142,0.5849820593892151,0.4495419187262156,-0.054261136800050735,0.9999731779098511,0.7721166121761461,0.4495270605531757,-0.12399135529994965,0.9999887943267822,0.6387787341554152,0.8258351549017303,0.029916565865278244,0.9998472929000854,0.7324729803912216,0.8153256989620173,-0.030127689242362976,0.9999021291732788,0.6472229462533027,1.0970868061322887,0.1741257756948471,0.9506528377532959,0.7274810563570081,1.082302333007537,0.12356831133365631,0.8787989020347595,0.649516465662741,1.3621869204600208,0.247671440243721,0.9106458425521851,0.7212045757263462,1.3225786612575037,0.26268622279167175,0.7597543597221375,0.5693633758275676,0.8416992093721304,-0.012699931859970093,0.808586835861206,0.8039956666476015,0.8411527494057258,-0.18826289474964142,0.9890606999397278,1.049041748046875e-05,0.6856258572733184,0.8205804269318738,178.71261024737652,179.57485470490784,1.0,0.019651997522476934,-0.014516009051327465,-0.01882693222990226,-0.06013908916945888,91.7361680750809,0.9546344546844686,59,1.9666666666666666
0.6956671450448306,0.32287908824107864,0.13179662823677063,0.9997115731239319,0.590493657644376,0.44729385523762033,-0.06746595352888107,0.9999749660491943,0.7777621822115508,0.452913789056041,-0.11555733531713486,0.9999886155128479,0.642350486631619,0.8235832315740226,0.022900911048054695,0.9998587965965271,0.7355492949089726,0.8142723548992153,-0.023096105083823204,0.9999083876609802,0.6463442273733931,1.0897562078104464,0.1701270490884781,0.9536857008934021,0.7295587682234367,1.0813134108394045,0.12379570305347443,0.8790996074676514,0.644577547560016,1.3521782557178588,0.24447563290596008,0.9160460233688354,0.721303990460748,1.3228790882410786,0.2677745819091797,0.76706463098526,0.5721823428350012,0.8413443348069103,-0.027501974254846573,0.8172276020050049,0.8052626297808495,0.8380526056131627,-0.18291476368904114,0.9878146052360535,0.003967612981796265,0.6889498907702958,0.818927793236619,178.75465982676653,179.32795080985747,1.0,0.024831954604746864,-0.012938686285122196,0.039231794349772524,0.011956740250785953,92.14145376407384,0.9565343007358291,60,2.0
0.6917737154144963,0.32339901795715686,0.13339683413505554,0.999728798866272,0.5942959424946798,0.4491336592144467,-0.06052154302597046,0.9999763369560242,0.7837841096856312,0.4548016433373266,-0.11090264469385147,0.9999885559082031,0.6464184834060851,0.8267042718221553,0.022534478455781937,0.999869704246521,0.7416006735902045,0.8175494907543361,-0.022743044421076775,0.9999147057533264,0.645915634611264,1.0877682433311766,0.17940601706504822,0.956151008605957,0.7348269646393328,1.0825221537551317,0.1338488608598709,0.8799378275871277,0.6413777039751948,1.3503689892503992,0.2625090479850769,0.9212009906768799,0.7242582392192518,1.3233990179571569,0.2712939381599426,0.7763267755508423,0.5753394669103432,0.8383589709290964,-0.011806159280240536,0.826567530632019,0.8098143335514648,0.8403939318475855,-0.18216250836849213,0.9875766038894653,0.003985404968261719,0.6940095784981448,0.8221268812882457,179.12034629198305,178.95207789696732,1.0,0.016852666767116622,-0.0008573443739730689,-0.059954744356816275,0.09003613438607587,92.36593743582704,0.9686386919189665,61,2.033333333333333
0.69920369118373,0.32469447830339493,0.13298754394054413,0.9997523427009583,0.5988273072666513,0.4504491105553079,-0.06826462596654892,0.999978244304657,0.7899778932867848,0.4569689725392996,-0.11105883121490479,0.9999890327453613,0.6498112108326954,0.827675665823483,0.01963663287460804,0.9998813271522522,0.747477967194026,0.819889508727356,-0.019867150112986565,0.9999219179153442,0.6468233392500924,1.0736552022207324,0.17907659709453583,0.9592964053153992,0.7389316334745757,1.0832730262287502,0.12892459332942963,0.8859239220619202,0.6401877335317399,1.3310140947006903,0.25542643666267395,0.927717387676239,0.7263994306921482,1.324694478303395,0.2546460032463074,0.7930561900138855,0.578472392260829,0.8386505351723764,-0.03610140457749367,0.839167594909668,0.8127060861715291,0.8418251354457791,-0.18113979697227478,0.9876641631126404,0.004571288824081421,0.6986445890133608,0.8237825872754195,179.21897098136898,178.8869352595055,1.0,0.020584657466480926,-0.005461718370924637,0.028668997958198914,-0.035815500358867394,93.13907158990517,0.989652332956751,62,2.066666666666667
0.7078893585067297,0.3275680991421383,0.14150841534137726,0.9997733235359192,0.6074138666964214,0.4537264770108596,-0.0652792751789093,0.9999800324440002,0.7989144436294532,0.4606008624045226,-0.1024869829416275,0.9999895095825195,0.6571634813144045,0.8307085510042925,0.01854706183075905,0.999891996383667,0.7568541010028645,0.8258685562056599,-0.018796684220433235,0.9999286532402039,0.6511003002860538,1.0735439007951781,0.16688480973243713,0.9624595642089844,0.7462389956377107,1.0902822161404493,0.11168141663074493,0.8939335942268372,0.6451669393588129,1.3275680991421384,0.2118949592113495,0.9340193271636963,0.7325338978395444,1.3349374450796105,0.20200781524181366,0.8107629418373108,0.5841559875860812,0.8379886670305797,-0.028479162603616714,0.8508108854293823,0.8195597788382702,0.8450267833169353,-0.17336802184581757,0.9878402948379517,0.004784882068634033,0.7070087911586346,0.8282885536049762,179.9077608781388,179.09270768095757,1.0,0.025364837730813522,-0.011799839667282458,0.036049608151741394,-0.0490413460770853,94.73823855427567,0.9948894555132053,63,2.1
0.7151043056101736,0.3261877918859409,0.18847182393074036,0.9997931718826294,0.6152272830825232,0.45467149217957836,-0.03677990660071373,0.999981701374054,0.8006684647645773,0.46217288631611336,-0.06509225070476532,0.9999901056289673,0.6624923085450894,0.8267930260481079,0.018410837277770042,0.9999018311500549,0.7626564815829394,0.8255601623007461,-0.01865151897072792,0.9999349117279053,0.6516578576572655,1.0708024005490913,0.1682325005531311,0.9655432105064392,0.7489793993856446,1.0887622427239974,0.10341185331344604,0.9025909304618835,0.6478929811113913,1.3261877918859408,0.2066698521375656,0.9399159550666809,0.734418341525396,1.3385156571035923,0.17024150490760803,0.8277587890625,0.5878179881925495,0.8349298581357208,0.000344406085787341,0.86138916015625,0.8213711885199517,0.8392007768551798,-0.10807893425226212,0.9880733489990234,0.005210787057876587,0.7125743950640144,0.826176594174427,178.3022250829106,179.63798674085862,1.0,0.03179845076816036,-0.029080857071029736,0.04904495253432037,-0.13261131593777822,96.53347867964351,0.9869049681960793,64,2.1333333333333333
0.7220017837634914,0.32984809532367404,0.18179075419902802,0.9998111128807068,0.626946759027126,0.4608352349615036,-0.03763274475932121,0.9999832510948181,0.8130765902878476,0.4684207188822955,-0.06356943398714066,0.9999905824661255,0.672871875525334,0.8355623492991695,0.018208160996437073,0.9999108910560608,0.7745590030959016,0.8361414735272511,-0.018435198813676834,0.9999406933784485,0.6591354575265096,1.07796401225526,0.19953283667564392,0.9678041934967041,0.7590193435535572,1.0974047604228938,0.111123226583004,0.9092517495155334,0.6574685188700042,1.329848095323674,0.27628448605537415,0.9447337985038757,0.7448318434326345,1.357768578697624,0.20640936493873596,0.8418654799461365,0.595687876649496,0.8399019549638305,-0.0093181561678648,0.8703652024269104,0.8323145580200629,0.846001976544034,-0.1229490414261818,0.9874616265296936,0.005199551582336426,0.7237154393106178,0.8358519114132102,177.13580249756498,179.71514189434473,1.0,0.012071788150489135,-0.010522512586400783,-0.15241688754615024,0.14330542360934082,97.31341261745159,0.995177319303105,65,2.1666666666666665
0.7174626196693689,0.32825144193266964,0.17427676916122437,0.9998274445533752,0.624391119903076,0.4583522738193552,-0.039636049419641495,0.999984622001648,0.810543589228245,0.4676432646111062,-0.07120184600353241,0.9999909996986389,0.6681054553507604,0.8302327149638051,0.018680397421121597,0.999919056892395,0.7692539098514231,0.8316096833428921,-0.018905427306890488,0.999945878982544,0.6549264444671364,1.0690547436817943,0.19473257660865784,0.9698994755744934,0.7550088338246635,1.0886489985272743,0.11067929118871689,0.9155269265174866,0.6544530413200995,1.3282514419326696,0.2675779163837433,0.9492261409759521,0.7409902544807848,1.3509412379263117,0.1972709447145462,0.85488361120224,0.5935663396698281,0.8337026372269697,-0.03006264567375183,0.8800045847892761,0.827768493321191,0.8394448772994867,-0.13508202135562897,0.9873400926589966,0.006403475999832153,0.7186796826010917,0.8309211991533486,176.9460740951874,179.88726540211613,1.0,-0.008243087893244572,-0.0028568877910137534,-0.15240807244223317,0.05726518009768858,97.48425842116663,0.9873564659748337,66,2.2
0.7152987850621342,0.32884175900411694,0.17233113944530487,0.9998396039009094,0.6244026204701519,0.4593060167589976,-0.04314766079187393,0.9999857544898987,0.8113764383287886,0.4688775302489768,-0.05255476385354996,0.9999911189079285,0.6670057893163227,0.8293615501817821,0.011883189901709557,0.9999261498451233,0.7674793883587349,0.8311927260525458,-0.012117498554289341,0.9999502301216125,0.6545414328499554,1.0663237465348336,0.17243781685829163,0.972048819065094,0.7545916616108003,1.0832500869343937,0.11280099302530289,0.9209195971488953,0.6541785687335775,1.3288417590041168,0.22299161553382874,0.9534648060798645,0.7414947564060687,1.3503733965109899,0.19047459959983826,0.8667701482772827,0.5944732026405928,0.8324485747297384,-0.032908543944358826,0.8887396454811096,0.8271561868980123,0.8373749866994483,-0.10762282460927963,0.9870758652687073,0.006600230932235718,0.7172425888375288,0.830277138117164,177.06817862655063,179.8799399965249,1.0,-0.008261849948886709,-0.0016608839052553407,-0.00017859149752270435,0.009264447873018755,97.61147047666837,0.9837899218206577,67,2.2333333333333334
0.7260733918319808,0.3479502099272638,0.1766418069601059,0.9998509287834167,0.6366217387445559,0.4688548442485079,-0.04366806894540787,0.9999868869781494,0.8228630307198932,0.47974383761849987,-0.0397101491689682,0.9999909400939941,0.6764231470639559,0.841374972973574,0.009082905016839504,0.999932587146759,0.7782286099119652,0.8435247621932193,-0.009304639883339405,0.9999540448188782,0.6647397045134148,1.0818462704211937,0.1704235076904297,0.9740530848503113,0.7661772636609633,1.0976624452407162,0.11299644410610199,0.9260915517807007,0.6656479283957993,1.3479502099272638,0.2226720154285431,0.9572566151618958,0.7528719394895783,1.3705554975253893,0.18890582025051117,0.8774634003639221,0.6058142776241763,0.8446820710916882,-0.03419193997979164,0.897102952003479,0.8361030901432708,0.8439753872073505,-0.09262041747570038,0.9840828776359558,0.007398813962936401,0.7273258784879605,0.8424498675833966,177.02288528014662,179.9236288165583,1.0,-0.004340033085510481,-0.0012248804242255638,0.03070975733307603,0.0034978587737783326,97.30826850560116,0.9562599034450023,68,2.2666666666666666
0.7353870684086663,0.3612611990307654,0.1746828854084015,0.9998612403869629,0.647882413357502,0.47770115569930416,-0.04401702061295509,0.9999879002571106,0.8356787919976106,0.4868116437352133,-0.04878021031618118,0.9999904632568359,0.6861405505895122,0.854358522540799,0.010104835964739323,0.9999387264251709,0.7882578979263732,0.8568635962098706,-0.010292310267686844,0.9999578595161438,0.675227545712775,1.0977498525042488,0.1933748424053192,0.9753140211105347,0.7777353953272358,1.115780719725839,0.11004531383514404,0.9309373497962952,0.676938792496702,1.3612611990307655,0.26790133118629456,0.9603227972984314,0.7642279611696218,1.391339357587468,0.19220498204231262,0.887009859085083,0.6169156851443935,0.8559656769378798,-0.0317591056227684,0.9020525813102722,0.8448317985234419,0.8556491256673594,-0.09846382588148117,0.9648807644844055,0.006098419427871704,0.7371992242579427,0.8556110593753348,177.06065819099084,179.52094501155872,1.0,-0.009097369257576295,0.003832618435263394,-0.03908425138079538,0.04228354003168939,97.20506027428209,0.9489350500492385,69,2.3
0.7519955912800959,0.3782386516178346,0.1560646891593933,0.9998680949211121,0.6664965343602098,0.49266920298838585,-0.08616287261247635,0.9999887943267822,0.855390474400433,0.5005317699044192,-0.02288879081606865,0.999988853931427,0.7045748908711806,0.8754007890896957,-0.006112801842391491,0.9999438524246216,0.8071877097808664,0.8781025898720335,0.0059242513962090015,0.9999606013298035,0.6932236232387531,1.1212066316015894,0.17496958374977112,0.976931631565094,0.7963077883203138,1.1440426510804307,0.10923413932323456,0.9350337386131287,0.6953285771408512,1.3782386516178347,0.23487548530101776,0.9634383916854858,0.7830834534090595,1.4282495205904875,0.15294960141181946,0.8962186574935913,0.6336744267101638,0.8771142774961628,-0.07046718895435333,0.9082075953483582,0.8611432516909635,0.8726319268601397,-0.05103079229593277,0.9304450750350952,0.005136400461196899,0.7558813003260235,0.8767516894808646,176.88675902153764,179.67864223719414,1.0,0.0035620913113628815,0.0002744067059988727,0.09171226697905588,-0.026001639904338174,97.18997044149815,0.9464084901264351,70,2.3333333333333335
0.7571804452331671,0.38132283282135204,0.15022528171539307,0.9998699426651001,0.671332871271427,0.4965096104091697,-0.08557850122451782,0.9999896287918091,0.8596838940729576,0.5028042216981771,-0.03800194337964058,0.9999847412109375,0.713780165510373,0.8760470859212721,-0.0014336156891658902,0.9999487400054932,0.8125496356160484,0.8814167326181845,0.0012497624848037958,0.9999632239341736,0.699319917823117,1.1269049677647387,0.17521902918815613,0.97823166847229,0.8005369738418325,1.1493856109923344,0.10931410640478134,0.9379494786262512,0.7012881217697151,1.381322832821352,0.24809858202934265,0.966011643409729,0.7872216845563933,1.4355595389146212,0.17334693670272827,0.9039599895477295,0.6396169365240584,0.8800624659512917,-0.08014149963855743,0.9103314876556396,0.8581061023219322,0.8684474165035898,-0.06785494834184647,0.8549351096153259,0.00409051775932312,0.7631649005632107,0.8787319092697283,176.25770196373853,179.90279491742655,1.0,0.023865599342089077,-0.019154180382408435,0.14688384575556054,-0.14069500721222994,99.49326246594931,0.9384901931534125,71,2.3666666666666667
0.7600870449778867,0.3842534699233741,0.11958233267068863,0.9998784065246582,0.675900726869127,0.5017295020728095,-0.09125809371471405,0.9999903440475464,0.857694276123145,0.5024768267465897,-0.04498211666941643,0.9999823570251465,0.717978720008279,0.880987001450788,0.0013038135366514325,0.9999532699584961,0.8166071842415539,0.8859707332408858,-0.001488153706304729,0.9999659061431885,0.7049881686269995,1.134778589738138,0.2079063355922699,0.9795666337013245,0.8032711357945217,1.1530603860416881,0.14993606507778168,0.9417338371276855,0.706698459772237,1.3842534699233742,0.33267754316329956,0.9685259461402893,0.7911292764049129,1.4337528045707026,0.2557869553565979,0.911835253238678,0.6437220659341621,0.8851498377442983,-0.05820426344871521,0.9047326445579529,0.8518937053730555,0.8666827314735266,-0.05434143543243408,0.7821261882781982,0.0004831552505493164,0.7672929521249164,0.8834788673458369,176.67703231405721,179.61842810654966,1.0,0.0014912110481505873,0.0016697350782823293,-0.17134226525956225,0.15934881161954983,99.22369571087178,0.9494725701841594,72,2.4
0.7639419321009947,0.3888636667173848,0.138111874461174,0.999885618686676,0.6834120859443589,0.5100386476922681,-0.057718515396118164,0.9999909996986389,0.8621294112436899,0.5035649354808226,-0.03560132533311844,0.9999794960021973,0.7249970911651508,0.8889161245462537,0.006781159434467554,0.9999574422836304,0.8235450914734117,0.8938331422588204,-0.0069316690787673,0.9999684691429138,0.7151269757265433,1.1457991252224053,0.216874361038208,0.9806897044181824,0.8101913949400338,1.1635433316428576,0.14092561602592468,0.9454053640365601,0.713116863326375,1.3888636667173848,0.3353663682937622,0.9706932306289673,0.7979632460434906,1.4455605252106187,0.23816394805908203,0.918949544429779,0.6513793572805898,0.8930732302224512,-0.028094828128814697,0.9024356603622437,0.8469064352493363,0.8609373759531592,-0.06589367985725403,0.7139449119567871,0.004149526357650757,0.7742710913192813,0.8913746334025371,178.27344686732027,179.6482934283393,1.0,0.0027901070756955553,0.0021222535686529613,0.010085999428831465,0.003435973295524729,99.12000786722697,0.9552325253484774,73,2.433333333333333
0.7581463034022164,0.39160909012033945,0.1626165360212326,0.9998908638954163,0.6900550073373272,0.5159285411316166,-0.052163511514663696,0.9999914765357971,0.8673053979450609,0.5071640127808753,-0.01864807680249214,0.9999772310256958,0.7325679595115099,0.8962129717157018,0.0071167410351336,0.9999611973762512,0.8308884247693465,0.900552792030285,-0.007274318486452103,0.9999709129333496,0.7222321880271939,1.1555975999508392,0.219234436750412,0.9813286662101746,0.816776063706196,1.1735904220400961,0.13949784636497498,0.9482726454734802,0.7191941825614746,1.3916090901203395,0.33558937907218933,0.9724552035331726,0.8044913901304219,1.4557130538144563,0.232158824801445,0.9252620339393616,0.658708095124684,0.9007003494833591,-0.0046033915132284164,0.8940379023551941,0.8565068922876997,0.860323792987768,-0.026641305536031723,0.649657666683197,0.005572527647018433,0.7817281921404282,0.8983828818729934,178.45561279749285,179.53451159366364,1.0,0.009054027899957958,-0.001953013515919002,0.04899100892505258,-0.03212487129111241,98.90612316316988,0.9651219433272796,74,2.466666666666667
0.7680975139879059,0.40199846593848293,0.16294722259044647,0.9998875856399536,0.7001629910631998,0.5295811060702458,-0.05577421933412552,0.9999918341636658,0.8782619677609242,0.5185465659022125,-0.023549148812890053,0.9999732375144958,0.7439355456323842,0.9096415885266469,0.006741818971931934,0.9999644756317139,0.8438727323538331,0.9138749323645359,-0.006905852351337671,0.9999728798866272,0.7338506014353583,1.1718228337327046,0.22699065506458282,0.9810094237327576,0.8289813474768256,1.191464909829291,0.1425561010837555,0.9488588571548462,0.7299998929724523,1.401998465938483,0.3425843119621277,0.9735141396522522,0.8165440804847158,1.4759872280459743,0.2333805114030838,0.9300544857978821,0.670582955268431,0.9180423472330406,-0.006381226237863302,0.8768633604049683,0.8611524964175501,0.8620579970389045,-0.007071430794894695,0.5890171527862549,0.00691339373588562,0.7939041389931086,0.9117582604455914,178.7556093406865,179.43226222137272,1.0,0.004808411413121788,0.0005361683323052552,-0.0353885595613122,0.020346484809378604,98.99555822281668,0.9673506059173937,75,2.5
0.7649106753318182,0.42541961818059343,0.13779939711093903,0.9998864531517029,0.7099861147360774,0.5447436513729172,-0.07721847295761108,0.9999920725822449,0.8869179373900388,0.531010543480964,-0.029230523854494095,0.9999698996543884,0.7550754852780228,0.9254413720021797,0.00558765884488821,0.9999673962593079,0.8565889090277394,0.9277260785827228,-0.005759517662227154,0.9999746680259705,0.7463878153489267,1.1900545680490202,0.22698619961738586,0.9797958731651306,0.8417028244476256,1.2114865972556383,0.14161927998065948,0.9482905268669128,0.7428846533186891,1.4254196181805934,0.3471980690956116,0.9736727476119995,0.8291398838331441,1.4984584725340497,0.23323217034339905,0.9334143400192261,0.6815730161830565,0.9377788068523814,-0.009498665109276772,0.8549991250038147,0.8679917745927436,0.874796254093328,0.008455609902739525,0.5331533551216125,0.00847575068473816,0.8058321971528811,0.9265837252924513,178.9722890008555,179.5036859488875,1.0,-0.0007078228853352994,0.007587674114161462,-0.04167144778569084,0.05251481112756431,98.04388204854638,0.9386032604352499,76,2.533333333333333
0.7567783263518506,0.4303202980757686,0.13348689675331116,0.9998828768730164,0.7111677897677501,0.5483351756343355,-0.08981218934059143,0.9999922513961792,0.8849188986690572,0.5319456735995612,-0.02556183934211731,0.9999662041664124,0.756503590321297,0.928209011932216,0.000793430139310658,0.999970018863678,0.858239063514547,0.9295904836123612,-0.0009728606091812253,0.9999762177467346,0.7490436626063453,1.19295920806335,0.22068357467651367,0.9786945581436157,0.8436896201998203,1.21442201070672,0.14990708231925964,0.9473594427108765,0.7457752862527307,1.4303202980757685,0.33964109420776367,0.9738551378250122,0.8314940892553822,1.500141965500375,0.24371008574962616,0.9364095330238342,0.6831712832756898,0.9427742318800166,-0.011101668700575829,0.8374398350715637,0.8712885652173344,0.8754809876811113,0.02542484924197197,0.48277807235717773,0.010092973709106445,0.807371326917922,0.9288997477722886,179.17488288830157,179.51992454312963,1.0,-0.0018043184404118247,0.0020910755335187972,-0.008349973172466559,-0.04204453259420349,97.58371328397911,0.9338121791257045,77,2.566666666666667
0.7575993889218441,0.42510288686083253,0.1340058147907257,0.9998829960823059,0.7045229288895499,0.5473669115894085,-0.08307845890522003,0.9999926090240479,0.8774045877762507,0.5294513774562798,-0.02810206450521946,0.9999640583992004,0.752586779873232,0.9249676015996164,0.003457920625805855,0.9999725818634033,0.8531706372573827,0.9251079188273024,-0.003628931473940611,0.9999778270721436,0.7449968409362655,1.1884407881282573,0.22522608935832977,0.9785748720169067,0.8392919440528152,1.2095058035908401,0.14877843856811523,0.9476650953292847,0.7442562991913847,1.4251028868608324,0.35451793670654297,0.9746177792549133,0.8275254247930718,1.4900015789299574,0.2573181986808777,0.9394832849502563,0.6796079534732342,0.9413838504886713,-0.020854054018855095,0.8352519273757935,0.8682249326571205,0.8758388516831013,0.005145024508237839,0.439584881067276,0.011088132858276367,0.8028787085653074,0.9250377602134594,178.5292064966528,179.6082596788957,1.0,-0.0035088009368155807,0.005957743656150552,-0.013104454821833303,0.02965133744969677,97.33395713022314,0.9421798631190912,78,2.6
0.7533069639359424,0.44311496895607216,0.13815632462501526,0.9998818039894104,0.7137106905299181,0.5603126608132777,-0.08110545575618744,0.9999927878379822,0.887722162662883,0.5384810237576857,-0.02203105017542839,0.9999637007713318,0.7648887775263957,0.9415080914566925,-0.0017267083749175072,0.9999746680259705,0.8667723304046794,0.9411334432099047,0.0015304067637771368,0.9999790787696838,0.7590762922070177,1.2086832373076761,0.20861315727233887,0.9783930778503418,0.8538275672626601,1.2302543155211312,0.15015670657157898,0.9469282031059265,0.761136318713577,1.443114968956072,0.3257763981819153,0.9752243161201477,0.8428772377921521,1.5104099846109118,0.25543710589408875,0.9421525001525879,0.6916460250080644,0.9576655808823583,-0.028019031509757042,0.8380777835845947,0.8890118774957058,0.9030738252502043,-0.028022434562444687,0.4114847779273987,0.013281911611557007,0.8158305539655376,0.9413207673332985,178.250244250731,179.67477434540857,1.0,-0.007099209128787494,0.002009217052416758,-0.02643269358257517,-0.030341870740271,97.43593658778526,0.9374408881230315,79,2.6333333333333333
0.7605013219074401,0.44717424265385886,0.1391943246126175,0.9998894333839417,0.716017812052829,0.5645963395644963,-0.07004623115062714,0.9999931454658508,0.8920583783107134,0.5495971934016255,-0.03020382858812809,0.999966025352478,0.7668745692311597,0.9482858572783517,0.0006442057783715427,0.999976634979248,0.8697878418028309,0.94760042196557,-0.0008216865244321525,0.9999805092811584,0.7634685845844573,1.215018366738941,0.20945024490356445,0.9790675640106201,0.8587585824184463,1.2376523199851361,0.13800640404224396,0.9492600560188293,0.7677668967961024,1.447174242653859,0.32665175199508667,0.9762564897537231,0.8480317267642332,1.5186303318925294,0.2412033975124359,0.9453523755073547,0.6955633735659418,0.9631907733349498,-0.06370827555656433,0.8501673340797424,0.907544051465803,0.9328052110431574,-0.10256580263376236,0.4426473081111908,0.009070158004760742,0.8183312055169953,0.9479431396219609,178.20771648010438,179.99131929243552,1.0,-0.01957722297512886,0.007307158261258224,-0.0994768206870887,0.04228483539691559,97.16874946964985,0.9421273103416856,80,2.6666666666666665
0.7724444284859578,0.45229712440106834,0.1288335621356964,0.9998993873596191,0.7174571879389253,0.5681887749159497,-0.06208689138293266,0.9999935626983643,0.8959682581745493,0.561413507121252,-0.07775584608316422,0.9999691247940063,0.7673384711417066,0.9583802505419744,0.015057018026709557,0.9999785423278809,0.8700899895430698,0.955357963773609,-0.015174828469753265,0.9999820590019226,0.7660135375775621,1.2194862814799077,0.22212621569633484,0.9798182845115662,0.8618016989556473,1.2415171040767488,0.1041354164481163,0.9526474475860596,0.7729087907702444,1.4522971244010683,0.3425039052963257,0.9775241613388062,0.8516831611968212,1.5230570538480717,0.21910090744495392,0.9490103125572205,0.6976484691945404,0.9680697885719793,-0.07925797253847122,0.8636379837989807,0.9281958612753162,0.952634008382261,-0.1583780199289322,0.4972543716430664,0.004082620143890381,0.8187142303423882,0.9568691071577917,178.01280938655492,179.60072382361508,1.0,-0.01836467565760128,0.04064047741994696,0.009356856771498423,0.24311768393184552,95.60027527913846,0.954489070529809,81,2.7
0.7792748057129422,0.4585795955793937,0.11451834440231323,0.9999083280563354,0.7174480985854271,0.5744080021740752,-0.06541521847248077,0.9999938607215881,0.9002655952700919,0.5714952273811585,-0.08228776603937149,0.9999719262123108,0.7685234801016653,0.9658847849690065,0.015267550945281982,0.9999802112579346,0.871764317981002,0.9620362377067211,-0.015381919220089912,0.9999834895133972,0.7711017090170844,1.2262925276322745,0.22019441425800323,0.9796857237815857,0.8676695043234043,1.246352035870249,0.10547727346420288,0.9546042084693909,0.7805767911498649,1.4585795955793937,0.3367149829864502,0.9780958890914917,0.8580042702772195,1.5312954996583839,0.2161116600036621,0.9515376687049866,0.7020158691953999,0.9749047273687605,-0.09148852527141571,0.8743887543678284,0.9361151311829122,0.9591245583162907,-0.1748998910188675,0.5462235808372498,0.0017434358596801758,0.8201438990413337,0.9639605113378639,178.23142920754375,178.8824181221899,1.0,-0.031507665065464464,0.0050238051197842365,-0.10051469997073463,-0.2770866139085363,95.29845881590171,0.9548971743239667,82,2.7333333333333334
0.7824850325693048,0.45678504897470257,0.09664340317249298,0.9999157190322876,0.7165532957885229,0.5751437068934204,-0.07068458944559097,0.999994158744812,0.9018431324650048,0.5717870367820194,-0.11975108087062836,0.9999744892120361,0.7655811362673848,0.9664965654441652,0.024819517508149147,0.9999818205833435,0.8696087212850655,0.9620059370775161,-0.02495509572327137,0.999984860420227,0.7711738401363843,1.2256619338491255,0.22995612025260925,0.978905975818634,0.8694755022706109,1.2427946974241928,0.10498422384262085,0.9566627144813538,0.7828665279193125,1.4567850489747025,0.3505846858024597,0.9786509871482849,0.8600575665805683,1.5165155653695226,0.21459117531776428,0.9544432163238525,0.6966052202694077,0.9779964099720869,-0.07535938918590546,0.8830426931381226,0.9405626652265042,0.9603833594183149,-0.19187074899673462,0.5908522009849548,0.002004951238632202,0.8175949287762252,0.9642512512608407,178.3400659813958,178.05658067250982,1.0,-0.03344390312811618,-0.01349207892573962,-0.01469319862916193,-0.14552152774710234,94.66889925560402,0.9737072605258831,83,2.7666666666666666
0.7756715853832485,0.44267876313230553,0.11038532108068466,0.9999222755432129,0.7056692205903329,0.5690279002100853,-0.05541370436549187,0.9999943375587463,0.8901172399923031,0.5645773184552232,-0.10683778673410416,0.9999768137931824,0.7528052034927023,0.9516496653136443,0.025853995233774185,0.9999831318855286,0.857849077612227,0.9461551272543075,-0.0260004960000515,0.9999859929084778,0.7617377790386495,1.210907227020515,0.21835117042064667,0.9794536828994751,0.8608773757081043,1.2251231490111925,0.10344459861516953,0.9592047333717346,0.7758017280176003,1.4426787631323055,0.32228416204452515,0.9797219634056091,0.8531319380594158,1.4934312295698289,0.20635180175304413,0.9574235081672668,0.6837915276009067,0.9680612688803131,-0.03817467391490936,0.8913861513137817,0.9321119714628565,0.9492380506836168,-0.1648636758327484,0.6313679814338684,0.0026855170726776123,0.8053271405524646,0.9489023962839759,178.5008507166385,177.72451990384923,1.0,-0.03291803682823073,-0.046075447320739094,0.0015446117779558113,-0.2695065600447817,94.02875696281717,0.9766133228033916,84,2.8
0.7858099292479255,0.45020850061786016,0.10027632862329483,0.9999285936355591,0.7078718588484139,0.5778660029629891,-0.0574147030711174,0.999994695186615,0.8917237135962581,0.5709980237574067,-0.11256919801235199,0.9999789595603943,0.75615944106666,0.9618391549806847,0.027481699362397194,0.9999843835830688,0.8634579800849901,0.9532576556090439,-0.027635514736175537,0.9999870657920837,0.7693461571208102,1.2218822634564503,0.2147369384765625,0.9801506400108337,0.8718162028895068,1.2284761714258088,0.08213315159082413,0.9620991349220276,0.7852692859884355,1.4502085006178602,0.315196692943573,0.9809343814849854,0.8662906827928409,1.4999060848563943,0.1775256097316742,0.9607467651367188,0.6849525142336311,0.9797017802981577,-0.04345184564590454,0.9008499979972839,0.9422504108193845,0.9603002164922791,-0.16141565144062042,0.6679153442382812,0.004094064235687256,0.809808710575825,0.9575484052948643,178.91370418543238,177.09428225822793,1.0,-0.04059807846211352,-0.02243661923066166,-0.054919898892864624,0.18266195653268935,92.59510126676068,0.9809760912565564,85,2.8333333333333335
0.7878389123604917,0.4520452015989668,0.10674233734607697,0.9999333024024963,0.7063747159992945,0.5823496391121862,-0.059482842683792114,0.9999949336051941,0.8894410713531037,0.5724510607293968,-0.10436495393514633,0.9999808073043823,0.7556409895797728,0.9606408876893593,0.025302868336439133,0.9999853372573853,0.8628067164955961,0.9510269499641777,-0.025456976145505905,0.9999878406524658,0.7702859045002737,1.2247653333277118,0.18058553338050842,0.9808307886123657,0.8759781856138165,1.2190794467159816,0.06164117902517319,0.9641478657722473,0.7886694447113003,1.4520452015989667,0.25062552094459534,0.9820201992988586,0.8696265480441407,1.4732947233916196,0.13918471336364746,0.9632899165153503,0.6827959693156267,0.9816613317247698,-0.05041854456067085,0.9096965193748474,0.9450258555707906,0.9628391106201633,-0.1688321828842163,0.7007951140403748,0.005877405405044556,0.8092238530376845,0.9558339188267685,178.54932688404816,175.75563002182017,1.0,-0.028060427221641097,-0.04076317436055165,0.09413704688116653,-0.1352062883392268,92.2937448205619,0.9941115287979655,86,2.8666666666666667
0.7873189998785572,0.439392501148382,0.12615656852722168,0.9999358057975769,0.7063948077563825,0.58252680403455,-0.0418364591896534,0.9999951720237732,0.8899868622888828,0.5665046024177447,-0.08859779685735703,0.9999824166297913,0.748926226413218,0.9556698931856574,0.024035228416323662,0.9999862909317017,0.8590242936659638,0.9452307416614106,-0.024191712960600853,0.9999886155128479,0.7698878518210028,1.2187349044143372,0.12284703552722931,0.9797027111053467,0.8771281982049581,1.2041479166246036,0.01732832007110119,0.9648163914680481,0.7933131370782892,1.4418790131217398,0.13536199927330017,0.9820348024368286,0.8679057841588274,1.439392501148382,0.05114230513572693,0.964436411857605,0.6774616584052472,0.9751610974282973,-0.014490040950477123,0.917123556137085,0.9448909230460003,0.9590986158041672,-0.16589297354221344,0.7302758097648621,0.009507298469543457,0.803975260039591,0.950450317423534,178.56297156113413,173.7552507220188,1.0,-0.04578341050562836,-0.04760034384623913,-0.14056880094704077,-0.05407647058891958,91.08618490503056,1.041594160788685,87,2.9
0.7842112790680852,0.4379468934862589,0.121964231133461,0.9999367594718933,0.7012239849814403,0.5800908668716779,-0.047500066459178925,0.9999952912330627,0.8870643939118986,0.5618111639689131,-0.09544987976551056,0.9999838471412659,0.7442472565702819,0.9484814563529491,0.023757213726639748,0.9999871253967285,0.852262413096796,0.9387140460888284,-0.023928966373205185,0.9999893307685852,0.7652486003451073,1.2137705306371198,0.15079669654369354,0.980405867099762,0.875477984204601,1.2011983289594614,0.033700283616781235,0.9669812917709351,0.7902364143604239,1.4418747428453114,0.19847704470157623,0.9831204414367676,0.8651203602836369,1.437946893486259,0.09607738256454468,0.9668179750442505,0.6727595672307171,0.9715225164507665,-0.017875313758850098,0.9237064719200134,0.9412963685039766,0.9533738720173498,-0.15513336658477783,0.7568916082382202,0.010882377624511719,0.798254834833539,0.9435977512208887,178.2747497514853,172.44053201500918,1.0,-0.023187200083772407,-0.028085170438546806,0.16808627002455404,0.14497041156890897,91.49424085947831,1.017417377713343,88,2.933333333333333
0.8061017510452457,0.45230179095457945,0.13016726076602936,0.9999340176582336,0.720593938839617,0.5980578833992966,-0.04112548381090164,0.9999951720237732,0.9138102915084686,0.576393185187051,-0.09123062342405319,0.9999850392341614,0.7659624172998807,0.9763192920129613,0.023482155054807663,0.9999876618385315,0.8765835339209207,0.9640247190113469,-0.023628704249858856,0.9999898076057434,0.788794097052356,1.2517251805701213,0.09605725109577179,0.9808938503265381,0.902691113421893,1.2278446162195207,0.009637114591896534,0.968406081199646,0.8158317415881995,1.4849907974196643,0.07374418526887894,0.9840730428695679,0.8929456381400268,1.4523017909545795,0.016507308930158615,0.968679666519165,0.6897523133425698,0.9977119749783137,-0.010520375333726406,0.9285702705383301,0.9704081477805672,0.9804604273560831,-0.15253008902072906,0.7807646989822388,0.012508928775787354,0.8212729756104007,0.9701720055121541,178.12748596921855,171.86231350151985,1.0,-0.013612942699327142,-0.020942412419668502,0.07865078591142975,0.06123674170782369,90.4974558722663,1.0370666680598581,89,2.966666666666667
0.8092905912562157,0.45406042947897546,0.09508626908063889,0.9999372363090515,0.7237940070000699,0.5997425535499544,-0.06101294234395027,0.999995231628418,0.9167285448645809,0.5762887614017604,-0.12423024326562881,0.9999863505363464,0.7658322341828372,0.9727088014336787,0.02619382180273533,0.999988317489624,0.875078963002716,0.9614863570420963,-0.02637876197695732,0.9999904036521912,0.7910712880862962,1.249981342020675,0.12679921090602875,0.9812114238739014,0.9057531471388708,1.2191441174433955,0.016670964658260345,0.9701334238052368,0.8182076811003551,1.490620332106335,0.140051007270813,0.9849926233291626,0.8955141245694228,1.4540604294789754,0.06138043850660324,0.9706419706344604,0.6894117922469091,0.9997153007290777,-0.01808600313961506,0.9330735206604004,0.9733978389269204,0.982353979753464,-0.18562956154346466,0.8025573492050171,0.013495922088623047,0.8204555985927766,0.9670975792378874,178.7671280185948,170.71518027355916,1.0,-0.02787615462514631,-0.04918271877827436,-0.1095661142607815,-0.21709225924186182,90.565675722711,1.0130374740607964,90,3.0
0.8197991790583014,0.4616823665405798,0.13074983656406403,0.999940812587738,0.733765338885667,0.6073696422590087,-0.02928035520017147,0.9999952912330627,0.9256234375209019,0.5867493116632844,-0.09834642708301544,0.9999874830245972,0.7750278757681083,0.9803629213857437,0.02573229745030403,0.9999885559082031,0.8831423144848288,0.9693220450571037,-0.025932863354682922,0.9999906420707703,0.7998371126605955,1.2588700549856247,0.08934499323368073,0.9817262887954712,0.9172954616334741,1.2252113928808528,-0.00930599682033062,0.9715566039085388,0.8291950768678732,1.5088432087389452,0.057711370289325714,0.9854207634925842,0.9057616740516796,1.4616823665405798,-0.00035916385240852833,0.9715554118156433,0.6958984653179805,1.0034438213107526,0.02238728664815426,0.9374769926071167,0.9847760404002569,0.9912656188892657,-0.15772351622581482,0.8221368193626404,0.011714398860931396,0.8290850951264686,0.9748424832214238,178.39204781182,169.60538367970727,1.0,-0.014752558988462009,-0.035735443481748466,0.10192272597822526,0.10644667249018182,90.48174872183746,1.0026963169869443,91,3.033333333333333
0.8225648678649303,0.46595094272960497,0.12938833236694336,0.9999433159828186,0.7382038700559758,0.6111119489757983,-0.027100879698991776,0.999995231628418,0.9279992406485073,0.5944765616142547,-0.09673101454973221,0.9999884963035583,0.7807528653653983,0.9855311900989002,0.028046825900673866,0.9999886751174927,0.8876641768023392,0.9742993268665413,-0.028263455256819725,0.9999908208847046,0.8050709387219165,1.26660968014955,0.10319636762142181,0.9812299609184265,0.9218180140321828,1.2265511468053185,-0.0027398495003581047,0.9722613096237183,0.8378413324509387,1.513873088108503,0.09341907501220703,0.9853932857513428,0.91007917821294,1.465950942729605,0.02733389474451542,0.9717677235603333,0.6964030996306071,0.9948341950742345,0.02358180470764637,0.9412617683410645,0.9879900124185609,0.9921320638804443,-0.15857748687267303,0.839735209941864,0.00940161943435669,0.8342085210838688,0.9799152584827208,177.39520141179818,169.48206332709609,1.0,0.006238889520411469,-9.771484875509855e-06,0.16266612642535283,0.27727110870323307,90.48591186689033,1.004986426619333,92,3.066666666666667
0.8344853997517101,0.4955098300512994,0.12839123606681824,0.9999470114707947,0.749407309979128,0.624283480672998,-0.02502630278468132,0.999995231628418,0.9389032784243498,0.6179472937103808,-0.10053132474422455,0.9999894499778748,0.7929045941341344,1.0007408892768583,0.03058106079697609,0.9999887943267822,0.9001909576839228,0.9902522340636578,-0.03078610636293888,0.9999909996986389,0.8186949562817545,1.2864595315448268,0.10966309159994125,0.9819336533546448,0.934905001601836,1.2427870833594599,-0.008024860173463821,0.9740428924560547,0.8496037034191548,1.5369195912568216,0.09990270435810089,0.986058235168457,0.9230915413428843,1.4955098300512994,0.016786621883511543,0.9731936454772949,0.7038415494216163,1.0029048124204032,0.019913550466299057,0.944953441619873,0.999624419214071,1.0066962523029737,-0.1697632372379303,0.8556265234947205,0.003529489040374756,0.8465477759090285,0.995496561670258,178.122638443016,169.49671002120536,1.0,0.0013565230713681398,0.00990976232549787,-0.03805578406395778,0.07590518698140124,91.0072666015741,0.9576697098419208,93,3.1
0.8489745184358339,0.5174221177765375,0.15649555623531342,0.9999490976333618,0.762705192090184,0.641421570974935,0.00023863816750235856,0.9999949932098389,0.9545314441396016,0.6320689670935143,-0.0702899619936943,0.9999902844429016,0.8074638527571252,1.017796846661332,0.029718901962041855,0.9999884963035583,0.9143580697206871,1.0065857812427894,-0.0299234576523304,0.9999909400939941,0.8331969413067688,1.3062938997663904,0.11345048248767853,0.9816866517066956,0.9495750750763824,1.261663286887123,0.00966595858335495,0.9741365313529968,0.8640626618963742,1.5640312948140047,0.11468318849802017,0.9855770468711853,0.9399220241759447,1.5174221177765375,0.0632307380437851,0.9717216491699219,0.7181709551701049,1.0113097813925505,0.0750710740685463,0.9424333572387695,1.012373345337428,1.023354436276281,-0.11521980911493301,0.8698636889457703,0.0051219165325164795,0.8609109612389062,1.0121913139520609,178.26810794609978,169.97773769553973,1.0,-0.001153756694646602,-0.00283265745066438,-0.019115498771704334,-0.09742332216395504,90.79448924204964,0.9335670017774278,94,3.1333333333333333
0.856287973090095,0.5321580426193384,0.13786694407463074,0.9999530911445618,0.7686431643613064,0.6507146243876936,-0.006293660495430231,0.9999951124191284,0.9590100065616798,0.6408296138784791,-0.09809406846761703,0.9999911189079285,0.8155517184056873,1.0275860299381026,0.03593665361404419,0.9999884963035583,0.9208301095133831,1.0142724211194858,-0.03612351045012474,0.9999909996986389,0.842558283155782,1.315236080115654,0.12197937816381454,0.9812763333320618,0.9555460449211897,1.2743674733672996,0.011447151191532612,0.9741865396499634,0.870176441639648,1.5758425574059258,0.12370283901691437,0.9850775003433228,0.9476363917077211,1.5321580426193384,0.08828723430633545,0.9704219698905945,0.7250253738753912,1.0139651713405478,0.051742423325777054,0.9448747634887695,1.0155799323129395,1.0310794884346008,-0.167206272482872,0.8827158808708191,0.005373209714889526,0.8681909139595352,1.0209292255287943,179.31417336955965,170.64001104389112,1.0,0.0068717936018202535,0.009564997050328304,0.06678890017465197,0.10323915147530122,89.8875987191388,0.9145019106016845,95,3.1666666666666665
0.8577681398803787,0.5302331568154655,0.13999611139297485,0.9999566078186035,0.769936959105655,0.6531783389492958,-0.006500630639493465,0.9999951720237732,0.9568697266546076,0.6449851450888248,-0.09213847666978836,0.9999918937683105,0.8161386312860942,1.028583851178979,0.03511100634932518,0.9999882578849792,0.9212094940906393,1.0146488130960796,-0.0353211835026741,0.9999908804893494,0.8427135471974747,1.3132631024056822,0.12017060816287994,0.9818606972694397,0.9546826081355434,1.2753023370524037,0.03937795013189316,0.9743053317070007,0.8711559595935886,1.5748942485967314,0.12900879979133606,0.9852519631385803,0.9523386400937982,1.5302331568154655,0.11248479038476944,0.969322681427002,0.730533671726124,1.0131216691070661,0.04635470733046532,0.9473655223846436,1.009586960912715,1.0316566759187775,-0.1695106327533722,0.8943272233009338,0.004452317953109741,0.8686740626883668,1.0216163321375293,179.12876054194396,172.15533842972246,1.0,0.001718494667788017,0.002887806483258152,-0.0375719181266377,-0.04868375285702441,89.46141649737824,0.9226772560707822,96,3.2
0.8711736347107849,0.5409915236482048,0.14975453913211823,0.9999596476554871,0.7880995278881562,0.6616480924657413,-0.006769954226911068,0.9999952912330627,0.9688597495800886,0.6520004496514646,-0.05639646202325821,0.9999924898147583,0.8307677010869758,1.0398679498378947,0.022675687447190285,0.9999874830245972,0.9326195282787715,1.0268079717478613,-0.02285556122660637,0.9999899864196777,0.8553175391591828,1.3204795379731327,0.08631114661693573,0.9823968410491943,0.9613549423487342,1.2866667909533498,0.06210987642407417,0.9718835949897766,0.8820581519635521,1.591570100352619,0.09113474190235138,0.9847191572189331,0.9690262049593937,1.5409915236482048,0.13765773177146912,0.9638447761535645,0.7526822064969976,1.0158127061827298,0.021394334733486176,0.951292872428894,1.015710946460848,1.0474600906582578,-0.16487213969230652,0.9046629667282104,0.0051819682121276855,0.8816936146828737,1.033337960792878,179.3664175285062,175.41752368984913,1.0,0.022520795730323843,-0.001978240421901872,0.16476705216104942,-0.03884772232553507,89.12960906331158,0.9209218159968732,97,3.2333333333333334
0.8725460930806784,0.5414320119766828,0.1697545051574707,0.9999629855155945,0.7915276149511161,0.6639102855686685,0.009432313963770866,0.9999954104423523,0.9705271671924599,0.6550394631074762,-0.037696242332458496,0.999993085861206,0.8339892273423729,1.0410163154630323,0.01978219673037529,0.999987006187439,0.9342534927453429,1.0280021973403202,-0.0199603121727705,0.9999894499778748,0.8573595842079111,1.3205965314429597,0.08773291856050491,0.9826927781105042,0.9601334763108554,1.2884044733190185,0.07138420641422272,0.9697281122207642,0.8840435662837843,1.5938036603297723,0.09066642820835114,0.9839562177658081,0.9726399345821158,1.5414320119766827,0.14542749524116516,0.9580506086349487,0.7581814308295115,1.0139726483807618,0.03477651998400688,0.9545027613639832,1.0140442186400296,1.0508244415991685,-0.1374356597661972,0.9139485955238342,0.004757702350616455,0.8841213600438579,1.0345092564016762,179.19994344919346,177.15398867971385,1.0,0.008655100597158386,-0.002710239043290612,-0.10672380076944236,-0.0055982965134496925,89.02882564520489,0.9219947921986886,98,3.2666666666666666
0.885110965353213,0.5516682294404361,0.20756801962852478,0.9999649524688721,0.8027123087495639,0.6720984205802073,0.03394591063261032,0.9999954104423523,0.9802431845418981,0.6703291284031145,0.0020969025790691376,0.9999935626983643,0.8448669179335345,1.0490688522048015,0.013155507855117321,0.9999859929084778,0.9440681837269891,1.0368048791530693,-0.013349001295864582,0.9999884366989136,0.868492489120194,1.3327297677181265,0.06543009728193283,0.9837352633476257,0.9654143661969145,1.3010512690222333,0.08685560524463654,0.968768298625946,0.8933594149082726,1.6084793619327384,0.04241623356938362,0.9842278957366943,0.9831647383480222,1.551668229440436,0.15371835231781006,0.9540430903434753,0.7715501902286441,1.022442732939271,0.056942444294691086,0.9558900594711304,1.0203275041955888,1.0618134111516686,-0.07608921825885773,0.9222448468208313,0.0009398460388183594,0.8944675508302617,1.0429368656789353,179.6081071789872,179.43290328465628,1.0,0.013973409147780367,-0.012152151424613136,0.040560779477075426,-0.07295751181779415,89.33301937024288,0.9117431643538567,99,3.3
0.9103771272278025,0.558209983739333,0.18616008758544922,0.9999672770500183,0.8144109411723012,0.6783964792445792,0.04185770824551582,0.9999954104423523,0.9892778785066274,0.6788832462365009,-0.03204648941755295,0.9999940395355225,0.8561008525952017,1.0584789567538269,0.02210465632379055,0.9999848008155823,0.9546685076022949,1.0464894747253117,-0.02229459024965763,0.9999874830245972,0.8821392633683438,1.34392890371219,0.08375239372253418,0.9839610457420349,0.9745945901266806,1.3141325136233049,0.07690553367137909,0.9661049842834473,0.9025304297306725,1.6181412022838986,0.08028318732976913,0.9832761883735657,0.9931858282528893,1.5582099837393328,0.1503772884607315,0.9466765522956848,0.7889494834597165,1.0314993385788827,0.08249399065971375,0.955216109752655,1.0282526401079923,1.0726510209029,-0.10836269706487656,0.9297539591789246,0.0002562403678894043,0.9053846800987484,1.0524842157395693,179.04081133228337,179.9020527881341,1.0,0.02130929216372606,0.0004977764004294026,0.055164013039376326,0.09764620456783656,89.32432776559114,0.9198417512498009,100,3.3333333333333335
0.9123503374202635,0.5587461229692257,0.18277226388454437,0.9999692440032959,0.8203018648330783,0.679354348697413,0.040759745985269547,0.9999953508377075,0.9926416418411113,0.6843421746051704,-0.04200264811515808,0.9999943971633911,0.8615843841166679,1.0610426097767676,0.026142407208681107,0.9999840259552002,0.9572857085144657,1.049134173294254,-0.026332464069128036,0.9999868869781494,0.8850168449128681,1.3473998871558788,0.08897024393081665,0.9841417074203491,0.9771777757906238,1.3169696496521397,0.08047176897525787,0.9639427065849304,0.9053634547549998,1.6223099091754618,0.09135918319225311,0.9826011657714844,0.9950197204861103,1.5587461229692257,0.1494242399930954,0.9416913390159607,0.7988572830530917,1.0321629576235374,0.09288222342729568,0.9544633626937866,1.0302922463015862,1.0771396920345033,-0.11290935426950455,0.9364463686943054,0.002619832754135132,0.9094350463155668,1.0550883915355107,179.55479160520073,179.97296025206657,1.0,0.015336713431380052,0.001994314981152424,-0.045298948186950384,0.011252857155345148,89.07993588876991,0.92431967818954,101,3.3666666666666667
0.9182319760867358,0.5588980591683378,0.1906927525997162,0.9999701380729675,0.8240462029231493,0.6806190467471198,0.05567510053515434,0.9999951720237732,0.9957334298367854,0.6832732707766841,-0.03975889831781387,0.999994695186615,0.8669291283061086,1.0632465715893853,0.028997739776968956,0.9999828934669495,0.9604958706447349,1.051772153439124,-0.029187774285674095,0.9999860525131226,0.889011969711048,1.3492537113132745,0.10187964141368866,0.9843485951423645,0.9795345657009157,1.3171186986773349,0.08614703267812729,0.961870551109314,0.9072624041301173,1.6217165521199957,0.10522651672363281,0.9820877909660339,0.9965508052802886,1.558898059168338,0.16163727641105652,0.9378141760826111,0.8048066043298948,1.0327895271311895,0.12198029458522797,0.9515275955200195,1.0329338501363108,1.0801775138844076,-0.10412974655628204,0.9424236416816711,0.0013910531997680664,0.9137124994754217,1.0575093625142546,179.41703692978456,179.92183671126236,1.0,0.017331334828800546,0.0007288321975111941,0.014950426021691693,-0.009682287085915267,89.40325729718886,0.9334753077440852,102,3.4
0.9102174023985422,0.5510028607467555,0.1821666657924652,0.9999721050262451,0.8237004835051407,0.6760799263899834,0.04502110183238983,0.9999951124191284,0.9950515789492126,0.6775427112785445,-0.0418536551296711,0.9999950528144836,0.8646337066939688,1.0554215358580101,0.031728923320770264,0.9999830722808838,0.9561913360838564,1.045250481637311,-0.03191925957798958,0.9999862909317017,0.8856984759695068,1.334807741530324,0.10896281152963638,0.9844247698783875,0.9735884334931906,1.3085889486299311,0.07990258187055588,0.9612345099449158,0.9015744647254536,1.6057915950594572,0.11552663147449493,0.9817949533462524,0.990055063398554,1.5510028607467556,0.14972978830337524,0.9366348385810852,0.8031377959415363,1.027471227931703,0.11514805257320404,0.9500197172164917,1.0270752819080868,1.07371813040007,-0.11092760413885117,0.9477542638778687,0.0007713735103607178,0.9104125213889126,1.0503360087476605,179.04117617855124,179.89367198550457,1.0,0.017738667628053987,-0.005146376864285419,0.003933974403107922,-0.04494312686013808,89.8197810968755,0.9434758604277602,103,3.433333333333333
0.9087723152955117,0.5503720915986291,0.1793053299188614,0.9999726414680481,0.8252415574827636,0.6765946286300589,0.038099437952041626,0.9999949932098389,0.9986607799303931,0.6758365774015288,-0.044716157019138336,0.9999953508377075,0.8663850789477521,1.0549596747714969,0.029504787176847458,0.9999827146530151,0.9623441697248105,1.0453527571669297,-0.02969057857990265,0.9999861121177673,0.8888274415674967,1.331458267002438,0.1023949608206749,0.9849594831466675,0.9737920204455696,1.3090814582387464,0.078225277364254,0.9610259532928467,0.901078327024905,1.598790960846603,0.10615180432796478,0.9822633266448975,0.9895551232768519,1.5503720915986292,0.14873400330543518,0.9369770884513855,0.8065750969716718,1.0300303344817692,0.09547052532434464,0.9491483569145203,1.027143817361532,1.0737016352409392,-0.13400989770889282,0.9526845812797546,0.0003997683525085449,0.9143646243362813,1.0501562159692133,177.98350843196008,178.74779279762396,1.0,0.03222843814822498,-0.000948436829123806,0.11658607888019171,0.03377214925020709,90.48887406339657,0.9514135189939237,104,3.466666666666667
0.8995332386715348,0.5335039301630122,0.1469554603099823,0.999972939491272,0.8188327704129588,0.6686420836501017,0.015537063591182232,0.9999948740005493,0.9896093256620627,0.6646056048902339,-0.068205825984478,0.9999956488609314,0.8582552418188831,1.0425123321797822,0.029188374057412148,0.9999827146530151,0.9557760010440508,1.033410296325397,-0.029374834150075912,0.9999863505363464,0.8786861898804839,1.3139350391228544,0.11873926222324371,0.9847493767738342,0.9631492746841367,1.2955480573995537,0.08452162891626358,0.9590018391609192,0.885939963055976,1.575904527453039,0.1497117280960083,0.9821690917015076,0.9780894585282548,1.5335039301630122,0.1787141114473343,0.9359800219535828,0.8018420837394896,1.0279029953442307,0.08680366724729538,0.9403301477432251,1.0180917781445662,1.0620108525863723,-0.1494286209344864,0.9570793509483337,0.002153247594833374,0.907015621431467,1.0379613142525896,177.28134139806446,178.01853119829215,1.0,0.02341495829702585,-0.0016594782920215372,-0.06422849686443102,-0.005489494368516535,90.68705224091148,0.9751883829750118,105,3.5
0.9116284552702701,0.5343397913731944,0.1354072242975235,0.9999740719795227,0.826489604410697,0.6711115554650934,0.0055213989689946175,0.9999948740005493,0.9985781294216656,0.6665011901885894,-0.08278395235538483,0.9999958872795105,0.8629813359764811,1.0408740514941615,0.02976144291460514,0.9999828934669495,0.9613079329457159,1.0343218319628047,-0.029942680150270462,0.9999865889549255,0.8801110887442165,1.304610958328685,0.11676919460296631,0.9840484261512756,0.966847040317142,1.2932184259298527,0.07365214824676514,0.9554954767227173,0.885489680388514,1.5715512421142244,0.13575853407382965,0.9810090661048889,0.980018169776069,1.5343397913731944,0.17153602838516235,0.9315503835678101,0.8076112988301543,1.0414279398519763,0.06153024360537529,0.9357972741127014,1.0236078407764553,1.0635699346713858,-0.15434160828590393,0.9609779715538025,0.0024558305740356445,0.9121446344610985,1.037597941728483,177.4381489905253,178.09901457696282,1.0,0.02970380724569253,-0.01452440658374764,0.048688519214436995,-0.10012182595915733,91.82384935649185,0.9757582349798901,106,3.533333333333333
0.9370795893509816,0.5553069403479367,0.12910151481628418,0.9999746084213257,0.8432953566825574,0.684530340841046,-0.004944578744471073,0.9999948740005493,1.0193005855843382,0.6827595486020474,-0.08307971060276031,0.9999960660934448,0.8820270461063113,1.0547694321252867,0.028960809111595154,0.9999828338623047,0.9788933822477922,1.0489897433080453,-0.029140159487724304,0.9999865889549255,0.8937533168660909,1.3179933147414808,0.10982153564691544,0.9838862419128418,0.9832766392298379,1.3086679556573875,0.07123895734548569,0.9533131122589111,0.8977174400081352,1.5878053048974534,0.1318809986114502,0.9805631041526794,0.9940762871256339,1.5553069403479367,0.16858969628810883,0.9296014308929443,0.8222085436568809,1.0657207081852424,0.045558247715234756,0.9323712587356567,1.0433572563837046,1.078362819866195,-0.14839287102222443,0.9644957184791565,0.0009299814701080322,0.9304602141770517,1.051879587716666,178.29097508186948,178.45981216116041,1.0,0.04086319465685631,-0.004104324346745642,0.08287432386542522,0.08204151939935303,92.55754171267287,0.9552018671206661,107,3.566666666666667
0.9387554763848528,0.5551885668862124,0.12092418968677521,0.9999760985374451,0.8462867131762992,0.6878094585539516,-0.024343593046069145,0.9999949932098389,1.0261362522393132,0.6903474318851827,-0.0825185477733612,0.9999962449073792,0.8918597654723172,1.0555410978907094,0.023078488186001778,0.9999824166297913,0.9886975390757361,1.0488842992902467,-0.02324875444173813,0.9999862909317017,0.8987544813239218,1.3190451595226933,0.10347504913806915,0.9842545986175537,0.9867887486779378,1.3100041903878705,0.0747835785150528,0.9520623683929443,0.8939742131550008,1.5889787233027481,0.11810664087533951,0.980805516242981,0.9953978431940729,1.5551885668862124,0.16117669641971588,0.928957998752594,0.8223879849345958,1.067207619349664,0.015764368698000908,0.9350389242172241,1.0531354585759882,1.078763843529622,-0.15640361607074738,0.9678268432617188,0.0013317465782165527,0.9402786522740266,1.052212698590478,177.486621169297,177.57018898043395,1.0,0.06849202739774947,-0.00431750081569912,0.2095113495128427,-0.0015918689832157033,93.1322297456219,0.9560195401662792,108,3.6
