nose_x,nose_y,nose_z,nose_visibility,left_shoulder_x,left_shoulder_y,left_shoulder_z,left_shoulder_visibility,right_shoulder_x,right_shoulder_y,right_shoulder_z,right_shoulder_visibility,left_hip_x,left_hip_y,left_hip_z,left_hip_visibility,right_hip_x,right_hip_y,right_hip_z,right_hip_visibility,left_knee_x,left_knee_y,left_knee_z,left_knee_visibility,right_knee_x,right_knee_y,right_knee_z,right_knee_visibility,left_ankle_x,left_ankle_y,left_ankle_z,left_ankle_visibility,right_ankle_x,right_ankle_y,right_ankle_z,right_ankle_visibility,left_wrist_x,left_wrist_y,left_wrist_z,left_wrist_visibility,right_wrist_x,right_wrist_y,right_wrist_z,right_wrist_visibility,trunk_lateral_inclination,center_mass_x,center_mass_y,left_knee_angle,right_knee_angle,person_height,center_mass_velocity_x,center_mass_velocity_y,center_mass_acceleration_x,center_mass_acceleration_y,body_orientation,torso_leg_ratio,frame,timestamp
1.3762841433319555,0.9761970924014769,-0.37715503573417664,0.9998399615287781,1.4457197658394934,1.0991903938648584,-0.16794276237487793,0.9999942779541016,1.2802234415487919,1.1237117152525087,-0.18446391820907593,0.9999908804893494,1.4153825165676923,1.4484162333744497,0.0010979757644236088,0.999977171421051,1.318310497351524,1.4586270151843783,-0.0012220643693581223,0.9999783635139465,1.4218090190285864,1.709931195659147,-0.012844043783843517,0.972926914691925,1.3251812681339188,1.7318883311963087,0.0018705662805587053,0.9216159582138062,1.42432147778699,1.976197092401477,0.12045918405056,0.9603160619735718,1.3314768693821901,1.9998928104214255,0.1398867666721344,0.904015064239502,1.5171905286638738,1.4471630897558432,-0.22623300552368164,0.8563107848167419,1.2316764693701718,1.4665535221115047,-0.26161274313926697,0.9286179542541504,0.008999437093734741,1.3668465069596083,1.453521624279414,179.13291071844623,179.905349834613,1.0,-0.06619470388369256,0.0008586092152209937,-0.43283299323766117,-0.08130076408340732,100.96955018041312,0.8929701204980355,0,0.0
1.3504129032773973,0.9592545590487271,-0.38464516401290894,0.9998559355735779,1.4306740714973991,1.0902074712023253,-0.16954991221427917,0.9999947547912598,1.251147708780642,1.1029779254479084,-0.19282162189483643,0.9999916553497314,1.4004975470498626,1.4264272491373693,0.005048282444477081,0.9999780058860779,1.2874576881094892,1.4361250184920853,-0.005183218978345394,0.9999793171882629,1.4104396918119044,1.6953372756460234,-0.011419882997870445,0.9747097492218018,1.295058514955599,1.708582966490342,-0.0006773836212232709,0.9274476170539856,1.4096390744761242,1.9592545590487271,0.12685242295265198,0.9631538391113281,1.3032064676318535,1.9660263807090566,0.14889630675315857,0.9121111035346985,1.5058307044584918,1.425552423562715,-0.25184258818626404,0.8703826665878296,1.2029247482077672,1.4456658949969412,-0.27497291564941406,0.9356632828712463,0.004759401082992554,1.3439776175796758,1.4312761338147273,177.70881268134642,179.7852030270686,1.0,-0.01601165490327301,-0.0006151878003036293,0.3891961173403236,-0.011561096204046672,100.032129598817,0.8881545175133743,1,0.03333333333333333
1.3482330968724914,0.9580365851660614,-0.40548691153526306,0.9998703002929688,1.4295682208775757,1.0922644818446743,-0.18247489631175995,0.9999951720237732,1.2505666309304846,1.1003894751016843,-0.20204491913318634,0.999992311000824,1.4006756975448325,1.4252712480105683,0.0051107462495565414,0.9999786615371704,1.286579511939388,1.4328297901501599,-0.005249320063740015,0.9999801516532898,1.4104418646375227,1.695173058088811,-0.017503036186099052,0.9762917757034302,1.2952963698938584,1.7082346792274752,-0.0004471599531825632,0.9326290488243103,1.4096426954538062,1.9580365851660613,0.1325455904006958,0.9655552506446838,1.301919724254665,1.9605144891370931,0.16050408780574799,0.9193655848503113,1.5042216511714421,1.4246055400805322,-0.2600744366645813,0.8829577565193176,1.202013107173782,1.4445101272716883,-0.2802411615848541,0.9419910907745361,0.003029942512512207,1.34362760474211,1.429050519080364,177.7535125249532,179.69103076590864,1.0,0.0037076682316945497,-0.010633680541689526,0.1551153683676611,-0.07884914858290475,98.7488529050892,0.8881330751098745,2,0.06666666666666667
1.3422432350170117,0.9564592078799896,-0.420484721660614,0.999883234500885,1.4288135980064447,1.0924494073711943,-0.19664807617664337,0.9999954700469971,1.2485614221239894,1.0986282735198085,-0.20891878008842468,0.9999929070472717,1.3986006295858087,1.4225986606737426,0.003469861578196287,0.9999794960021973,1.2837342581601876,1.4289176617764676,-0.0036099818535149097,0.9999811053276062,1.406870985983472,1.6900776631746248,-0.06011087819933891,0.9781558513641357,1.2903553953313993,1.7058040610088216,-0.009060991927981377,0.9377740621566772,1.4074691930540946,1.9564592078799896,0.09071456640958786,0.9680721163749695,1.3012891936957147,1.957995265736892,0.1359664499759674,0.9264702796936035,1.5029191323954507,1.422723154140948,-0.2746437191963196,0.8941611051559448,1.1994105234327828,1.4478427436827945,-0.287325918674469,0.9476550817489624,0.0023074746131896973,1.3411674438729981,1.4257581612251051,178.3576665725295,178.88732820452452,1.0,-0.004187572652601051,-0.00956788484787402,-0.059707984278453585,0.007951285223272766,98.37751605575302,0.8827472871775478,3,0.1
1.3383445358854298,0.9549866641849424,-0.4235411584377289,0.9998948574066162,1.4273693282149895,1.0903545492602873,-0.20109888911247253,0.9999957084655762,1.2470810923050029,1.0968371242574149,-0.2092577964067459,0.9999933838844299,1.3956702942229635,1.420429477465843,0.0025686188600957394,0.999980092048645,1.2809704922881429,1.4260262649503037,-0.0027085733599960804,0.9999818801879883,1.404572470677063,1.6872292818388301,-0.051954347640275955,0.9795585870742798,1.2895356280677275,1.7035908138169784,-0.005486723966896534,0.9419234991073608,1.406526987874663,1.9549866641849425,0.09827498346567154,0.9699980616569519,1.299722543017306,1.9553041039124288,0.1462475061416626,0.9325705170631409,1.500773440621162,1.4206393510206117,-0.2830559313297272,0.9040033221244812,1.1970444162240386,1.4486706175589108,-0.29059311747550964,0.95272296667099,0.002424687147140503,1.3383203932555532,1.4232278712080733,178.50717706221081,179.44996910921546,1.0,-0.0053151434175872266,-0.002126849279000476,-0.008051316400270622,0.052718825108435036,98.2791642436533,0.8799439656072657,4,0.13333333333333333
1.3362317994945658,0.9547929512159815,-0.4302498698234558,0.9999053478240967,1.4265961571449797,1.0905009032896578,-0.20878374576568604,0.9999959468841553,1.2490420283173178,1.0971745813716356,-0.21478860080242157,0.9999938607215881,1.3961738206059724,1.4206375700902396,0.0020309174433350563,0.9999811053276062,1.2826838288513203,1.425682664427095,-0.002171109663322568,0.9999829530715942,1.405299820107298,1.6909858196596386,-0.03232821449637413,0.9808670282363892,1.2920323825994464,1.7042241306195745,-0.00012328560114838183,0.9463924169540405,1.4074824778386348,1.9547929512159816,0.14289407432079315,0.9720038175582886,1.3001510690574987,1.9568112440272243,0.15217751264572144,0.9385789632797241,1.5014432547251328,1.42129965303219,-0.291667640209198,0.9131534695625305,1.199153528632656,1.4507450465737806,-0.2982672154903412,0.9573380351066589,0.0024951398372650146,1.3394288247286463,1.4231601172586674,178.54066807392036,179.9187050436359,1.0,0.004349084235272864,-0.005087232984094256,0.07531640387357305,-0.023059183816069025,97.81033477914025,0.8790237284439455,5,0.16666666666666666
1.334554430934692,0.9526350283148296,-0.42729124426841736,0.9999147653579712,1.4251324937759626,1.0882457613780245,-0.21101291477680206,0.9999961853027344,1.248669645878244,1.0962386391804344,-0.21008720993995667,0.9999942779541016,1.3951777809355523,1.4194497740739773,0.0014317651512101293,0.9999819993972778,1.2822969708516878,1.4241275992962552,-0.0015701772645115852,0.9999838471412659,1.4043204409046217,1.690650211970925,-0.02557610347867012,0.9820296168327332,1.291662816801428,1.702843239647261,0.0019261380657553673,0.950335681438446,1.406111504416884,1.9526350283148295,0.1387050449848175,0.9737860560417175,1.2991800902174766,1.9565201530090441,0.15380558371543884,0.9439462423324585,1.5001980158272474,1.4201816201804731,-0.29767099022865295,0.9214625954627991,1.1990932053967358,1.4497847473968009,-0.2906144857406616,0.9614831805229187,0.0029905736446380615,1.33873737589362,1.4217886866851164,178.46088373858336,179.77274425415408,1.0,0.00230989726803073,-0.002443142900121085,-0.01565905714958901,0.02030729322814119,97.54087976948026,0.8802926801586557,6,0.2
1.3345060436414986,0.9533580825504947,-0.4329957365989685,0.9999232292175293,1.4265445795978218,1.0883423343771537,-0.21069487929344177,0.9999964237213135,1.2482552025087397,1.0961925082471264,-0.21965667605400085,0.999994695186615,1.3947496417463934,1.4192263061211507,0.0015756990760564804,0.9999827742576599,1.2836582631240225,1.4239164034000176,-0.0017129203770309687,0.9999846816062927,1.406391190141677,1.6927107885469164,-0.022282561287283897,0.9830846786499023,1.2919408601370586,1.7043155112293715,0.002901820931583643,0.9538871645927429,1.4047208013147576,1.9533580825504946,0.1481543928384781,0.9753336310386658,1.2987390302020265,1.9579676734008833,0.16168050467967987,0.948702335357666,1.5009588235922415,1.4195322305493678,-0.28715991973876953,0.9288123250007629,1.1986362211015797,1.450955085224424,-0.30219244956970215,0.9652201533317566,0.002935081720352173,1.339203952435208,1.4215713547605842,177.19535218904755,179.84328023923663,1.0,-0.003932816485166951,-0.009891145278697711,-0.050055838453058346,-0.059690384237213116,97.90624986369048,0.8764523607771902,7,0.23333333333333334
1.3345277861357052,0.9535593688964873,-0.43041983246803284,0.9999308586120605,1.4271333563262707,1.0878391597787511,-0.21121880412101746,0.9999966025352478,1.2485810790448395,1.0952995866533173,-0.21724390983581543,0.9999950528144836,1.3950370015678888,1.419380654456811,0.0013887690147385001,0.9999833106994629,1.2843182745538502,1.4239851416513234,-0.0015265586553141475,0.9999853372573853,1.4072140101931103,1.6931028044208307,-0.02387399598956108,0.9839617609977722,1.2921777293469767,1.7050181527805748,0.003567888168618083,0.956851065158844,1.404751597347425,1.9535593688964874,0.14058908820152283,0.9766882658004761,1.2987759210688494,1.9584036714714252,0.1651003509759903,0.9528598189353943,1.5013396335895244,1.4189357841699846,-0.29179272055625916,0.9354077577590942,1.1988970405921016,1.450944440484727,-0.29833143949508667,0.96858149766922,0.0027887821197509766,1.3396776380608695,1.4216828980540672,176.9111059344528,179.88971874449896,1.0,0.0015051181844205888,-0.00140567451498845,0.041746845307013704,0.06514865295273871,97.91094387100446,0.875970412438233,8,0.26666666666666666
1.3322485559722428,0.9515022912488283,-0.4159584641456604,0.9999376535415649,1.4257961728417767,1.0836886028951334,-0.20385988056659698,0.9999967217445374,1.2470595766096046,1.0934094819174978,-0.20336809754371643,0.9999952912330627,1.3931754645892445,1.4176083927452956,0.0008854692569002509,0.9999838471412659,1.2824016628422792,1.4221775944152397,-0.001019504969008267,0.999985933303833,1.4037050899186883,1.6911046106740022,-0.022300314158201218,0.9847363233566284,1.2875134522344862,1.7035749723670384,0.007544167339801788,0.9596725106239319,1.4026275576761196,1.9515022912488282,0.15284386277198792,0.9780068397521973,1.2969497016006377,1.955847929261529,0.17819169163703918,0.9566341638565063,1.5001984445924783,1.416500606161647,-0.29503878951072693,0.9411896467208862,1.1979848061106764,1.4489157441282097,-0.2870050370693207,0.9715583324432373,0.003638744354248047,1.3377885637157618,1.4198929935802678,177.5581069891226,178.89856003340174,1.0,-0.0004329470308837811,0.0012433026980190214,-0.015346623776630486,0.020983072624504384,97.94153420610621,0.8773294935034504,9,0.3
1.3311414419894505,0.9505312076012863,-0.41374754905700684,0.9999437928199768,1.425170382465336,1.0813721164499093,-0.20287461578845978,0.9999968409538269,1.2462382838933934,1.0920428091065615,-0.20245151221752167,0.9999955296516418,1.3921440369677403,1.416747244277531,0.000688649364747107,0.9999842643737793,1.2814490954490263,1.4212746532086542,-0.0008205258054658771,0.9999864101409912,1.4029212559573996,1.6901768718999763,-0.021600713953375816,0.9854356646537781,1.285537431316769,1.7027616176154936,0.009005218744277954,0.9621767401695251,1.40158645475113,1.9505312076012864,0.1500677764415741,0.9792045950889587,1.2958727927608555,1.9544406205990263,0.17684169113636017,0.9600244760513306,1.4990234423169055,1.415171386470058,-0.29522082209587097,0.9464026689529419,1.1970958328075967,1.4477674896906536,-0.2851731777191162,0.9742372035980225,0.003997296094894409,1.3367965662083834,1.4190109487430926,177.44911218859025,178.48054225627814,1.0,0.00013620742998164223,0.0015081242247384629,0.004540231427888039,0.002121219479205381,97.96620120445402,0.8780062652056625,10,0.3333333333333333
1.3298485975264476,0.949708650629707,-0.4055134654045105,0.9999493360519409,1.423493884159096,1.0806471176808545,-0.19798247516155243,0.9999970197677612,1.2446942047753509,1.0902950947684291,-0.20157542824745178,0.999995768070221,1.3910184526037035,1.4166431122032892,0.0007807138026691973,0.999984860420227,1.27943309043356,1.421465073844435,-0.0009127261000685394,0.999987006187439,1.40288402015393,1.6915016026043552,-0.012546206824481487,0.9860659241676331,1.2850139085264403,1.701710674034948,0.008794470690190792,0.9646646976470947,1.4019587987128295,1.949708650629707,0.16557757556438446,0.9801741242408752,1.2942930688196241,1.9534060389934735,0.17118433117866516,0.9631900787353516,1.4968340575602197,1.4140103643878135,-0.2965081036090851,0.9512987732887268,1.1961874835661914,1.446437945143589,-0.3048149049282074,0.9766887426376343,0.0036173760890960693,1.3352257715186318,1.4190540930238622,177.32278687116846,179.02949263936026,1.0,-0.0030362377304732407,0.010084514237995439,-0.024679663237028002,0.06673190618861301,97.99512508762031,0.8811894024475758,11,0.36666666666666664
1.3303507917788404,0.9507418917346404,-0.4009404182434082,0.999954342842102,1.4237830890824472,1.0822763410003209,-0.1949673593044281,0.9999971389770508,1.2446505981720097,1.091000221358124,-0.19902744889259338,0.9999960064888,1.3917643483293984,1.4185346028562436,0.0010057705221697688,0.9999853372573853,1.2798027932165945,1.4235971259872926,-0.0011396443005651236,0.9999874830245972,1.4048598726717527,1.6929917922507476,-0.010336185805499554,0.9864805340766907,1.2868390067852669,1.7026442154540742,0.008612964302301407,0.9666868448257446,1.4031139830487243,1.9507418917346404,0.16140909492969513,0.9809287786483765,1.2956557096118662,1.9547292013839537,0.16523568332195282,0.965995728969574,1.4969556695955988,1.4151344529881238,-0.2892218232154846,0.9557241201400757,1.1965120863683245,1.4473529966902865,-0.2962515652179718,0.9788903594017029,0.003268718719482422,1.3357835707729964,1.4210658644217682,176.8801542308565,179.4413051718773,1.0,-0.002520988238509365,0.00807222483064653,0.003919419448380657,-0.015298197866955748,98.02830130593043,0.8843821062367633,12,0.4
1.3314495795225554,0.952026446954648,-0.435415655374527,0.999958872795105,1.4262317905545112,1.0853665729884288,-0.21888132393360138,0.9999973177909851,1.2466808968434242,1.0924320428131173,-0.21354511380195618,0.9999962449073792,1.3933829280067949,1.4181970872847414,-0.0008113474468700588,0.999985933303833,1.2819944748280698,1.4231312942761019,0.0006827908800914884,0.9999880790710449,1.4040586650512776,1.6939702710566085,-0.013709220103919506,0.9872152805328369,1.2867295973215533,1.7026316009426463,0.009732244536280632,0.9690211415290833,1.4031644166509785,1.952026446954648,0.15582776069641113,0.9820334315299988,1.29582833996882,1.9562937487388066,0.16760572791099548,0.9688175916671753,1.4963595238370055,1.4163826402457154,-0.30577704310417175,0.9597091674804688,1.197938309278285,1.4486518413326004,-0.2903972268104553,0.9808697700500488,0.002645254135131836,1.3376887014174323,1.4206641907804216,177.5845239557332,178.91628495807703,1.0,0.006520501193406941,-0.011596929775546922,0.06901942226763762,-0.15016266677754736,98.17296915391223,0.8782863599829748,13,0.43333333333333335
1.3335819545468672,0.9539182347282845,-0.42300528287887573,0.9999629259109497,1.4280563952288317,1.0872693134372606,-0.21132829785346985,0.9999974370002747,1.2483597614575224,1.0931992441745093,-0.2137172520160675,0.9999964237213135,1.3963262290731415,1.4201063606811355,-0.0007032336434349418,0.9999862909317017,1.2843276189504673,1.4250461632133582,0.0005747776594944298,0.9999884963035583,1.407363162034672,1.69537284017128,-0.01628885790705681,0.987665057182312,1.2889425057798654,1.7038185763798956,0.008470715023577213,0.9706966876983643,1.4050373489683907,1.9539182347282846,0.15129278600215912,0.9827983975410461,1.2969591651810228,1.9585850028729976,0.15884509682655334,0.9711517691612244,1.4983548602272736,1.4192705216104406,-0.3123147487640381,0.9632512331008911,1.1993799744498468,1.4502142594719263,-0.30504733324050903,0.9826514720916748,0.002217531204223633,1.3403269240118043,1.4225762619472468,177.18852457145798,179.14609129243846,1.0,0.008146161531639575,0.0019276900319936626,0.0122268585419596,0.10230119850125276,97.97113537498123,0.8780816523373355,14,0.4666666666666667
1.3353493868882922,0.9554393244029691,-0.4237784445285797,0.9999665021896362,1.429390531993098,1.0876672209856753,-0.20700673758983612,0.9999974966049194,1.2502488692402725,1.0934820667377965,-0.20882835984230042,0.999996542930603,1.3976675209050162,1.4210715990423002,-0.0005194719415158033,0.9999865293502808,1.285893565007198,1.4257736323678059,0.0003904302720911801,0.9999887943267822,1.4100241977476695,1.6966783294875591,-0.016264064237475395,0.9879776835441589,1.2903807890814045,1.7053220687032253,0.004166075028479099,0.9722350835800171,1.4066352687277295,1.955439324402969,0.16030767560005188,0.9832421541213989,1.2982520764628407,1.9598683992219965,0.1624651998281479,0.9731507301330566,1.4993821342515545,1.4205068573047588,-0.2981836199760437,0.9663669466972351,1.2009117388430006,1.4491773914419612,-0.2928302586078644,0.9842341542243958,0.0021725594997406006,1.3417805429561072,1.423422615705053,176.6825484352151,179.14843295445291,1.0,0.002094367447034231,-0.003390850012481515,-0.04883782710882818,-0.04288292850255648,97.84412002925423,0.8758977254198272,15,0.5
1.337335664010604,0.9577428701546211,-0.4387752115726471,0.9999697804450989,1.4310968106961537,1.0891290773607332,-0.21587654948234558,0.9999975562095642,1.2520656859952823,1.094532439420734,-0.2160586565732956,0.9999967217445374,1.4002407883750683,1.4217900221220525,-0.0005143251037225127,0.9999868273735046,1.2879067177464738,1.4266490784980645,0.00038510755985043943,0.9999891519546509,1.4115652218778458,1.6977188999386448,-0.02112402394413948,0.9883757829666138,1.2925393461526973,1.7070025265687465,0.003445710288360715,0.9737136363983154,1.408250188610106,1.9577428701546211,0.15850332379341125,0.9837086200714111,1.2995062991702113,1.9624214231049817,0.14899954199790955,0.9751333594322205,1.5007165027573097,1.4223058146542904,-0.29414859414100647,0.9692610502243042,1.2033895827799093,1.4505488502171393,-0.2901034951210022,0.9856592416763306,0.002016216516494751,1.344073753060771,1.4242195503100585,176.91941367086937,179.3842379207433,1.0,0.004237213110485022,-0.007865489028479033,0.016171370012327282,-0.03377825382983145,97.77612538059611,0.8704562399596368,16,0.5333333333333333
1.3380254521877724,0.9582077000930593,-0.4315682053565979,0.9999727606773376,1.4319542882786045,1.089682356658246,-0.21526482701301575,0.9999976754188538,1.2522400632477166,1.0950665470623837,-0.2156948745250702,0.9999969005584717,1.4013583492307626,1.4219554085699249,-0.000582442560698837,0.9999873042106628,1.2886497708836446,1.4260621312607464,0.00045306593528948724,0.9999896287918091,1.4121037169220403,1.6984270055092443,-0.022719496861100197,0.9888131022453308,1.2930805949721773,1.7078214712701212,0.001386956195347011,0.9751425385475159,1.4090019003400986,1.9582077000930593,0.15460911393165588,0.984300434589386,1.3001858948450777,1.9634323169046846,0.14973539113998413,0.976936936378479,1.5014016426571137,1.423692099836655,-0.2996775507926941,0.9719247817993164,1.203716586432393,1.451195171848054,-0.2939404845237732,0.9869622588157654,0.002008110284805298,1.3450040600572035,1.4240087699153356,177.09017097442026,179.3086742410185,1.0,0.002143510274415913,-0.006489032741217606,-0.01534330375721431,0.010104739187977902,97.34774347567108,0.8676731518141982,17,0.5666666666666667
1.3383428323179742,0.955979123468599,-0.4266431927680969,0.9999754428863525,1.4302892356602372,1.0895267527458763,-0.21247735619544983,0.9999977946281433,1.2512860231370007,1.0940817789213706,-0.21500961482524872,0.999997079372406,1.3998587965036329,1.4206998833362792,-0.0005008430453017354,0.9999879002571106,1.2876021765519492,1.4246988928042896,0.00037225548294372857,0.9999901652336121,1.4104351682922471,1.6967565505793192,-0.019548844546079636,0.9893254041671753,1.2917937362422787,1.7064795385053344,0.0017788487020879984,0.9766522645950317,1.4073754398838567,1.955979123468599,0.16110064089298248,0.984854519367218,1.2987517285214298,1.9623738345003696,0.15604355931282043,0.9786357283592224,1.4997387160540425,1.423260673564946,-0.30188921093940735,0.9743757247924805,1.2023230242327487,1.4495742740130164,-0.29872772097587585,0.9881545305252075,0.0017004907131195068,1.343730486527791,1.4226993880702843,177.12968058790793,179.29468747129425,1.0,0.00011597686697124187,0.00042659587529368323,-0.015778066283764512,0.05382287952312889,97.29021511092034,0.8698943939083634,18,0.6
1.3388657633408627,0.9561412264964425,-0.42786693572998047,0.9999778270721436,1.430876953469069,1.090226557612534,-0.2160152941942215,0.9999979138374329,1.2520255994306553,1.0947577737483976,-0.21664294600486755,0.9999971985816956,1.4012268829478156,1.4211146590455905,-0.0006960620521567762,0.999988317489624,1.2881066716411926,1.4251969220758915,0.0005647934740409255,0.9999905228614807,1.4106636823769376,1.6968910117224514,-0.03622912988066673,0.9898156523704529,1.2922830055996959,1.707202718697739,0.001937913941219449,0.977684736251831,1.4079107102387023,1.9561412264964424,0.12954138219356537,0.9854210615158081,1.299256552183891,1.9630403468454216,0.15619894862174988,0.9800200462341309,1.4999451386012947,1.4235871752416815,-0.30805009603500366,0.9765709638595581,1.2019566273927196,1.449684750591457,-0.3027692437171936,0.9892118573188782,0.0016910433769226074,1.3446667772945042,1.423155790560741,177.4317589741496,179.28708870721397,1.0,0.0037569217291113476,-0.0001029543979600807,0.027775225457944006,-0.004040832001196576,97.18724193747255,0.8705318472307438,19,0.6333333333333333
1.3393824364864537,0.9565401700968784,-0.4317811131477356,0.9999800324440002,1.4313014968087565,1.0907842344270566,-0.21645335853099823,0.9999980330467224,1.2526747727332816,1.09505075484254,-0.22030505537986755,0.9999973177909851,1.40204763904373,1.4208425988415623,-0.000588641909416765,0.9999887943267822,1.288704835914336,1.4247930422480017,0.0004561097885016352,0.9999909400939941,1.4109377342670213,1.6972907239904846,-0.03147337585687637,0.9901785254478455,1.2927209389875518,1.7074767589142383,-0.0008078847313299775,0.9786997437477112,1.4083639072805627,1.9565401700968783,0.1284576654434204,0.9859197735786438,1.2995672772350026,1.9636894054932539,0.14020060002803802,0.9813581705093384,1.5004582198034826,1.4246586875527245,-0.30162936449050903,0.9785274267196655,1.2023660484886256,1.4499368604822342,-0.2986156940460205,0.9901570677757263,0.0015918314456939697,1.345376237479033,1.422817820544782,177.58928776963373,179.28329532366038,1.0,0.002746172082256355,-0.005685212802835053,-0.007983449966209364,-0.04404748479920085,97.06120144249574,0.8677776001043324,20,0.6666666666666666
1.3400813756923298,0.9570188432276665,-0.432589054107666,0.9999819993972778,1.4320750753603662,1.0912833023225303,-0.217529296875,0.9999980926513672,1.2530902604132417,1.0953765365608539,-0.22162184119224548,0.9999974370002747,1.4035239895135092,1.4212921529258327,2.1136344003025442e-05,0.9999890923500061,1.2899846598598175,1.4260444882442462,-0.00014850521984044462,0.999991238117218,1.4112582198869548,1.6977152627403505,-0.007865768857300282,0.9902296662330627,1.2932055379831666,1.707693425073215,-0.0011328925611451268,0.9796406626701355,1.4088389857370014,1.9570188432276665,0.16026006639003754,0.9861955642700195,1.299490209404619,1.9642723908398294,0.1395331472158432,0.9825778603553772,1.5011412620047844,1.4255035603363533,-0.31741562485694885,0.9803011417388916,1.2028414935011547,1.4499090769700462,-0.3107088506221771,0.99102783203125,0.0015267431735992432,1.3467543246866633,1.4236683205850396,177.8627614910172,179.25206582851442,1.0,0.007377641397562073,0.003299174284015665,0.03435854003236449,0.06667395354000703,97.34148591245206,0.8690319433097206,21,0.7
1.3411940102781925,0.9583673234400201,-0.4305798411369324,0.9999837279319763,1.4336671173804123,1.092813741145314,-0.2199883759021759,0.9999980926513672,1.2541868001909469,1.0963166745161756,-0.21961131691932678,0.9999974966049194,1.40575719509455,1.4223775776441718,-0.0006360740517266095,0.9999891519546509,1.2916819725429771,1.427208344094757,0.0005065315635874867,0.9999912977218628,1.4122063730550476,1.6987366954819612,-0.019654778763651848,0.9901785254478455,1.2942667132573011,1.7085901348862833,-0.0005517926183529198,0.9798629283905029,1.409902695406798,1.95836732344002,0.1356353610754013,0.9863250851631165,1.3005299018318275,1.965692874431577,0.14140820503234863,0.9833690524101257,1.5032276274998821,1.42741128522184,-0.3138279616832733,0.9817803502082825,1.20398669768089,1.4511362064402222,-0.31064361333847046,0.9917798042297363,0.0013055801391601562,1.3487195838187636,1.4247929608694645,178.154808941712,179.13081148332813,1.0,0.007165747913657804,0.0003769220853175815,-0.001642758909684253,-0.022094095335195477,97.26555047253537,0.8682383943426311,22,0.7333333333333333
1.3475848592935336,0.9582460220475806,-0.42830294370651245,0.9999852776527405,1.4348745296144876,1.0952968684996287,-0.21845659613609314,0.999998152256012,1.255147704429146,1.0970285284520518,-0.22287818789482117,0.999997615814209,1.4069394491519087,1.42276930142789,0.0010568962898105383,0.9999893307685852,1.2926134312429771,1.4274126480020743,-0.001184564782306552,0.9999914765357971,1.4120908516589417,1.698778962646375,-0.010720470920205116,0.9901641011238098,1.2942860019076485,1.7081806360326157,-0.0020436132326722145,0.980370819568634,1.4098333050413716,1.9582460220475806,0.15038329362869263,0.9864484667778015,1.3003179067647799,1.9656380199827337,0.13928978145122528,0.984188973903656,1.503165754567406,1.4279813124330498,-0.3252843916416168,0.9832149744033813,1.204083525546762,1.4516195862038748,-0.30994147062301636,0.9924854040145874,0.0006454288959503174,1.349776440197443,1.4250909747149823,178.43226323366946,178.9991912165534,1.0,0.008708580211517863,0.0027245745084812723,0.012207981430337864,0.018573577761262467,97.20160754047838,0.869561539268798,23,0.7666666666666667
1.351620423401366,0.9582412371582629,-0.404043972492218,0.9999866485595703,1.436578105022276,1.0962907905531403,-0.19866715371608734,0.999998152256012,1.2562033733117124,1.0978166967219094,-0.21448107063770294,0.999997615814209,1.4078540172703526,1.4246268265119237,0.001285966718569398,0.9999891519546509,1.2935904741731823,1.429737604292119,-0.0014209497021511197,0.9999913573265076,1.412614434963569,1.6975150990799128,-0.029564524069428444,0.989827036857605,1.2948709682992914,1.708765977379857,-0.008253154344856739,0.97953861951828,1.4105551495573625,1.958241237158263,0.11031347513198853,0.9860567450523376,1.300867725148751,1.9665014161586711,0.1272207498550415,0.9842483401298523,1.5055612864582466,1.4289693718091634,-0.3188965916633606,0.9843132495880127,1.2047713924429728,1.4522767966273282,-0.3144850730895996,0.993104100227356,0.0005685091018676758,1.3507222457217674,1.4271822154020215,178.54807319631087,178.93006896144576,1.0,0.003127878871844088,0.011888013861561155,-0.04387823068921216,0.07199320534179761,97.56074178387796,0.8761746110375443,24,0.8
1.3494993076679076,0.9559668799193332,-0.4047459065914154,0.9999879002571106,1.4368689810453614,1.0957164898083762,-0.20178768038749695,0.9999980926513672,1.2554579978538905,1.0966206363702462,-0.21268168091773987,0.999997615814209,1.4074257311034886,1.4229283769866097,0.0012561065377667546,0.999988853931427,1.293992810612616,1.4281490323730173,-0.0013940363423898816,0.9999911785125732,1.410816680209689,1.6928650244054053,-0.021260347217321396,0.989018976688385,1.2943064174750534,1.7061253612471405,-0.006401121616363525,0.9785709381103516,1.4091969507025992,1.955966879919333,0.11275875568389893,0.98580402135849,1.2994086613021916,1.964459114054621,0.12373056262731552,0.9843870997428894,1.5056028163094743,1.4272311430390863,-0.3230833411216736,0.9851910471916199,1.203556022170607,1.4506211812871384,-0.3133440911769867,0.9936314225196838,0.00033724308013916016,1.3507092708580524,1.4255387046798134,178.92756264207412,178.93316153316817,1.0,0.011495157553938264,-0.00014338823363927185,0.06311893324845727,-0.09061877400548086,97.77688449129565,0.8782176936975283,25,0.8333333333333334
1.3500797337297727,0.9559622756145506,-0.4081633687019348,0.9999890327453613,1.4393300544944367,1.0970860234178579,-0.20189586281776428,0.9999980330467224,1.2570399234351646,1.0966491218902528,-0.21270549297332764,0.999997615814209,1.4086325285811743,1.4225943609020755,0.0008652412216179073,0.9999884963035583,1.295182833061908,1.4280736877413325,-0.0010042748181149364,0.9999909400939941,1.4115495733817984,1.6919850622504775,-0.024646684527397156,0.9881587624549866,1.296027152455142,1.7060141716537203,-0.0066172294318675995,0.977009117603302,1.4094881140891473,1.9559622756145505,0.09320127964019775,0.9856998324394226,1.2996335875959597,1.9645139758150874,0.11822102218866348,0.9842333197593689,1.506534266647043,1.4273588887168343,-0.3328692317008972,0.9859345555305481,1.2048237188629758,1.448769780221273,-0.31326475739479065,0.9940978288650513,0.00016295909881591797,1.3519076808215411,1.425334024321704,178.932181107224,179.3747461940993,1.0,0.00912898203174226,-0.0018317818063965825,-0.018465384391914745,-0.013174671786927055,98.15251544765309,0.8774791230413705,26,0.8666666666666667
1.3485390878696926,0.9483724822556582,-0.4148653447628021,0.9999900460243225,1.43721043954631,1.0931430157845403,-0.21013395488262177,0.9999980926513672,1.2548107311340002,1.09274541068252,-0.21634893119335175,0.9999977350234985,1.4054066491451849,1.4157478849263638,0.0008129134657792747,0.9999886751174927,1.291788085238445,1.4211990715753673,-0.0009528406080789864,0.9999910593032837,1.40711920135673,1.6849333860182651,-0.05568283796310425,0.9880824685096741,1.294758101402995,1.698895582960814,-0.01965976692736149,0.9761863350868225,1.404690577802059,1.948372482255658,0.08127608150243759,0.9852619171142578,1.2959185923855836,1.957221225997896,0.10746230185031891,0.9841927289962769,1.503166708876713,1.4237716418710178,-0.3379318118095398,0.9867791533470154,1.2023334658418285,1.4395787137482912,-0.332533061504364,0.994561493396759,0.0001488327980041504,1.3485973671918148,1.4184734782508657,179.10730027618064,179.6446256361648,1.0,0.011698461684151552,-0.013757965370439712,0.020143328905406592,-0.09237554621052604,98.37710222444126,0.8797972743453368,27,0.9
1.3477143573773511,0.9443030206776545,-0.4085772931575775,0.9999909400939941,1.437447002501613,1.090472554356872,-0.2109571397304535,0.9999980926513672,1.2564048864676696,1.090266225109896,-0.20914189517498016,0.9999977350234985,1.405207203584043,1.4117778009592523,-0.0010097596095874906,0.9999885559082031,1.2933036585742752,1.4175060792445728,0.0008620692533440888,0.9999908804893494,1.404137501242385,1.6811057150182347,-0.051228560507297516,0.9876956939697266,1.2958783647378311,1.6945709030952485,-0.015131538733839989,0.9747868180274963,1.4019145161324922,1.9443030206776546,0.06982315331697464,0.9849166870117188,1.2936553001788638,1.9531082027276616,0.10322023928165436,0.9839703440666199,1.5022901593025453,1.4222018373551912,-0.32984399795532227,0.9875812530517578,1.2015250408785352,1.4338891140387389,-0.32380881905555725,0.9949529767036438,7.739663124084473e-05,1.3492554310791591,1.4146419401019126,179.74364999928474,178.9749248653591,1.0,0.0265264364629977,-0.006432770889210508,0.11272708028045912,0.055376574614283997,98.66026588427893,0.8806764781058684,28,0.9333333333333333
1.349439853278685,0.9414071246034288,-0.3934193253517151,0.9999915957450867,1.4400333174893898,1.0887722963584654,-0.2109374701976776,0.999998152256012,1.258000365312217,1.0883265615213613,-0.20194363594055176,0.9999976754188538,1.4053727544818757,1.4138737585352867,-0.0021927349735051394,0.9999887347221375,1.2940925144068718,1.4185879199672788,0.002056301338598132,0.9999909400939941,1.4016972662574843,1.681062923720731,-0.03320743516087532,0.9865869283676147,1.2970561752001226,1.6925828692046638,0.00329790567047894,0.9730843901634216,1.399902112822784,1.9414071246034288,0.11725802719593048,0.9840610027313232,1.291855195186254,1.9498250094203122,0.14546844363212585,0.9835560917854309,1.5027155324235213,1.4205716779291382,-0.3633701205253601,0.9882808327674866,1.2033858716174217,1.4270567232477605,-0.346951425075531,0.9951077103614807,0.00016748905181884766,1.3497326344443736,1.4162308392512828,179.60694744327498,178.22202425747608,1.0,0.021317613274720495,0.030635863209314586,-0.03929697613207212,0.28204735061110453,98.51134756254896,0.8969060919082301,29,0.9666666666666667
1.3515482005272894,0.9415008980351407,-0.3723326623439789,0.9999920725822449,1.4440443131129628,1.0891902836769523,-0.19830654561519623,0.9999982118606567,1.2601216721425423,1.0874270480285024,-0.19310936331748962,0.9999975562095642,1.408114659172545,1.4156667833591543,-0.002110784174874425,0.9999890327453613,1.2960909814366943,1.419814257495536,0.001976461848244071,0.9999909400939941,1.402325453391556,1.6813053083132372,-0.0722450464963913,0.9869217872619629,1.2996992220729948,1.6941282634968187,-0.00458415737375617,0.9727771878242493,1.4008778743588324,1.9415008980351407,0.07694724202156067,0.9838773608207703,1.293131105833953,1.9496316731434433,0.1406194269657135,0.9836416840553284,1.5044356099366165,1.4239953593718846,-0.3468579649925232,0.9889366030693054,1.2075222557741765,1.4198182230309095,-0.3492880165576935,0.9951680302619934,0.0006625652313232422,1.3521028203046197,1.4177405204273452,179.0702769161051,177.77383905247433,1.0,0.01921814744610046,0.012327650834846986,-0.016833445893091575,-0.14681882099970137,98.40059192261762,0.9022206970299246,30,1.0
1.3531835634939287,0.940216606040383,-0.35208648443222046,0.9999922513961792,1.4474452748552242,1.0884705175552027,-0.18288423120975494,0.9999982118606567,1.2624782682612985,1.0868084630830912,-0.17431671917438507,0.9999974370002747,1.409145738082566,1.4162316223894669,-0.0020405580289661884,0.9999889731407166,1.297679107769213,1.420224516056421,0.0019034512806683779,0.9999906420707703,1.4018347591308968,1.6813324017796742,-0.08486564457416534,0.98708575963974,1.3001759938939115,1.6944500299795948,-0.01854892261326313,0.9723275899887085,1.4003794112903194,1.9402166060403832,0.06490077823400497,0.9829965829849243,1.2937775993576877,1.947797540048419,0.12146279960870743,0.9832113981246948,1.5072033060379657,1.4233198844566997,-0.31235769391059875,0.9895120859146118,1.2092853126140581,1.4157368897230425,-0.3232027292251587,0.9952825307846069,0.0006249547004699707,1.3534124229258895,1.4182280692229439,178.74238251979256,178.03160251210332,1.0,0.016625618735912968,0.010729611456477273,-0.019526768518214062,-0.012033944344019018,98.71643972404102,0.9090785584222216,31,1.0333333333333334
1.3508702610325307,0.9319517090291891,-0.3628343343734741,0.999991774559021,1.4438798528627577,1.0839293827112162,-0.19097895920276642,0.9999980926513672,1.2592513283047866,1.0821195289612908,-0.18629103899002075,0.9999972581863403,1.4062637830663358,1.410208838021799,-0.0019843988120555878,0.9999884366989136,1.295736417098911,1.414260289961776,0.001847549108788371,0.999989926815033,1.39623294688391,1.6737579572789272,-0.07452844828367233,0.9863423705101013,1.296646000815184,1.6873908207501271,-0.017164912074804306,0.9688535928726196,1.3947441783958554,1.9319517090291891,0.06819167733192444,0.981102705001831,1.2896468472552893,1.9366813233511704,0.12162002176046371,0.9814257621765137,1.5006259110439122,1.4193007287088426,-0.3155275583267212,0.9897599220275879,1.207084997299032,1.4111720938074113,-0.32780662178993225,0.9954228401184082,0.0006833672523498535,1.3510001000826235,1.4122345639917875,178.15070962658257,178.20096268410967,1.0,0.02442565922844033,-0.0007883606171715203,0.059906785894703496,-0.0873462438058237,98.67574932182983,0.9198022482929894,32,1.0666666666666667
1.3622789102934374,0.9290663215110273,-0.3737132251262665,0.9999911189079285,1.4453326167821523,1.0816739827740718,-0.19960150122642517,0.9999979734420776,1.2602995165014137,1.080942293187702,-0.20350106060504913,0.9999970197677612,1.407452857665718,1.4087068222327035,-0.0012778111267834902,0.9999879598617554,1.2974447475804964,1.4132226400527195,0.0011375248432159424,0.99998939037323,1.397669978665887,1.6757639020627182,-0.07005081325769424,0.9850113391876221,1.2965747623546338,1.6866025271359857,-0.013537791557610035,0.96475750207901,1.3933118525670714,1.9290663215110273,0.10802577435970306,0.9782896041870117,1.2885747459546948,1.932248225061409,0.1496737003326416,0.9791513085365295,1.4983709656741393,1.420262156178827,-0.3282407820224762,0.9892711043357849,1.209018247612902,1.410243843439244,-0.34414350986480713,0.9955204725265503,0.0002765655517578125,1.3524488026231072,1.4109647311427114,178.88775937934497,178.31702411906025,1.0,0.022686456536430324,0.0017871468197253643,-0.013493599832546697,0.020277407906509504,98.95771226562918,0.927236950467529,33,1.1
1.3601097671979685,0.9286260961801491,-0.37574705481529236,0.9999898672103882,1.4466267957048207,1.0813279018351054,-0.19687092304229736,0.9999977946281433,1.261884253340183,1.0810062812964176,-0.19945573806762695,0.9999967217445374,1.4090772824987898,1.4088548282928641,-0.00030146370409056544,0.9999875426292419,1.2993505235832596,1.4134079661150691,0.00015161016199272126,0.9999889135360718,1.3984568678085194,1.676951087743522,-0.05998827889561653,0.9841139316558838,1.297940832383909,1.6862069800012722,-0.015364676713943481,0.9630317687988281,1.3935996093887026,1.9286260961801491,0.11234940588474274,0.9772573113441467,1.2886119448764468,1.9286759158322204,0.14727190136909485,0.9779300093650818,1.498466350884697,1.4231007262712032,-0.3259945213794708,0.989006757736206,1.2104042352379918,1.4132510972738954,-0.3349577784538269,0.9956246614456177,0.00012159347534179688,1.3542139030410247,1.4111313972039665,178.83711609926934,178.09273020336346,1.0,0.015534769915776571,0.0035879851297511522,-0.053847348899202445,0.013571487426267622,98.91629242601871,0.9321079562369368,34,1.1333333333333333
1.359601648439052,0.9175252581312553,-0.34179896116256714,0.9999881982803345,1.444468089635857,1.0772470335693374,-0.17219319939613342,0.999997615814209,1.2594384966183056,1.0779885970475247,-0.17887280881404877,0.9999963641166687,1.4062455198843098,1.4065333470648265,0.0017570748459547758,0.9999876022338867,1.296923352108872,1.4107101405113536,-0.0019111487781628966,0.9999887943267822,1.394705723809553,1.676537866360049,-0.02880377508699894,0.9831758737564087,1.2936086262057378,1.6827010129961357,-0.013348531909286976,0.96192467212677,1.3891711779099551,1.9214756547616663,0.14707210659980774,0.9764464497566223,1.2846012222757184,1.9175252581312554,0.16449643671512604,0.9769386649131775,1.4936139522654646,1.4180659160378892,-0.3160800039768219,0.9889544248580933,1.207769589942891,1.4105179938728318,-0.32913535833358765,0.9955794811248779,0.00028133392333984375,1.351584435996591,1.4086217437880901,178.84712876556569,178.501545072398,1.0,0.015486373658886275,0.01786682810878574,4.074164704683554e-05,0.10731418452930841,98.8090858983929,0.9610035153330937,35,1.1666666666666667
1.349925369877226,0.903671277361483,-0.33987751603126526,0.9999871850013733,1.4388120830139,1.0704728224474542,-0.171474426984787,0.999997615814209,1.2529211230223134,1.0713347950952818,-0.1745036542415619,0.9999960660934448,1.3989161787034823,1.3983810373512893,0.0032051783055067062,0.9999876618385315,1.288366000457064,1.4021506061408837,-0.003355222288519144,0.9999886155128479,1.3872779864131561,1.668133503635393,-0.035454463213682175,0.983079731464386,1.2862439393524165,1.6717850196493067,-0.02590111270546913,0.9627004861831665,1.3808044469043979,1.9091120112375,0.1363687366247177,0.9763764142990112,1.2786877028592898,1.903671277361483,0.15524938702583313,0.9767389893531799,1.4845177142015693,1.409810919585057,-0.3011121153831482,0.9895108938217163,1.2031834273890716,1.4034017157159553,-0.328671395778656,0.9954639673233032,0.00032901763916015625,1.3436410895802733,1.4002658217460864,179.0683629415121,178.58453899898345,1.0,0.0021615153174766983,0.0016653034906176757,-0.10046069949748489,-0.12219338520557306,98.8898916355626,0.980872073548968,36,1.2
1.3511114274562745,0.9063819768774282,-0.3548430800437927,0.9999874234199524,1.4426749973210606,1.0714021451852223,-0.17966732382774353,0.9999976754188538,1.2560318375334671,1.0722495504465812,-0.17462018132209778,0.9999960064888,1.4017037272847443,1.399631596937327,0.0022107644472271204,0.9999875426292419,1.2912896531927092,1.4010593739025148,-0.002371403155848384,0.9999882578849792,1.3901851479595868,1.6696765170814656,-0.08465679734945297,0.9839879274368286,1.2894684436574055,1.666945954253882,-0.043631501495838165,0.964672327041626,1.383727847908198,1.9102862671696554,0.07746481895446777,0.9769127368927002,1.2832906137000573,1.9063819768774282,0.10616244375705719,0.9775592088699341,1.4870432408206238,1.4122852644250135,-0.2865719497203827,0.9902240037918091,1.2053189267660078,1.4073721285484215,-0.2974492907524109,0.9955697655677795,0.000322878360748291,1.3464966902387268,1.4003454854199209,179.09485988782433,178.91445122448562,1.0,0.0033871208152850365,-0.018431369913607613,0.009263850688054505,-0.15240699210971412,97.85600552680833,0.9721106187586267,37,1.2333333333333334
1.3511556306710055,0.9082348225867183,-0.3599611222743988,0.9999872446060181,1.4440950306119813,1.0703764792268293,-0.18301215767860413,0.9999976754188538,1.2577228224238928,1.0719498591324375,-0.17824774980545044,0.9999958872795105,1.4034046190782978,1.3999411323106117,0.0021370495669543743,0.9999873042106628,1.292323167958442,1.4004296088821324,-0.002299486193805933,0.9999879598617554,1.391436160261022,1.6707807249023634,-0.0687216967344284,0.9845529198646545,1.290764426693679,1.6681752033949122,-0.031988851726055145,0.9661611318588257,1.3850595056836283,1.9112992302579923,0.08961426466703415,0.9770411252975464,1.2865694775727412,1.9082348225867183,0.11924819648265839,0.9780846834182739,1.4881366732397034,1.4133474657537999,-0.2909415662288666,0.9907183647155762,1.207851008383166,1.4095315556648018,-0.29101288318634033,0.9956252574920654,0.0005989968776702881,1.34786389351837,1.400185370596372,178.98841016752826,179.33243678987807,1.0,0.002008411945387061,-0.010110878170510334,-0.010653431396405505,0.06428059302163178,97.29048040180064,0.9651476775886477,38,1.2666666666666666
1.3485672841295437,0.9086639919426832,-0.39316123723983765,0.9999881386756897,1.4425777034833636,1.0684371625912616,-0.1957937479019165,0.9999977350234985,1.2563744357173523,1.070686710524135,-0.18132038414478302,0.9999960064888,1.4021413426213858,1.3983675240854923,0.0005874611670151353,0.9999876022338867,1.2906461737907693,1.3985587321420587,-0.0007441869820468128,0.9999882578849792,1.390750314172191,1.6694356657589364,-0.06613583117723465,0.9850677847862244,1.2893774465797834,1.6658335123465997,-0.027822326868772507,0.9677214026451111,1.3832351965409322,1.9086639919426833,0.1126413345336914,0.976979672908783,1.2866145448826127,1.9113546629594504,0.1307685226202011,0.9788589477539062,1.4861306149582547,1.4089572922812919,-0.31712839007377625,0.9911607503890991,1.2062937937585814,1.4147476288168521,-0.2984639108181,0.9957137107849121,0.000857621431350708,1.3463937582060777,1.3984631281137756,179.3929872819757,179.62724104071856,1.0,0.003293592439924124,0.001891600610102564,0.01010274332886256,0.09403340789624696,97.08559974150499,0.9572515513054571,39,1.3
1.349166983641591,0.912622234799537,-0.3865082263946533,0.9999887943267822,1.4430463132237872,1.067363487445329,-0.19363291561603546,0.9999977350234985,1.2573180143517486,1.0700196630046188,-0.17276978492736816,0.9999960064888,1.4024941722370952,1.3994823433821229,-0.0016937348991632462,0.9999876618385315,1.2910762153201862,1.399474365234738,0.0015463067684322596,0.9999884963035583,1.3914489747024679,1.6742631926684266,-0.04240509867668152,0.9856027960777283,1.289895214855811,1.6697697749137792,-0.02304030768573284,0.9699088931083679,1.3843064991474723,1.912622234799537,0.13770100474357605,0.9775313138961792,1.2875964915862224,1.9279049236354415,0.12729667127132416,0.9801842570304871,1.4872045768285034,1.4087294855041363,-0.29609885811805725,0.9914622902870178,1.2067356213252125,1.4183409630233987,-0.2671627700328827,0.995804488658905,0.0010120570659637451,1.3467851937786406,1.3994783543084304,179.4145215410738,179.7401285494754,1.0,-0.0028969497108876194,0.0015063558236282947,-0.04593924515067488,-0.0028661205175675246,96.95732706237885,0.9346543630942833,40,1.3333333333333333
1.3510315797853394,0.9155619464221324,-0.39429569244384766,0.9999895691871643,1.4457861363988598,1.0675885853871505,-0.19890497624874115,0.9999978542327881,1.2597311625838443,1.07191957976152,-0.1746574193239212,0.9999960660934448,1.4056291408889903,1.4019545144906336,-0.0017368989065289497,0.9999879002571106,1.293332470399191,1.4023773104317299,0.0015906058251857758,0.9999887943267822,1.3956305966985874,1.6762531754748893,-0.04296078905463219,0.9861630201339722,1.2919971686148763,1.6736447846522253,-0.02334544248878956,0.9718641638755798,1.3865722955202593,1.9155619464221325,0.12859657406806946,0.977590024471283,1.2896417031624603,1.9501657099955196,0.10363111644983292,0.9814592599868774,1.4912392073814091,1.4074502348962106,-0.32284432649612427,0.9919573068618774,1.2101314632108766,1.4227216618983287,-0.2845183312892914,0.995850145816803,0.0016473233699798584,1.3494808056440908,1.4021659124611816,179.9198601738272,179.79398746499714,1.0,0.0028725844768359176,0.002042741191247819,0.047930013206431504,0.004430273156758102,97.06407910047952,0.9167028872699621,41,1.3666666666666667
1.3552150657954158,0.9217507649857379,-0.4199036955833435,0.9999904036521912,1.4500216523566167,1.0692885630672346,-0.2186456024646759,0.9999979734420776,1.2636346764397441,1.075927335178559,-0.1935010552406311,0.9999961853027344,1.4101571051604926,1.406475929410409,-0.0020048092119395733,0.9999881982803345,1.2974298035629348,1.407253197525225,0.0018745478009805083,0.9999892115592957,1.4002486660552598,1.6814469449660687,-0.004349046386778355,0.9862449169158936,1.2958059357720906,1.6803013234546078,-0.017075086012482643,0.9738853573799133,1.3910209654081889,1.921750764985738,0.17806856334209442,0.9775577187538147,1.2937016206999201,1.96866936619555,0.09555403888225555,0.9828055500984192,1.4963690935621559,1.4073256733749275,-0.36981409788131714,0.9924014210700989,1.2137515614340124,1.428960264761668,-0.28643739223480225,0.9957994222640991,0.0025169551372528076,1.3537934543617138,1.406864563467817,179.86464545899378,179.9226461461396,1.0,-0.0004188448047330052,0.0012049933986236672,-0.024876027468271215,-0.006363543473463542,97.1376467329269,0.9009161546957063,42,1.4
1.355884743065854,0.9232296395560114,-0.408642441034317,0.999991238117218,1.4507294155700268,1.069029845316341,-0.21002182364463806,0.9999980926513672,1.264363401154218,1.0772079492173627,-0.19319747388362885,0.9999963045120239,1.4110571123750466,1.4074148131547854,-0.0017551137134432793,0.9999886155128479,1.29827877291707,1.4088292875971389,0.0016329968348145485,0.9999896287918091,1.4019227318754435,1.6823253387183315,-0.004718920215964317,0.9865725636482239,1.2971930210136218,1.682363725078462,-0.013533155433833599,0.975740909576416,1.3917242311302525,1.9232296395560113,0.17661075294017792,0.9778929948806763,1.294375241930428,1.9721569885711692,0.09919287264347076,0.9840471744537354,1.4964807652478214,1.4050795380327414,-0.35221508145332336,0.9928891658782959,1.2141685156490098,1.4319576988604206,-0.2779330611228943,0.9957442879676819,0.0030984580516815186,1.3546679426460584,1.4081220503759622,179.47892595959974,179.67033251397635,1.0,-0.0003581953115141972,0.002433323273448919,0.000490235520129842,0.009875794787543593,97.40540996094796,0.898452587072972,43,1.4333333333333333
1.3551925447934834,0.9241054992029092,-0.41317886114120483,0.9999919533729553,1.4506702108309948,1.069223152703469,-0.2106819897890091,0.999998152256012,1.2643111316423974,1.0773847585409557,-0.19624009728431702,0.9999964237213135,1.4111198103345515,1.4056652608749558,-0.0017274143174290657,0.9999890327453613,1.2984017117470354,1.4085408297422812,0.001602759351953864,0.9999901056289673,1.4015654196637555,1.6821753750858297,-0.018521344289183617,0.9868572354316711,1.2975222527743984,1.6837629483989898,-0.013375302776694298,0.9768957495689392,1.3917843002373336,1.9241054992029092,0.1590663492679596,0.9779101014137268,1.2943919484071715,1.9777775924647383,0.10167138278484344,0.9849429130554199,1.4948796433765938,1.4035257344217993,-0.353759765625,0.9931033849716187,1.214107941139264,1.432920700634337,-0.2911771833896637,0.9955956339836121,0.0030918121337890625,1.3547607610407935,1.4071030453086186,179.66380190634453,179.57309370610253,1.0,-0.0005906171790402434,-0.008812135512239206,-0.0017078372806698242,-0.08265026828967947,98.16599005264506,0.8879183440693937,44,1.4666666666666666
1.3557483003850053,0.9253269507308773,-0.4123092591762543,0.9999927282333374,1.4476415338579738,1.069935909047915,-0.209236741065979,0.9999982714653015,1.2637406496977701,1.0804637092046367,-0.20114731788635254,0.9999966621398926,1.4110640659282376,1.4067415503988943,0.0001332500542048365,0.9999896287918091,1.2981994318799723,1.4112216059990503,-0.00024243004736490548,0.9999907612800598,1.4011343199863895,1.685902555879117,-0.007646750658750534,0.9875423312187195,1.2979799617213825,1.6920105780052341,-0.013914177194237709,0.9787106513977051,1.3922828028408833,1.9253269507308772,0.19504879415035248,0.9781901836395264,1.2958890540183026,1.9833246746624418,0.10419068485498428,0.9860938191413879,1.4911907401062554,1.40396075568242,-0.346113383769989,0.9934634566307068,1.2132321383633051,1.433675394113793,-0.30696359276771545,0.9958109855651855,0.003987133502960205,1.354631748904105,1.4089815781989723,179.91988969909465,179.63354994597424,1.0,-0.003625262605437262,0.011255493328570221,-0.0226483781760439,0.14979512519550867,98.47120325370115,0.8867118003884583,45,1.5
1.3497381502675223,0.9275967684295382,-0.4023211598396301,0.9999933242797852,1.4466661981587006,1.0722036692367376,-0.20221412181854248,0.9999983906745911,1.2634829449444314,1.084993779138622,-0.18987031280994415,0.9999967813491821,1.4119510184375743,1.4091620304336892,-9.363851859234273e-05,0.9999900460243225,1.2978095571843387,1.4144278603829454,-1.9583776520448737e-05,0.9999911189079285,1.4031779966809468,1.685971768508323,-0.06317011266946793,0.9883578419685364,1.299463962808451,1.6948861305044696,-0.023229997605085373,0.9802311062812805,1.394591222597799,1.927596768429538,0.12330342829227448,0.9785105586051941,1.2973240054027582,1.9925932672253888,0.07925129681825638,0.9870874881744385,1.4897089494055515,1.4074754017560855,-0.3190365731716156,0.9938716888427734,1.2117383147705434,1.4353356586455162,-0.29575446248054504,0.995895504951477,0.004838168621063232,1.3548802878109565,1.4117949454083174,179.7799879563843,179.25017735423575,1.0,-0.010745295885943142,0.0089617618291652,-0.05608831994938112,-0.01818546506184939,98.52357695957387,0.8830183818749383,46,1.5333333333333334
1.3427441072032624,0.9271147705590401,-0.3732652962207794,0.9999939203262329,1.4414194366071198,1.0729327100849202,-0.1810331493616104,0.9999984502792358,1.2597131381697764,1.085505316887235,-0.17902284860610962,0.9999969601631165,1.4096200036661672,1.4096629960900517,0.0015614796429872513,0.9999904632568359,1.2950827533293143,1.4164981615620644,-0.0016641374677419662,0.9999915957450867,1.4023427878870343,1.6870940523052442,0.009245237335562706,0.9883995652198792,1.2949823589328808,1.6957634037149234,-0.037087954580783844,0.9817633628845215,1.3937504448849725,1.9271147705590401,0.19862030446529388,0.9784835577011108,1.2965406374469366,1.9954739843866636,0.04914311692118645,0.9880834221839905,1.4857956496076508,1.4068080156775888,-0.3106864094734192,0.9943038821220398,1.2070523795755435,1.4259114551344922,-0.2949351668357849,0.9961383938789368,0.004758566617965698,1.3523513784977408,1.413080578826058,179.45234665109777,179.68150848751645,1.0,-0.012977125208213175,0.015262581452981013,-0.0164295685492536,0.04629519015037284,98.80993319382948,0.8865454321828837,47,1.5666666666666667
1.3395541512701161,0.9272767382716823,-0.37615445256233215,0.9999943375587463,1.437368902639213,1.073080701570956,-0.16874311864376068,0.9999984502792358,1.255942201190133,1.0863221943846044,-0.17604605853557587,0.9999969005584717,1.4053378837892214,1.410928431883067,0.004612435586750507,0.9999906420707703,1.2911257764672,1.4182121740861153,-0.0047182729467749596,0.9999918937683105,1.401578152017118,1.6866298130967532,0.009716825559735298,0.9885870814323425,1.2918825411736845,1.695683591102047,-0.04260263592004776,0.9831464290618896,1.3921869319048756,1.9272767382716822,0.18643173575401306,0.9792675971984863,1.2958434312713254,1.9980262077412023,0.0388285331428051,0.9890413880348206,1.4825126099895145,1.4069610070922678,-0.282291442155838,0.9944027662277222,1.2020759381732997,1.4233243511482716,-0.27470558881759644,0.9959819912910461,0.005012333393096924,1.3482318301282106,1.4145703029845913,178.54646493393017,179.40569586380295,1.0,-0.031193860479266446,0.013081926984052647,-0.14361603384268065,-0.017175789879956563,99.06499795043062,0.8892005033248472,48,1.6
1.3353286222214453,0.9273885882988567,-0.37956953048706055,0.999994695186615,1.434208108993266,1.0732902099573405,-0.17338918149471283,0.9999984502792358,1.251026131134216,1.086436295767992,-0.17860159277915955,0.9999966025352478,1.401158981087594,1.412396320850454,0.0057925996370613575,0.9999909400939941,1.285992273511914,1.4184198285317806,-0.0059049660339951515,0.9999921321868896,1.4011059056786987,1.6873565477612138,0.0052626971155405045,0.9891207814216614,1.2901452273907223,1.6967868037209168,-0.0459471270442009,0.9843937158584595,1.3908330579160595,1.9273885882988568,0.17302091419696808,0.9797101020812988,1.2950269050587244,2.000811565525333,0.04554777964949608,0.9898756146430969,1.4779794144585445,1.40743936114847,-0.26119524240493774,0.9943352937698364,1.2005382665429711,1.4239094322482562,-0.27832141518592834,0.9930719137191772,0.004975229501724243,1.3435756272997539,1.4154080746911173,177.56042089404914,179.9348214554424,1.0,-0.03825041985725914,0.004322769052040528,-0.05476518933284,-0.06805887999209793,98.56042600689942,0.8895454532698763,49,1.6333333333333333
1.330003547603045,0.9271967281728899,-0.3946792781352997,0.9999949932098389,1.4309195851706256,1.0731514960371975,-0.17743197083473206,0.9999983906745911,1.2427539321892018,1.085278549837523,-0.17874009907245636,0.9999966025352478,1.3983881046231843,1.4156372514856819,0.0058020493015646935,0.9999909996986389,1.2823187227999053,1.420921880678478,-0.005912682972848415,0.9999923706054688,1.3990903804046315,1.6952661745696316,0.018190700560808182,0.989208996295929,1.2855771627286698,1.7039379181279366,-0.04297352582216263,0.9855427145957947,1.3891808738128228,1.92719672817289,0.22398217022418976,0.9799046516418457,1.2941128295264521,2.0025481318385365,0.047174595296382904,0.9906064867973328,1.4751983960581838,1.4075471415808607,-0.27101844549179077,0.9942260384559631,1.19147401922163,1.4245800460912776,-0.26396259665489197,0.9933534264564514,0.004589498043060303,1.340353413711545,1.41827956608208,177.40956269088753,179.02229896959452,1.0,-0.024944776475056555,0.02191632167767692,0.10234490171113082,0.1353202365796636,98.03291054171767,0.8986362122331315,50,1.6666666666666667
1.3225115563287855,0.9222345361515576,-0.3683258891105652,0.999995231628418,1.4233932149786466,1.0695556303002944,-0.15618383884429932,0.9999983906745911,1.2349250897100625,1.079688302386365,-0.1580256223678589,0.9999966621398926,1.3907816784347709,1.4164616579534197,0.005461570806801319,0.9999912977218628,1.2748755936357203,1.420794057955715,-0.005575163289904594,0.9999927282333374,1.3944273840757182,1.697769587473236,0.01347389630973339,0.9894925355911255,1.27937274997746,1.7098092198622257,-0.034920584410429,0.9866364598274231,1.3864694013441634,1.9222345361515576,0.23496735095977783,0.9803175330162048,1.2900918162869346,1.998600828796704,0.08881423622369766,0.9912917613983154,1.4703083686866427,1.405092527270279,-0.2533280849456787,0.994288980960846,1.1838617078047893,1.4238843397920282,-0.24630632996559143,0.9937444925308228,0.003841698169708252,1.3328286360352455,1.4186278579545673,177.22703374500634,178.76579702760822,1.0,-0.03830735224600829,0.022001115961684338,-0.10089218584568486,0.0009375424736848901,97.51104777015556,0.9163571372124237,51,1.7
1.3207094270427948,0.9197449234823138,-0.38720154762268066,0.9999952912330627,1.419646972602144,1.0669402056079809,-0.16697034239768982,0.9999982714653015,1.2296420833157369,1.0764786788341243,-0.17155733704566956,0.9999966621398926,1.3862614119066903,1.4179191678351173,0.00541622843593359,0.9999913573265076,1.270322959505431,1.421450118150546,-0.005530255846679211,0.9999929666519165,1.3924049099854612,1.698402515910235,0.016311433166265488,0.9891008734703064,1.2745361449757961,1.7133387078521216,-0.0334932878613472,0.9872592687606812,1.3861442326120672,1.9197449234823138,0.23807041347026825,0.9794562458992004,1.2903146122501752,2.0012589303008905,0.09597989171743393,0.9916936755180359,1.4665070511657492,1.4068923602796166,-0.2610951364040375,0.9936057925224304,1.1792449988624172,1.4312571600284596,-0.26191073656082153,0.9938878417015076,0.0036146342754364014,1.3282921857060608,1.4196846429928316,177.12505555505953,177.69020422974845,1.0,-0.04155091078711789,0.0028677283604721738,-0.025803796809992542,-0.15319056748735524,97.17812377151641,0.9243609881978052,52,1.7333333333333334
1.32110702689954,0.9210761739397487,-0.4325346350669861,0.9999954700469971,1.420267209964639,1.0669874197332345,-0.20883581042289734,0.9999982714653015,1.2260192138107748,1.0758040826017448,-0.21190914511680603,0.9999967217445374,1.3844285884439822,1.4209936812917632,0.0049179731868207455,0.999991238117218,1.2675627162870127,1.4246536274417607,-0.00502336211502552,0.9999930262565613,1.3887639259059155,1.7007037454499965,0.008178932592272758,0.9887861013412476,1.2748422490688343,1.7157695121519592,-0.023568231612443924,0.9876316785812378,1.3893351076806921,1.9210761739397488,0.22534866631031036,0.9781428575515747,1.293288440726569,2.0047766120375887,0.1106870025396347,0.9919294714927673,1.4682012322423046,1.4111836382513325,-0.3107979893684387,0.9931696057319641,1.1732835912782136,1.4434384606816706,-0.3035931885242462,0.9940550327301025,0.0033333301544189453,1.3259956523654974,1.4228236543667618,179.26052524446106,177.78040639944592,1.0,-0.041835638053781266,-0.0013268149802213522,-0.001457082094642923,-0.03258749942886845,97.5745459140968,0.928651481295655,53,1.7666666666666666
1.3152662598091323,0.9232796028441732,-0.4262138903141022,0.9999955296516418,1.4195133433115856,1.067074208978041,-0.20925907790660858,0.9999982118606567,1.2235683706100833,1.0774236103105588,-0.2017454355955124,0.9999966621398926,1.3833517525138488,1.4249761243331425,0.001456505386158824,0.9999911189079285,1.2655253859553794,1.4283396955687537,-0.0015617703320458531,0.9999930262565613,1.3870348511649357,1.7042620485104878,0.004313211422413588,0.9885520339012146,1.2741429866221203,1.7209727634483392,-0.02306254580616951,0.9881116151809692,1.3928176336782527,1.9232796028441732,0.22667238116264343,0.9767652750015259,1.2960284812389447,2.010110150834481,0.10687891393899918,0.9922084212303162,1.4700091046350359,1.4149385071701273,-0.3239525854587555,0.9929988384246826,1.1729203517867264,1.4485004216513484,-0.2973010540008545,0.9941729307174683,0.003903627395629883,1.3244385692346141,1.4266579099509482,179.24310218064474,177.35818707561305,1.0,-0.036776592625194,0.00381645936761267,0.040546430319115236,0.04045905704623708,97.40462469031192,0.93163071370955,54,1.8
1.3124040919807214,0.9222185025843586,-0.42083969712257385,0.9999956488609314,1.4135075608549734,1.0649333470114921,-0.19872575998306274,0.999998152256012,1.2199617722313318,1.0740090264791622,-0.18480250239372253,0.999996542930603,1.3774657704471691,1.425890243200348,0.00042242821655236185,0.9999909400939941,1.2588229849612118,1.4283276721392728,-0.0005387452547438443,0.9999929666519165,1.3827713481744515,1.7034578337982091,-0.021878238767385483,0.9888884425163269,1.269050251675752,1.7201796198119443,-0.026220817118883133,0.9886953234672546,1.3928652291490409,1.9222185025843586,0.20982861518859863,0.9761273860931396,1.2951965417950277,2.0092959357309756,0.10205759853124619,0.9924979209899902,1.4682955363634878,1.4143015574384346,-0.2969210743904114,0.9927677512168884,1.1676262305703216,1.4487114455784207,-0.2812623083591461,0.9943167567253113,0.003424912691116333,1.3181443777041906,1.4271089576698104,178.45322672925,176.8394768854817,1.0,-0.04266549578103566,0.008821588121425958,-0.044751830412169895,0.03793176625360688,96.87905630587395,0.9363040168103973,55,1.8333333333333333
1.3059731921770976,0.919824810296859,-0.3874962329864502,0.9999959468841553,1.407526481779255,1.0600475547357406,-0.17415663599967957,0.999998152256012,1.2114446683266973,1.0728527730745678,-0.1705702543258667,0.9999967217445374,1.3725869694219326,1.4249418184812328,0.0005109700141474605,0.9999911189079285,1.252600067953364,1.427287534532707,-0.0006262959213927388,0.9999932646751404,1.3804602846659164,1.7049188266466782,-0.01322086900472641,0.9892651438713074,1.2639937712571152,1.7204034549584977,-0.023530783131718636,0.9893500208854675,1.3918517796430776,1.9198248102968591,0.22734682261943817,0.9759297370910645,1.2925859220441784,2.006162493087149,0.11586769670248032,0.992821991443634,1.4660026544085611,1.4124636690841534,-0.25567707419395447,0.9924674034118652,1.1618768062928475,1.447968670786142,-0.2575801610946655,0.9946479797363281,0.004838734865188599,1.3125935186876483,1.4261146765069699,178.5765761745835,176.51220400949293,1.0,-0.028525673768144855,0.00668311565806933,0.10548825329380737,-0.015930331868425854,96.58951142828008,0.9416676227717238,56,1.8666666666666667
1.303251330975434,0.9196656632649517,-0.41108664870262146,0.9999962449073792,1.4044280389211252,1.0590751181001925,-0.19172526895999908,0.9999982118606567,1.2087175023190642,1.0729156207987685,-0.1898297369480133,0.9999968409538269,1.3718893126035212,1.4263319068484535,0.0008011842146515846,0.9999914169311523,1.2506508850331488,1.4302013812718133,-0.0009095569839701056,0.9999935626983643,1.3811305224193031,1.709049969910578,0.004648033995181322,0.9891422390937805,1.2622728059191228,1.7235756147493106,-0.036969803273677826,0.9898886680603027,1.394495688024789,1.9196656632649518,0.26383039355278015,0.9733565449714661,1.2935011584269642,2.0081640842806925,0.11040695756673813,0.9929906129837036,1.4664479263557448,1.4142364643381937,-0.30018675327301025,0.9924342632293701,1.1587999246027911,1.4537153332285098,-0.29529476165771484,0.9947665333747864,0.005225658416748047,1.311270098818335,1.4282666440601335,178.24117765040296,176.00646210351843,1.0,-0.01947576989903451,0.007984866998189268,0.07366357651003205,0.010524126490079909,96.8911953832963,0.9478512551725118,57,1.9
1.3055276057521104,0.921758393926547,-0.43166986107826233,0.999996542930603,1.4038099262882002,1.0591791589037236,-0.21148112416267395,0.9999982714653015,1.210120438579552,1.0731973510679813,-0.20263174176216125,0.9999970197677612,1.3728800352068637,1.43084478514945,-0.0004884068039245903,0.9999918341636658,1.2520629170006734,1.4363305499205465,0.00037615938344970345,0.9999939203262329,1.3820396422133334,1.7158006147910756,0.003972147591412067,0.989682137966156,1.2617847547730086,1.7275948824738343,-0.023406390100717545,0.9905906915664673,1.3981977446374283,1.921758393926547,0.2630991041660309,0.9731916189193726,1.2963308964198788,2.014491899470576,0.12576869130134583,0.9934172034263611,1.4696821390748642,1.4220394302000432,-0.31533628702163696,0.9922370314598083,1.157885980676571,1.4630003978413566,-0.3070736825466156,0.9950571656227112,0.005280971527099609,1.3124714761037686,1.4335876675349981,177.35521462146994,175.04561040804103,1.0,-0.013836257904932599,0.017158624639229146,0.045647316461688764,0.07354373765041793,97.35693352688456,0.9555793063905397,58,1.9333333333333333
1.3032637690776903,0.9211314454295387,-0.4400881826877594,0.9999967813491821,1.4033104713928946,1.0592733511971402,-0.21460124850273132,0.9999982714653015,1.2090318450324504,1.0721237628749647,-0.21849651634693146,0.9999971985816956,1.3698965701079562,1.432355579060472,0.00010314561950508505,0.9999920129776001,1.2493131849666308,1.4394888713902376,-0.0002189193619415164,0.9999942183494568,1.3803641831673343,1.715282095110459,0.002145776292309165,0.9900000691413879,1.2598615346731874,1.7309222307606784,-0.01376902312040329,0.9910504817962646,1.3977840044016892,1.9211314454295387,0.25490590929985046,0.9734174013137817,1.2957003030352392,2.015102418509363,0.14478474855422974,0.9937068819999695,1.4682649623352866,1.4243715865834512,-0.32653531432151794,0.9919304847717285,1.155946194757669,1.4742818589893734,-0.32902589440345764,0.9953397512435913,0.004843086004257202,1.3096048775372935,1.435922225225355,177.2817614401954,174.88511258785482,1.0,-0.017431339988179216,0.022156245455715186,-0.027140981248495195,0.0377228098171084,98.50332901856537,0.9650196905268155,59,1.9666666666666666
1.2980956539513973,0.9180302914085946,-0.4283655285835266,0.9999969601631165,1.3992091758244833,1.0575949368585413,-0.20929451286792755,0.9999982714653015,1.2044716985014166,1.0689731149894046,-0.2081717550754547,0.9999972581863403,1.3641098198560895,1.4314436289652066,-0.00045156487612985075,0.9999921917915344,1.2434143379312992,1.4390253496837704,0.00031662778928875923,0.9999943971633911,1.374567479844894,1.709495447743351,-0.09120877087116241,0.9907649755477905,1.2571836401766556,1.7342861356976336,-0.007110356353223324,0.9913274049758911,1.3931157982181979,1.9180302914085945,0.15612228214740753,0.9740732908248901,1.291717614958542,2.009272346056801,0.16284948587417603,0.9938730597496033,1.463876580408722,1.4245808536483364,-0.29760831594467163,0.9916962385177612,1.1536021332497506,1.4690996556866414,-0.3169039487838745,0.9955689907073975,0.004301518201828003,1.3037620788936943,1.4352344893244886,177.07105759474646,175.51203665415892,1.0,-0.013773116994723627,0.02873921919995995,0.027632218214112145,0.05099196971385796,98.9580019328258,0.9762260640193124,60,2.0
1.2737941134734103,0.9010984487581694,-0.4361700415611267,0.9999971389770508,1.3728981526630686,1.0382290591328254,-0.20748284459114075,0.9999982714653015,1.1810137024840017,1.0463620026452647,-0.2089901715517044,0.9999972581863403,1.338530137123879,1.4046450441210174,-0.0005592923844233155,0.999992311000824,1.2186389343547537,1.411726628735833,0.0004258186090737581,0.9999945163726807,1.3480728362379302,1.6783881680806263,-0.04837385192513466,0.9913173317909241,1.2348295364070545,1.703570024232012,-0.0002855613420251757,0.9915689826011658,1.3664010517921925,1.9010984487581692,0.18471670150756836,0.9752464890480042,1.2689077860445956,1.9723273177055245,0.16633880138397217,0.9940475225448608,1.436379091482925,1.4004140750865854,-0.2733413577079773,0.9914707541465759,1.1327325133435457,1.439574795426821,-0.309357613325119,0.9956474900245667,0.0031325817108154297,1.2785845357393162,1.4081858364284252,177.2919007159298,175.94884147398835,1.0,-0.008109755495951766,-0.003865893497437469,0.04099482030915419,-0.24310076325743524,98.73873361406744,0.9568623660802752,61,2.033333333333333
1.2507190159941366,0.8855903877171254,-0.44615817070007324,0.999997079372406,1.346733745452689,1.019546220004157,-0.2146601676940918,0.9999982118606567,1.1563879918175752,1.0278931866606542,-0.22393807768821716,0.9999971985816956,1.3147554996177402,1.3775439416388429,-0.0005131086800247431,0.9999924302101135,1.1954887120946012,1.3853793548136164,0.0003875025431625545,0.9999945759773254,1.3223248806729717,1.6453586738929358,-0.10959168523550034,0.9919021725654602,1.2106281578969758,1.672011111664817,-0.012599542737007141,0.9913310408592224,1.3384290157632006,1.8855903877171254,0.09510405361652374,0.9764270186424255,1.2467088590670918,1.936291156733788,0.15319089591503143,0.9940717816352844,1.4099074858490968,1.3751946242976205,-0.2777600884437561,0.9906818866729736,1.1121687740583588,1.4140743601555292,-0.3148577809333801,0.9952471852302551,0.0032746195793151855,1.2551221058561706,1.3814616482262296,177.78381525238,175.2492504751026,1.0,-0.0014915312097412209,-0.008556835485458403,0.050636003442106906,-0.037259742641186436,98.86314618912698,0.9342254551596771,62,2.066666666666667
1.22703210497154,0.869117810723856,-0.43659281730651855,0.9999971389770508,1.3208526416387467,0.999004262820312,-0.21076750755310059,0.999998152256012,1.1329319950816596,1.0093541411000386,-0.21554479002952576,0.9999971985816956,1.291226532781825,1.3504211649759499,-0.000555110746063292,0.9999922513961792,1.1728876930196503,1.359140298913603,0.0004197252565063536,0.9999943971633911,1.2967337075497003,1.6155293824892878,-0.1167747974395752,0.9924131035804749,1.1879458588701244,1.6413262034702287,-0.013068688102066517,0.9910646080970764,1.3105054486941365,1.869117810723856,0.08150970190763474,0.9773871302604675,1.224467609935382,1.9009094931668664,0.1470201462507248,0.9938352108001709,1.3842723502679517,1.3500526773238666,-0.2739641070365906,0.9906111359596252,1.0929228888119094,1.3875404031046055,-0.30281054973602295,0.995396614074707,0.0041351318359375,1.2320571129007378,1.3547807319447764,178.08151759775694,175.04596053862048,1.0,-0.0028786305650962754,-0.01302642119134754,-0.01077084131068581,-0.03522278727589944,99.03281462678305,0.9139493222196041,63,2.1
1.1970868976109448,0.8476056540161647,-0.44666749238967896,0.999997079372406,1.288229911243538,0.9749000527336725,-0.21848420798778534,0.9999980926513672,1.1046694262451253,0.9824940363499914,-0.2345035970211029,0.9999971389770508,1.2602841214006868,1.314995415823857,-2.9866730528738117e-06,0.9999916553497314,1.144587782934056,1.324471611657766,-0.0001475983881391585,0.9999938011169434,1.2649097800075775,1.5761084587401586,-0.10309629142284393,0.9925204515457153,1.1592102059087621,1.6025356992990045,-0.020236562937498093,0.9890661835670471,1.2744925202751,1.8476056540161647,0.041398994624614716,0.9784798622131348,1.1948049982147986,1.854912389763991,0.12323073297739029,0.9930070042610168,1.3504923240703235,1.3177451937471225,-0.27387091517448425,0.9904265403747559,1.066716028372841,1.3532291478206495,-0.32185542583465576,0.9954404830932617,0.0031097829341888428,1.2024359521673713,1.3197335137408115,178.99343014037447,174.9822614496182,1.0,0.0030658715561621055,-0.016580458609066463,0.04734516857946665,-0.03120053073528995,99.37986865963752,0.8866767042547306,64,2.1333333333333333
1.1872330565434268,0.840003959019531,-0.436554491519928,0.9999970197677612,1.2745893130423003,0.9664666428798462,-0.20978887379169464,0.9999980330467224,1.095367932720907,0.971894424029748,-0.22637517750263214,0.9999969601631165,1.2493906731328728,1.303205925717309,0.0014413638273254037,0.9999905228614807,1.134611353123333,1.3127006471929268,-0.001605867175385356,0.9999924898147583,1.2530546418277628,1.565273252422555,-0.08352392911911011,0.9921754002571106,1.1496423536601958,1.5928706772707986,-0.023758796975016594,0.9856986403465271,1.2600713691181182,1.851456404110859,0.03834976255893707,0.9792157411575317,1.1852555666858895,1.840003959019531,0.10954989492893219,0.9911921620368958,1.338433119910824,1.306065682500196,-0.24559101462364197,0.9902681112289429,1.0587657583477383,1.3369571443349735,-0.316791832447052,0.9954556226730347,0.0022423267364501953,1.192001013128103,1.3079532864551178,179.39648698555223,174.87077629957668,1.0,0.0006300886385771403,-0.0017470517390313718,-0.01794506536893212,0.10941789214772209,99.00836993629177,0.8687853522180481,65,2.1666666666666665
1.1853229070460956,0.837654868696573,-0.42704057693481445,0.9999969005584717,1.2714854982624295,0.9651629128979946,-0.2066594660282135,0.9999977946281433,1.0938781992853888,0.9686667087127924,-0.2248982936143875,0.9999967217445374,1.2471488550926353,1.3000748478635817,0.000993569497950375,0.9999894499778748,1.1329019717617068,1.3099539594923018,-0.0011605655308812857,0.9999915361404419,1.2492360420541895,1.5655265830870324,-0.06699380278587341,0.991625964641571,1.1474150128283882,1.5924012571215624,-0.0189439058303833,0.9830036759376526,1.2548739667380586,1.8540835283726393,0.053903691470623016,0.9800910949707031,1.183135356558346,1.837654868696573,0.11503871530294418,0.9897158145904541,1.334303418090835,1.3036170899645978,-0.25713202357292175,0.9897013306617737,1.0595535133425893,1.3292806339864593,-0.308796763420105,0.9954780340194702,0.00145035982131958,1.190025413427171,1.3050144036779416,179.33117227651806,174.65478665609518,1.0,0.0029191500235543864,-0.0026649297512328332,0.017429022755880017,-0.0070112748194044346,99.09830312562961,0.8629148878381738,66,2.2
1.186597674219033,0.8374392450052612,-0.42395347356796265,0.9999970197677612,1.2709649727549233,0.9681158305961549,-0.2028564214706421,0.9999977350234985,1.0941251741513596,0.966906562144174,-0.22131462395191193,0.9999966621398926,1.2472583579693792,1.3000712155952074,0.0008273407001979649,0.9999877214431763,1.1337319016493337,1.3114030768132043,-0.0009947573998942971,0.9999898672103882,1.2469366927051386,1.5686429930247305,-0.053655266761779785,0.9911924004554749,1.147596984812907,1.5952116223390622,-0.014434601180255413,0.9799979329109192,1.2537508415995835,1.8584328710223081,0.04830152541399002,0.9811667203903198,1.1832307719332802,1.8374392450052612,0.12860745191574097,0.9876829385757446,1.3331291608424232,1.304296059902884,-0.2678341567516327,0.9899217486381531,1.062641646465397,1.3239612688528386,-0.3204783797264099,0.9957314729690552,0.0005005896091461182,1.1904951298093565,1.305737146204206,178.58436694152778,174.4282017483149,1.0,0.003978927858500743,0.005921132905218359,0.007951703851451284,0.0644127108601281,99.78505384251142,0.8625782983311279,67,2.2333333333333334
1.186813623549273,0.8371774590467271,-0.42130059003829956,0.9999971985816956,1.2714347879553416,0.9698985776331671,-0.1985017955303192,0.9999976754188538,1.0945905335092392,0.9646511357997599,-0.21730856597423553,0.9999966621398926,1.2474212419336863,1.3014696840231188,0.0007921397918835282,0.999986469745636,1.1340501326062096,1.3137157069168055,-0.0009599190088920295,0.9999886155128479,1.2451793632540402,1.5745562537457043,-0.04692196100950241,0.990787148475647,1.14796320087688,1.5975609615613349,-0.01051428820937872,0.9779489040374756,1.2541427020793932,1.858952726296694,0.06539689004421234,0.9821119904518127,1.1834091185956557,1.8371774590467271,0.14614127576351166,0.9861112236976624,1.3316995511058773,1.3048551814627203,-0.2816157639026642,0.9902431964874268,1.0671156039882372,1.3187984889602342,-0.340951144695282,0.9960108995437622,0.0021720826625823975,1.190735687269948,1.3075926954699622,177.72444962945906,174.39157680910836,1.0,0.0012660753824995283,0.014204507828473418,-0.02184521333809028,0.06669159908874675,100.30735274513543,0.8692352320208881,68,2.2666666666666666
1.1883018041762383,0.8376762242902347,-0.3975940942764282,0.9999972581863403,1.2725052681871234,0.9709878156130545,-0.17908093333244324,0.999997615814209,1.0958559713552973,0.9631068050691879,-0.20514070987701416,0.9999966025352478,1.2482121374737671,1.302790635316964,0.0024177185259759426,0.9999851584434509,1.1352208971698718,1.3154116635008195,-0.002596843522042036,0.9999870657920837,1.2437337731876057,1.578140014945651,-0.04278794303536415,0.9897822737693787,1.1487635474229774,1.5976465894544334,-0.01159954909235239,0.9740644097328186,1.253966061859838,1.8638242698037981,0.05795438215136528,0.9827563166618347,1.1838631345481052,1.8376762242902347,0.14098727703094482,0.9834483861923218,1.3311862197437194,1.3062589830776126,-0.2684307098388672,0.9906471967697144,1.0724979344009395,1.3131020251407666,-0.3457094728946686,0.9962466359138489,0.0032602548599243164,1.1917165173218194,1.3091011494088918,177.01693335055336,174.42774090536616,1.0,0.00207128406851928,0.00558010110996612,0.006164489986958789,-0.06615340659619154,100.56094336658573,0.8692749193461645,69,2.3
1.1890584189132898,0.8368556814831585,-0.37616464495658875,0.9999973177909851,1.2735148927600124,0.9724445421497238,-0.16123268008232117,0.9999975562095642,1.0965947541244805,0.9633591276711315,-0.18147942423820496,0.9999964237213135,1.248370077377251,1.3045072826728419,0.0024193809367716312,0.9999843239784241,1.1357985412540974,1.3161170036406342,-0.002599748084321618,0.9999858736991882,1.2422757265871744,1.5798185423763316,-0.046003080904483795,0.9889548420906067,1.1487009923848708,1.596873475881078,-0.01221522781997919,0.9707502126693726,1.2528552683166005,1.866932276483627,0.047665148973464966,0.9834679365158081,1.1836839402605528,1.8368556814831585,0.14002186059951782,0.9814075231552124,1.3300034625028658,1.3072597095401641,-0.246647447347641,0.990867555141449,1.0814189505295713,1.3108043270985472,-0.33860546350479126,0.9963468909263611,0.003759056329727173,1.192084309315674,1.310312143156738,176.62161996203793,174.33746971717608,1.0,0.0041352323796807495,0.01066978554360425,0.015673577840088704,0.0386514831992749,100.21855688638686,0.8732042909637003,70,2.3333333333333335
1.1905255476103214,0.8365147679258041,-0.38437241315841675,0.9999973177909851,1.2742311900165881,0.974364778364982,-0.16492852568626404,0.9999974370002747,1.0980282377061665,0.9635111301657816,-0.18875348567962646,0.9999961256980896,1.2488045358822164,1.306570675683082,0.003045470453798771,0.999983012676239,1.1385206528998193,1.3162875013692643,-0.003222345607355237,0.9999840259552002,1.2421828058133582,1.5836762225775327,-0.049935340881347656,0.9885810017585754,1.1491727194573385,1.5967461165285928,-0.016039157286286354,0.9678685069084167,1.2529274890165372,1.8765051375231154,0.03857441991567612,0.9841125011444092,1.183352798913202,1.836514767925804,0.13834300637245178,0.979300856590271,1.329033021003021,1.3086085299642576,-0.25102609395980835,0.990930438041687,1.0877858881759872,1.308300431978151,-0.34470027685165405,0.9962868690490723,0.004491358995437622,1.1936625943910177,1.3114290885261732,176.52972322487224,174.06199553290895,1.0,0.013278314270835267,0.009946272381700183,0.06879885560084271,-0.005431268983889697,99.41199862283467,0.8704111152411583,71,2.3666666666666667
1.1920538036021557,0.8369385747491779,-0.37670156359672546,0.9999971389770508,1.2782189569734717,0.9766427932573317,-0.16244292259216309,0.9999971389770508,1.1006722568602583,0.9638734069335066,-0.1790858805179596,0.9999960064888,1.2525925816529313,1.3088111647301266,0.002395832212641835,0.9999816417694092,1.1456867750581647,1.3175063063478438,-0.0025643715634942055,0.9999828934669495,1.2429724249694993,1.586475616955872,-0.04859735444188118,0.9883039593696594,1.1531175853360618,1.5968922663625547,-0.01732417568564415,0.9666282534599304,1.2543888686972091,1.8826165967442208,0.041079990565776825,0.9849539399147034,1.183752441762413,1.836938574749178,0.12961041927337646,0.9785781502723694,1.3268960737649085,1.3149396056655012,-0.2359045445919037,0.9904055595397949,1.0923806926878783,1.3048487286986283,-0.3255080580711365,0.996428370475769,0.005282461643218994,1.199139678355548,1.313158735538985,175.80798461073763,174.25072468017413,1.0,0.04302665817226652,0.011125830154709311,0.2507410164465252,0.009917367918258714,99.06145344988352,0.8707246087708135,72,2.4
1.1952775271533294,0.8360840001760274,-0.3878633379936218,0.9999971985816956,1.2812506639737273,0.9763688374325106,-0.17046883702278137,0.999997079372406,1.1027683319950023,0.9637189990441659,-0.18125398457050323,0.9999960064888,1.2552415481501322,1.3086076419621744,0.0021688893903046846,0.9999806880950928,1.1491208465674927,1.3170614184790794,-0.0023332873824983835,0.9999819993972778,1.24280900698052,1.586754996269503,-0.048785679042339325,0.9880977272987366,1.1568153432435366,1.5962475067899078,-0.014213787391781807,0.9647465348243713,1.254310418404102,1.8843140433855468,0.04067989066243172,0.9856945872306824,1.183455895831012,1.8360840001760272,0.14045102894306183,0.9774262309074402,1.326892443062475,1.3193065589836626,-0.2421441525220871,0.9904267191886902,1.0938638996287078,1.3018425464497114,-0.3421919643878937,0.9966354370117188,0.005234271287918091,1.2021811973588123,1.3128345302206268,175.22718991201776,175.2403818668948,1.0,0.023370989446048433,-4.9014853219750876e-05,-0.13782729186138842,-0.07838160611118483,99.03090867515829,0.8706750335201187,73,2.433333333333333
1.1958181346201555,0.8318092385699003,-0.3642583191394806,0.9999969601631165,1.2813622111100271,0.9734059511979597,-0.15097929537296295,0.9999968409538269,1.1031422219982499,0.9602928533620388,-0.184187650680542,0.9999957084655762,1.2558767538891464,1.306230434214065,0.002810594392940402,0.999979555606842,1.1496975329973316,1.3146672611361119,-0.0029757251031696796,0.9999805092811584,1.2417394614966613,1.5875579232092034,-0.05554155260324478,0.9879393577575684,1.1586093987085817,1.5962086901186396,-0.011050188913941383,0.9616686105728149,1.2531790684164408,1.8837549602122665,0.03150385245680809,0.9863711595535278,1.1812272980810172,1.8318092385699003,0.1537308245897293,0.975601077079773,1.3250610350799037,1.3169097490281223,-0.21203255653381348,0.9903983473777771,1.0941819034807159,1.2962017097514436,-0.3656856417655945,0.9967955350875854,0.005436211824417114,1.2027871434432391,1.3104488476750884,174.91143159499148,176.32937584001093,1.0,0.02166540771271024,0.0006803134255623728,-0.012528762058784079,0.005498880502983095,98.92186364425179,0.8742795682297457,74,2.466666666666667
1.1984517243956663,0.82763575045739,-0.321769654750824,0.999995231628418,1.2804132943138176,0.97043904415289,-0.10726821422576904,0.9999959468841553,1.102677644695259,0.9541437959730172,-0.16935543715953827,0.9999951124191284,1.256942478827647,1.3051828634526876,0.009631254710257053,0.9999778866767883,1.1503293365539402,1.3140943822197713,-0.009811628609895706,0.9999786615371704,1.24171938743817,1.5896324367921,-0.05197266489267349,0.9861571788787842,1.162164306324527,1.59552797212378,-0.011523257941007614,0.9520811438560486,1.2505287618773266,1.8810632593308199,0.04423494264483452,0.9859209060668945,1.1789156174517028,1.82763575045739,0.16078129410743713,0.9696205258369446,1.3246861177967986,1.3134614316933477,-0.16307386755943298,0.9882017970085144,1.0942737631534134,1.2924333289482046,-0.35910287499427795,0.9968130588531494,0.006770282983779907,1.2036359076907936,1.3096386228362296,175.20517292523664,178.2801062619021,1.0,0.028826367366034247,0.017076849986817067,0.05953829784970605,0.13543812707928482,98.78887255287134,0.8847424079307771,75,2.5
1.1970225318436962,0.821062260012461,-0.3528227210044861,0.9999943971633911,1.2820183300512935,0.9628566698414813,-0.13924473524093628,0.9999957084655762,1.1002961698925204,0.9469719216187723,-0.17622801661491394,0.9999947547912598,1.2562484327271448,1.3018688325936711,0.008585378527641296,0.9999769926071167,1.1479542746625484,1.3099125701216103,-0.00875845830887556,0.9999775290489197,1.2403448128951422,1.5883414343052116,-0.04711266979575157,0.9853443503379822,1.1585618346864182,1.5912902662240798,-0.00038736339774914086,0.9474905133247375,1.2463425534488295,1.8746264636577126,0.06371521204710007,0.9858484864234924,1.1755695151454673,1.821062260012461,0.1790953129529953,0.9668207168579102,1.3278548956242742,1.3084071303802314,-0.20751364529132843,0.9881250858306885,1.0909709500168272,1.2889690868743096,-0.3531380891799927,0.996910810470581,0.0066225528717041016,1.2021013536948466,1.3058907013576406,175.62228292876088,177.9256483852856,1.0,0.019917050683480913,0.005832928382604762,-0.06714110763653847,-0.08524179420372563,98.59490342475857,0.8945196434040903,76,2.533333333333333
1.2039155490497477,0.8177263631231336,-0.42247939109802246,0.9999942183494568,1.2853994335601766,0.9607644614794261,-0.20322100818157196,0.9999957084655762,1.1018551772595573,0.9457602457359955,-0.2290855348110199,0.999994695186615,1.2574317978335716,1.301602011092226,0.005756818689405918,0.9999767541885376,1.1482404336716006,1.309665705875975,-0.005917244590818882,0.999977171421051,1.2421710710589875,1.586724206900983,-0.04731506109237671,0.9846294522285461,1.1582224221516895,1.591811687597438,0.01095824595540762,0.943152129650116,1.2462873977038083,1.8714830418620427,0.07883374392986298,0.9858343601226807,1.1753925801629135,1.8177263631231337,0.20776169002056122,0.9637867212295532,1.3381493654657532,1.3109942171735744,-0.30253535509109497,0.9879373908042908,1.0908820941935093,1.2893799644515307,-0.3924822211265564,0.9970092177391052,0.00625649094581604,1.2028361157525862,1.3056338584841005,176.10807445730188,177.6799248707075,1.0,0.0074100869213414985,-0.0003097682495967749,-0.09907259608992132,-0.0486639419626367,98.91451172460393,0.9051560649735744,77,2.566666666666667
1.2005579085452198,0.8105588102357401,-0.4327639937400818,0.9999940991401672,1.2866690683257773,0.9556968678860999,-0.2168257236480713,0.999995768070221,1.0985686624510855,0.9429811797388288,-0.2341974675655365,0.9999945163726807,1.2577776505249818,1.2983431828421828,0.0032110922038555145,0.9999763369560242,1.1459074147592636,1.3064059769688583,-0.0033508618362247944,0.9999763369560242,1.2404688961641401,1.5812225869344332,-0.038247574120759964,0.9840534329414368,1.1537737030292956,1.5869318690904906,0.022600848227739334,0.9398672580718994,1.241181986645009,1.8635816315527296,0.10193222761154175,0.9860131740570068,1.1713231930898313,1.8105588102357402,0.23724763095378876,0.9608186483383179,1.3447711280119918,1.3102168658291629,-0.3436707556247711,0.9883517622947693,1.0863742596843058,1.2852728012675518,-0.42351216077804565,0.9971065521240234,0.0053206682205200195,1.2018425326421227,1.3023745799055204,176.35386680822464,177.11903910350304,1.0,0.02343569456916436,0.009356524906265061,0.11836947446384193,0.07127562335533945,98.94202853465661,0.9197728282885366,78,2.6
1.2069065667587648,0.8041822074315392,-0.4370405673980713,0.9999943971633911,1.2866542276621933,0.9510336545649771,-0.2194257527589798,0.9999960064888,1.0984771962278408,0.9392088108439102,-0.2365124523639679,0.9999944567680359,1.2589684102368428,1.2948838870380805,0.0021288637071847916,0.9999766945838928,1.1450305575753332,1.3031837226849696,-0.0022670673206448555,0.9999759197235107,1.24014355451194,1.5772004682490375,-0.04371461644768715,0.9841176867485046,1.1505076450583653,1.5844928340296387,0.02432929165661335,0.9380486011505127,1.237206237193097,1.858126593304999,0.09153813123703003,0.9863492846488953,1.1677056613996344,1.8041822074315392,0.24392375349998474,0.9582375884056091,1.3508378144694237,1.3059538386455753,-0.35854700207710266,0.9891756772994995,1.0826041476591135,1.2850511118357608,-0.413735955953598,0.9971354603767395,0.004961490631103516,1.201999483906088,1.299033804861525,176.78422082256623,176.63923199139575,1.0,0.02626409861410248,0.0017091756926142009,0.02204058175005383,-0.058075799077158576,98.7697266837756,0.9300025829045069,79,2.6333333333333333
1.2010822791450715,0.7946760033673733,-0.44441160559654236,0.9999947547912598,1.2849859733994466,0.9448036929472747,-0.22045573592185974,0.9999961853027344,1.0949652258298586,0.933965428253788,-0.23652052879333496,0.9999945163726807,1.2553731542064082,1.2879120413269824,0.0013143721735104918,0.9999769926071167,1.1407174144281984,1.2959157351221062,-0.0014611335936933756,0.9999756217002869,1.2361050809819363,1.5685496095832363,-0.08947299420833588,0.9839479923248291,1.1443822413804676,1.5760622575461203,0.016680529341101646,0.9336075782775879,1.2306418251643678,1.8502831638754185,0.04423213750123978,0.9861288070678711,1.1592362718246028,1.7946760033673732,0.22469563782215118,0.9529373049736023,1.3504013328185007,1.2993986984812553,-0.35311123728752136,0.9897456169128418,1.076587464624387,1.281792974370587,-0.41305261850357056,0.9971066117286682,0.004571646451950073,1.1980452843173033,1.2919138882245442,177.18325403438655,176.86241946215023,1.0,0.018311654503720513,-0.0020741847997516392,-0.06001921113876764,-0.028990884805128042,98.9259598971684,0.9371816162535902,80,2.6666666666666665
1.2089458653423217,0.795901049323983,-0.4293684959411621,0.9999947547912598,1.2953802600322464,0.9500018830558372,-0.20845547318458557,0.9999963045120239,1.1027004441880015,0.9391014768131873,-0.22863368690013885,0.999994158744812,1.2647879217245666,1.2965922374043106,0.002092528622597456,0.9999772310256958,1.1478155486407535,1.3049215973713961,-0.0022430557291954756,0.9999749064445496,1.2464850453390104,1.5799227876048028,-0.09010735899209976,0.9842984676361084,1.150357887197139,1.5937044824545383,0.015800902619957924,0.9333603382110596,1.2377266328758811,1.8627964302946023,0.07201986014842987,0.9862141013145447,1.164561315495702,1.7959010493239829,0.26339590549468994,0.9485383033752441,1.3632049468232137,1.3067318890887218,-0.3285132944583893,0.9903688430786133,1.08225600037519,1.2957270265411391,-0.40111908316612244,0.9970138669013977,0.004571676254272461,1.20630173518266,1.3007569173878533,178.07732562811609,176.4862194824601,1.0,0.010318957089653814,0.010681306961738371,-0.05988680068423299,0.0944230406203277,99.11726727399632,0.9550591997225321,81,2.7
1.2243388789572247,0.8013052066309098,-0.4309834837913513,0.999994695186615,1.3123964903157839,0.957513612028345,-0.20466606318950653,0.9999963641166687,1.1157127063381298,0.949136261162531,-0.22895753383636475,0.9999938607215881,1.279070617398624,1.3111775487858441,0.0022500038612633944,0.9999772906303406,1.159486680284978,1.319055288720619,-0.002400399651378393,0.9999741911888123,1.262194567222981,1.5973421675000576,-0.0969962403178215,0.9848688244819641,1.1598824629023805,1.6160862656754007,0.0009571685222908854,0.9350708723068237,1.250767133987423,1.881466265455681,0.08207879960536957,0.9863995313644409,1.172404258052277,1.8013052066309099,0.2834467887878418,0.9431174397468567,1.384045350713877,1.3231743862587033,-0.33501407504081726,0.9907405376434326,1.0908829477935298,1.3127860978052661,-0.39555615186691284,0.9970635175704956,0.003477036952972412,1.2192786488418008,1.3151164187532316,178.9281793358907,176.20872715193278,1.0,0.0024550388530798902,0.005390604194315977,-0.05967688326602963,-0.040443011115940584,99.15209014042104,0.9762660868595266,82,2.7333333333333334
1.2388442376599462,0.8071172734115734,-0.4020920693874359,0.9999943971633911,1.3282295027664754,0.9653193016891682,-0.1819104701280594,0.9999963641166687,1.128596119214855,0.9582408064112214,-0.20431724190711975,0.9999934434890747,1.2927094571894842,1.3258307671510792,0.0023967644665390253,0.9999768733978271,1.1709751830817163,1.333779632202087,-0.0025465877261012793,0.9999731183052063,1.276173156326254,1.6140487017117102,-0.08474889397621155,0.9853739738464355,1.1684179282546543,1.640722404012341,-0.023779790848493576,0.9383435249328613,1.2626335716436892,1.898575827741007,0.11026616394519806,0.9865784645080566,1.1802324296095332,1.8071172734115732,0.2849022150039673,0.9372258186340332,1.4013704264906115,1.3359114872791413,-0.3224409222602844,0.9912459254264832,1.096150418568275,1.3366977773606008,-0.3364952504634857,0.9971601366996765,0.002910435199737549,1.2318423201356004,1.3298051996765832,179.4407322139543,175.46131363618628,1.0,0.007768303552883358,0.016882480934911424,0.03954396696786722,0.08552257986323927,99.3629398347868,0.9992114449790155,83,2.7666666666666666
1.2427327670825183,0.8072588394698479,-0.37982895970344543,0.999994158744812,1.3351311509788373,0.9660811011157293,-0.16269823908805847,0.9999963641166687,1.133706494901353,0.9603564138978641,-0.17786073684692383,0.9999929666519165,1.2966572722522791,1.3327883948292294,0.0018751804018393159,0.9999773502349854,1.1739304673868252,1.3386162295645336,-0.0020275055430829525,0.9999729990959167,1.2809808834962593,1.627003468008398,-0.08088015764951706,0.9862332940101624,1.1661139920987549,1.6469145708289668,-0.027383074164390564,0.9427195191383362,1.265468077986206,1.902189712836585,0.12106341123580933,0.9872524738311768,1.1814775969040054,1.8072588394698479,0.29685333371162415,0.9358823299407959,1.4099414303698687,1.3389236382221408,-0.29717007279396057,0.9918660521507263,1.0954866350962624,1.3458269674244885,-0.30702418088912964,0.9972745180130005,0.0023487210273742676,1.2352938698195521,1.3357023121968816,179.82348954834023,173.07449163042347,1.0,0.005986498093647725,0.022913429470744706,-0.013628413364008947,0.045421788486480534,98.70811583161401,1.01798452774846,84,2.8
1.2458722055924825,0.8095350988411962,-0.39101332426071167,0.9999935030937195,1.3385131964843526,0.9625738441942804,-0.17075969278812408,0.9999963641166687,1.1376361766113285,0.9621377501301078,-0.19128991663455963,0.9999924302101135,1.2996397730593559,1.3359554280285433,0.001251822686754167,0.9999780058860779,1.1758815459952987,1.3408774040840468,-0.0014030591119080782,0.9999733567237854,1.2846735894507295,1.631020324763099,-0.0807434469461441,0.9871790409088135,1.1638351478572087,1.6481552631670864,-0.026653196662664413,0.9469669461250305,1.2677218789548994,1.9025814032550823,0.12806496024131775,0.987894594669342,1.1835399340787027,1.8095350988411962,0.293590247631073,0.9365847706794739,1.4140722235223302,1.341078241664076,-0.29078537225723267,0.9921829104423523,1.09488949858133,1.361470823829932,-0.30596309900283813,0.9972014427185059,0.000178605318069458,1.2377606595273274,1.338416416056295,179.33169818206258,170.79348415176514,1.0,0.0020839072494853055,0.0025924280697581905,-0.02835288672330612,-0.14752945336169732,98.22125676015983,1.0215477744562598,85,2.8333333333333335
1.2421609552188908,0.8067194590095617,-0.4020850658416748,0.9999933838844299,1.3354711842842997,0.9519965157866266,-0.176449254155159,0.9999964237213135,1.1350074640986143,0.9594341331024068,-0.19571612775325775,0.999992311000824,1.2960702043166403,1.332421989722064,0.0014341148780658841,0.9999785423278809,1.172466748195209,1.3367662286103659,-0.0015915920957922935,0.9999735951423645,1.2811623215087926,1.6282221573450562,-0.05294356495141983,0.9877761006355286,1.1607134047317509,1.641686120142967,-0.03552980720996857,0.9501237869262695,1.2639995379920297,1.8973155363529461,0.15439556539058685,0.9881043434143066,1.1791507730507733,1.8067194590095617,0.2773708701133728,0.9357050657272339,1.4101908162566443,1.3354560935717046,-0.30179914832115173,0.9924870729446411,1.08799147839068,1.3601785985835626,-0.31733912229537964,0.9971574544906616,0.003055185079574585,1.2342684762559246,1.334594109166215,179.235796424194,171.41799106690306,1.0,0.0012680784595334531,0.0010415247854467322,-0.0057854996015355925,-0.01102732997331459,97.92601038545423,1.020001013237286,86,2.8666666666666667
1.2386607223726187,0.8054896125568373,-0.4261983335018158,0.9999933242797852,1.3337667724465652,0.947692345786237,-0.19840370118618011,0.9999964833259583,1.1336962251628346,0.9575307379163341,-0.21409539878368378,0.9999924302101135,1.293915521220549,1.3288682829939416,0.0016224958235397935,0.9999793767929077,1.1703094979710778,1.3308620546476462,-0.0017905629938468337,0.9999746084213257,1.280047738153736,1.624598963235844,-0.06828390806913376,0.9884273409843445,1.1584082638786974,1.635460233059439,-0.03260304778814316,0.9526345133781433,1.2614117869712402,1.893249738470417,0.1293535679578781,0.9883072376251221,1.1770109107195308,1.8054896125568374,0.24901512265205383,0.9378429651260376,1.4052992854843098,1.3308064508772182,-0.3039133846759796,0.9924686551094055,1.0834346883397807,1.3574337064409077,-0.33048921823501587,0.9971063137054443,0.004049777984619141,1.2321125095958134,1.3298651688207939,178.7166444213594,171.518675439139,1.0,0.0031807404603987595,-0.015216180167589001,0.014901912724266136,-0.126475760314724,96.89259057239525,1.0091391933127543,87,2.9
1.2034372098265085,0.7822850313118997,-0.4353780746459961,0.9999934434890747,1.2971396966945026,0.9149147529192188,-0.20425352454185486,0.9999966621398926,1.1036854228804696,0.9309716265891854,-0.21356305480003357,0.9999925494194031,1.2584495458625373,1.2914484158423578,0.0017279572784900665,0.9999803304672241,1.1379458777141198,1.2911481189454468,-0.0019012624397873878,0.9999757409095764,1.2450202348439994,1.5785525224974537,-0.06842727959156036,0.9890013337135315,1.1275552953514307,1.582270403629017,-0.03180117905139923,0.9555816054344177,1.2266020251667946,1.840679473468178,0.13191798329353333,0.9885940551757812,1.1444616727607133,1.7822850313118996,0.21825727820396423,0.941745936870575,1.3641968525703436,1.2938075696639877,-0.26972290873527527,0.992723286151886,1.0519094088874508,1.3197648786518261,-0.3114778995513916,0.9968687295913696,0.006797999143600464,1.1981977117883285,1.2912982673939024,178.65880994778104,173.12441540738695,1.0,0.0018830445228465316,-0.012656252212905804,-0.009057807477432072,0.01601120604075398,95.7239703303269,0.9782828332568341,88,2.933333333333333
1.165110939979773,0.7569212843074117,-0.42902326583862305,0.9999935030937195,1.25802729657797,0.8813118961425788,-0.20443406701087952,0.9999968409538269,1.070184787048716,0.9023652581217243,-0.20700904726982117,0.9999927878379822,1.2200773038476782,1.2511896087996288,0.0013529981952160597,0.9999812841415405,1.102920239461669,1.2501588180539027,-0.0015342880506068468,0.9999769926071167,1.206970950982243,1.5295152547546655,-0.07966086268424988,0.9894323348999023,1.0930855623864812,1.5315251193156663,-0.03179598227143288,0.958247184753418,1.18908085027819,1.786121290939187,0.1242884173989296,0.9886028170585632,1.1113518048287647,1.7569212843074118,0.18964728713035583,0.9457554817199707,1.3209700758881138,1.2482253690101919,-0.28149035573005676,0.9930248260498047,1.018232605969048,1.2794738573304554,-0.30637142062187195,0.9966953992843628,0.009196192026138306,1.1614987716546736,1.2506742134267659,178.7079631228001,173.36497948014292,1.0,0.001195035828427391,-0.007169140056394409,-0.004963484442160189,0.04015770376492665,95.35403538791945,0.9477794783037368,89,2.966666666666667
1.1285256995314852,0.7313959148472367,-0.4403594434261322,0.9999937415122986,1.219876297278064,0.8530449493787087,-0.2210085093975067,0.999997079372406,1.0377570416107809,0.8751611759695029,-0.20704658329486847,0.999993085861206,1.1830726211167637,1.212058105358952,-0.0002572036755736917,0.999982476234436,1.0691740541741732,1.2109947540098889,7.630803156644106e-05,0.9999785423278809,1.1699801324328114,1.4818721015441676,-0.06987986713647842,0.9898388981819153,1.0613024896627805,1.4845506517144045,-0.021581826731562614,0.9611437320709229,1.152665984132401,1.7347223434734644,0.1367378681898117,0.9887951016426086,1.0778237209757595,1.7313959148472367,0.1746639609336853,0.9503106474876404,1.2801546548572367,1.2058760115660458,-0.3354477882385254,0.9934452772140503,0.9860694227294492,1.2392519371539379,-0.3068241477012634,0.9965429902076721,0.009965896606445312,1.1261233376454685,1.2115264296844206,178.86078349258668,174.5227026313242,1.0,0.0017035497655906696,-0.006238514984923791,0.004166044471921803,0.005432812211541753,95.31824643326641,0.9204218016860686,90,3.0
1.117309988416878,0.723583362157833,-0.4377516806125641,0.9999939799308777,1.2104867245149682,0.8446357715232474,-0.21683204174041748,0.9999972581863403,1.0296156983951201,0.8684860673425979,-0.2041073590517044,0.9999934434890747,1.173046780655216,1.2014209713511133,-0.0005844630068168044,0.9999836087226868,1.0598720480674648,1.2003577210017446,0.0004027242830488831,0.999980092048645,1.159559143808773,1.4703808269305356,-0.05322305113077164,0.9900435209274292,1.0543071276453744,1.4750359727134479,-0.008016519248485565,0.963695764541626,1.1427443423778887,1.7235833621578331,0.15048173069953918,0.9887468814849854,1.0677440866943049,1.7362815267692846,0.16846390068531036,0.9544722437858582,1.264163624906151,1.1945430829461148,-0.33401066064834595,0.9938253164291382,0.9770874728942621,1.228044319536822,-0.30445346236228943,0.9965606927871704,0.010841906070709229,1.1164594143613404,1.200889346176429,179.07148100181215,175.89499036056128,1.0,0.0012890570175321694,-0.0005104458711994856,-0.0031556510728740286,0.04480179680954858,95.45225402094876,0.9020012646055415,91,3.033333333333333
1.1118360147060158,0.7169540208324131,-0.4375132620334625,0.9999943971633911,1.2046899060201064,0.840954749230253,-0.21779847145080566,0.9999974370002747,1.0246724216011587,0.8643486251425527,-0.201234370470047,0.9999938607215881,1.1675433125620767,1.1956165117168378,-0.0010745550971478224,0.9999845623970032,1.0550996689521857,1.1945151720950813,0.000898415339179337,0.9999814629554749,1.153824848766431,1.4640574747913604,-0.031962182372808456,0.9900134205818176,1.0530341351994863,1.4704974407881521,-0.006790567189455032,0.9661551713943481,1.1374820909976642,1.716954020832413,0.16355040669441223,0.9882739782333374,1.061550269922813,1.7445900768908609,0.12655025720596313,0.9583953022956848,1.250248176575015,1.1862709142795662,-0.36017879843711853,0.994269073009491,0.9720853467742004,1.2222526192537784,-0.3025001883506775,0.9965640306472778,0.010685712099075317,1.1113214907571312,1.1950658419059597,179.228066448875,177.79156592268617,1.0,0.0016241964660257148,-0.00044064738442176933,0.0025138697512824227,0.0004960227630637801,95.41807866283908,0.8922691007498217,92,3.066666666666667
1.1091566718969132,0.7129086761991413,-0.4526747167110443,0.9999947547912598,1.2027305245351847,0.839864437114086,-0.2321484386920929,0.999997615814209,1.02205217375909,0.8607834486586846,-0.2153329849243164,0.9999942183494568,1.164665933572962,1.1927372952591524,-0.000997493276372552,0.9999852180480957,1.0529394848808211,1.191590529109752,0.000824231537990272,0.9999825358390808,1.1513172839880645,1.4601552462826435,-0.018964147195219994,0.9890081286430359,1.0529367510757197,1.4682945651564043,-0.007358361966907978,0.9677615165710449,1.1347987222976044,1.7129086761991412,0.1804901659488678,0.9862602353096008,1.0587289680888137,1.750805073057036,0.10952533781528473,0.9616857171058655,1.2426019003069804,1.1822640879160478,-0.41809797286987305,0.994627058506012,0.9696084188699725,1.2188956442804046,-0.3497461676597595,0.9965617656707764,0.009577959775924683,1.1088027092268917,1.1921639121844523,179.11843372225474,178.82488257162996,1.0,0.0009006041548701334,-0.0005429065724556115,-0.005626258843442715,-0.0008075284227089958,95.56865493949104,0.8877904068618442,93,3.1
1.1070927051193618,0.710333779405605,-0.45648103952407837,0.9999951720237732,1.2013024409001907,0.8394410221303673,-0.23330292105674744,0.9999977946281433,1.0205166161704535,0.8591091303202698,-0.2141541689634323,0.9999945759773254,1.162892732315297,1.1904293967780357,-0.001218722085468471,0.9999858736991882,1.0514530975416279,1.1899018580335778,0.0010552160674706101,0.9999836087226868,1.149683593753047,1.457820300387685,-0.01246758084744215,0.9883217215538025,1.0541515011194273,1.4681620357743548,-0.018031805753707886,0.9697706699371338,1.1332182229406293,1.710333779405605,0.17564332485198975,0.9849578142166138,1.0569201695299966,1.7576137568792587,0.07010610401630402,0.964903712272644,1.2330717652891987,1.1809635993066336,-0.39211177825927734,0.9949586391448975,0.9685485248545108,1.2146592591109633,-0.34075725078582764,0.9965447783470154,0.009017795324325562,1.1071729149284624,1.1901656274058068,179.09737656457997,179.99242646651552,1.0,-0.0006686621556537303,-0.002680350392934449,-0.012504136840939328,-0.017051131023157376,95.97397012189666,0.8821330313898722,94,3.1333333333333333
1.1058410055967485,0.7086887246945163,-0.4723002016544342,0.9999954700469971,1.2003825526886467,0.8396380942487242,-0.24724015593528748,0.9999979138374329,1.01918912075212,0.8580969107506915,-0.22395189106464386,0.9999948740005493,1.1601711488267605,1.1890816657793244,-0.0012271873420104384,0.9999862909317017,1.049840083626589,1.1887476788427327,0.0010684006847441196,0.9999844431877136,1.1483847342518407,1.4559830669142568,0.0015003260923549533,0.9875255823135376,1.0552311418145932,1.4691930813281564,-0.018414555117487907,0.971464991569519,1.1315417678453168,1.7086887246945162,0.18785656988620758,0.9840945601463318,1.056076043059902,1.7582224155618174,0.07873250544071198,0.967757523059845,1.2224206261605786,1.1797522367515485,-0.4158112406730652,0.9952031970024109,0.9676439117505746,1.2122999909101533,-0.33858466148376465,0.9966042041778564,0.00847277045249939,1.1050056162266748,1.1889146723110287,178.7153948246746,179.06621604939332,1.0,-0.0074836684783798745,0.0005937232555705177,-0.05457618054010573,0.026192795415955126,96.39086407300144,0.8817028646646714,95,3.1666666666666665
1.104314943111366,0.7073462127950669,-0.4437029957771301,0.9999956488609314,1.1996897662115813,0.8422198330903277,-0.221684530377388,0.9999980330467224,1.018427367812336,0.857731457608792,-0.1942615509033203,0.9999951124191284,1.1577530376788023,1.1912111676375534,-8.61152966535883e-06,0.9999868869781494,1.0487512927759985,1.1922040455654255,-0.00013763144670519978,0.9999853372573853,1.1491459322217055,1.456960416310379,0.026056891307234764,0.9872468709945679,1.057776110505535,1.4716116288344783,-0.01831260696053505,0.9736097455024719,1.1311088878410747,1.707346212795067,0.25842607021331787,0.983146071434021,1.0560559355414667,1.7602062859985586,0.09469538927078247,0.9705618023872375,1.2166772079088848,1.1794686240385106,-0.3844132125377655,0.9955300688743591,0.9670798465835504,1.212150390696621,-0.3059825897216797,0.9967162013053894,0.007122725248336792,1.1032521652274003,1.1917076066014896,177.73475196067542,177.80849043759667,1.0,-0.010196500577418983,0.024964318861223425,-0.020854525643767555,0.18714851218091932,97.37400559518827,0.8933989694703784,96,3.2
1.0999429756253032,0.7042957347180215,-0.4458240568637848,0.9999959468841553,1.197558390050481,0.8414481353236812,-0.2213294953107834,0.999998152256012,1.0161267989874918,0.8562140208171041,-0.19873204827308655,0.9999954104423523,1.1539936079051683,1.1898101764114246,0.0023927881848067045,0.9999874234199524,1.0453874757989812,1.1917596700892739,-0.002518540946766734,0.9999862909317017,1.1471245065441318,1.4569203559134782,0.04069923236966133,0.9870676398277283,1.0564783635553017,1.4738124257673977,-0.02488318458199501,0.9757438898086548,1.12928723548799,1.7042957347180216,0.27985823154449463,0.9822415113449097,1.0546183490973775,1.7636014731609964,0.07933112233877182,0.9731618165969849,1.2104803297655897,1.1776636800736258,-0.38565099239349365,0.9957863688468933,0.9647904777004631,1.2104967872035775,-0.31112509965896606,0.996848464012146,0.006791740655899048,1.0996905418520748,1.1907849232503491,177.34887741728525,177.38042500485787,1.0,-0.013117248499019818,0.008371128662925694,-0.022643630028838874,-0.12756480174632334,98.15653454432643,0.8955642063266859,97,3.2333333333333334
1.096351124029039,0.7027686650879127,-0.4808725416660309,0.9999961853027344,1.1959698740351055,0.8404451141404177,-0.2473996877670288,0.9999982118606567,1.014118512675276,0.8549897544928644,-0.21936702728271484,0.9999957084655762,1.1509890400737974,1.1885242554656457,0.002369240391999483,0.9999879002571106,1.0420647875848978,1.1905538786192946,-0.002483941614627838,0.9999871850013733,1.1455936230332848,1.4586048185107017,0.03694773465394974,0.9870086908340454,1.0547905713508248,1.4760230542515214,-0.024874728173017502,0.9777325391769409,1.1280499756845142,1.7027686650879128,0.2821098864078522,0.98150235414505,1.0533898181693464,1.7677780822830866,0.08330543339252472,0.97554612159729,1.2048795339968672,1.1789198488460093,-0.40542906522750854,0.9959538578987122,0.9617528893041953,1.2111415724273067,-0.3136606216430664,0.9969597458839417,0.0066983699798583984,1.0965269138293476,1.1895390670424701,177.03469884691162,177.17244852020278,1.0,-0.013810450664947202,0.001904889746889269,-0.00548851247585864,-0.049930250857769656,98.43077971472638,0.8919009419013995,98,3.2666666666666666
1.0916252280780263,0.7001259047547196,-0.4773266911506653,0.9999963641166687,1.1928528575702786,0.839017671622417,-0.24449022114276886,0.9999982714653015,1.0095305093600484,0.8529873376970669,-0.21760401129722595,0.9999959468841553,1.14596489859151,1.1889041558128828,0.001992932055145502,0.9999882578849792,1.0367894184197648,1.1912606391197158,-0.0020916503854095936,0.9999879598617554,1.1417981307290797,1.4593071595442935,0.03869663178920746,0.9866710901260376,1.0517939941907604,1.4793772507444993,-0.022418413311243057,0.9794531464576721,1.1259861419506996,1.7001259047547195,0.3003939092159271,0.980134129524231,1.0514823327699099,1.7639955032908863,0.10101517289876938,0.9776015877723694,1.1969220899414168,1.178064539299181,-0.420419305562973,0.9960272908210754,0.9577168788849484,1.2101318834865566,-0.31384387612342834,0.9970603585243225,0.006445407867431641,1.0913771585056373,1.1900823974662993,177.12621971582908,176.95609607569068,1.0,-0.024047438267321645,0.02091527342472609,-0.07868895104891513,0.14579338086604468,98.86918099893883,0.904000704289906,99,3.3
1.0840220704497314,0.6944351429785334,-0.46868497133255005,0.999996542930603,1.1859429474656635,0.8352569364931913,-0.23987731337547302,0.9999983310699463,1.002393155732772,0.8479893788403909,-0.21076329052448273,0.9999961256980896,1.1383345729572696,1.1851758980072402,0.0019147169077768922,0.9999885559082031,1.029155466330065,1.1871826999935189,-0.002017092425376177,0.9999886155128479,1.1344829945199364,1.4582914124408863,0.03568101301789284,0.98649662733078,1.0457978034481092,1.4760302509389767,-0.0222022645175457,0.9809632897377014,1.1208127972397022,1.6944351429785334,0.29518041014671326,0.978996753692627,1.0473723444529144,1.7557101141997122,0.10530823469161987,0.9793969392776489,1.1884455990264065,1.1768535721229665,-0.40084972977638245,0.9961020946502686,0.9520006424441063,1.2052701505757308,-0.3046535551548004,0.997114360332489,0.005901724100112915,1.0837450196436673,1.1861792990003797,177.4948378066437,177.02503307735185,1.0,-0.019684603548702984,0.011856477705442226,0.03206139889318921,-0.06757746042656082,98.80085379345533,0.9125037111329772,100,3.3333333333333335
1.0750943996392783,0.6871070520250739,-0.4637201428413391,0.9999964237213135,1.1776011929202221,0.8311807148999744,-0.23921144008636475,0.9999983906745911,0.9945538595828797,0.8403211436638972,-0.19383153319358826,0.9999961853027344,1.1306454413396656,1.1802143525325435,-0.0005435428465716541,0.999988853931427,1.0209371368967823,1.1817797148542954,0.0004354705451987684,0.9999890923500061,1.1278963969156963,1.4548841313281922,0.02497725561261177,0.9868309497833252,1.0368680316649996,1.4724484587757853,-0.020760424435138702,0.9823964834213257,1.1152689617210438,1.687107052025074,0.2781931161880493,0.9789708256721497,1.0427872098868867,1.7502238836621289,0.10887924581766129,0.9811060428619385,1.1797587161725829,1.1736991748260464,-0.3855171501636505,0.9962733387947083,0.942246268061836,1.199960642026306,-0.2776034474372864,0.9971123933792114,0.004257947206497192,1.075791289118224,1.1809970336934195,177.46095792260232,178.08363064833836,1.0,-0.02030421343215456,0.0057116379345972905,-0.005689399720959505,-0.04825323074401364,98.47950424237077,0.9185578338267147,101,3.3666666666666667
1.0692384855356887,0.683121411173239,-0.4947938024997711,0.9999964237213135,1.1700778563286076,0.8284748382136122,-0.26247912645339966,0.9999984502792358,0.9852333743354285,0.8344968746805022,-0.2204129695892334,0.9999963045120239,1.1258291628156736,1.1770869298450621,-0.0013810815289616585,0.999988853931427,1.0147842399297777,1.178034526257317,0.0012839274713769555,0.9999894499778748,1.1233953308667406,1.450818482571897,0.03546828776597977,0.9866988658905029,1.0321278453579839,1.468890591033905,-0.018693313002586365,0.9835682511329651,1.1130889434874383,1.6831214111732389,0.31053629517555237,0.9778172969818115,1.0408259099203925,1.7442521014903327,0.1267830729484558,0.9824682474136353,1.1740365986139105,1.1711404560231151,-0.4137519299983978,0.9963468313217163,0.9344791455396532,1.1972514343181282,-0.2842710018157959,0.997141420841217,0.0028121471405029297,1.0703067013727257,1.1775607280511895,177.96909361900964,178.39676740135346,1.0,-0.021857223458166535,-0.0042398399048937385,-0.012248595077487491,-0.07595445549425173,97.72268543121115,0.9221720832443929,102,3.4
1.0667099394357673,0.6806652033940256,-0.4882424771785736,0.999996542930603,1.1637314587525542,0.8237535360278646,-0.25226324796676636,0.9999985098838806,0.9777018116337381,0.8301278725632681,-0.22667141258716583,0.9999964237213135,1.121999426416852,1.176092641139942,-0.0001809152599889785,0.9999889731407166,1.0103872502555264,1.1767641811163085,8.710424299351871e-05,0.9999898076057434,1.1208525152169493,1.4496066006576245,0.049601126462221146,0.9867769479751587,1.0299662437963066,1.4677626692266392,-0.01918668858706951,0.9846999049186707,1.1127007979463759,1.6806652033940255,0.32047325372695923,0.9775964617729187,1.0401607053197763,1.7444390527090006,0.12535768747329712,0.9838089346885681,1.1728584076773154,1.1710344719390358,-0.3962904214859009,0.996484637260437,0.9274771901211304,1.196056446857113,-0.3093861937522888,0.9972001314163208,0.002978801727294922,1.0661933383361892,1.1764284111281254,178.21970428875846,178.26099477380785,1.0,-0.025731287186097303,-0.00220623275166839,-0.029923163881390016,0.01562073155408333,97.09953207658202,0.9245461880721867,103,3.433333333333333
1.0602280611071946,0.6767438535213508,-0.480088472366333,0.999996542930603,1.1592757526126134,0.8204107031894758,-0.24727658927440643,0.9999985694885254,0.9703122825583298,0.8275254583574829,-0.22250159084796906,0.999996542930603,1.118473818812244,1.1750166816789034,-0.0002321927750017494,0.9999890923500061,1.0060810390608712,1.1757141517219725,0.00013614936324302107,0.9999901056289673,1.1186524873670372,1.449085324047666,0.042400434613227844,0.9867686033248901,1.024426489231715,1.4711617228236462,-0.01896434649825096,0.9856313467025757,1.1118044606478048,1.6767438535213508,0.31387653946876526,0.9770734310150146,1.0392085084973337,1.7437802443043982,0.13119128346443176,0.9849368333816528,1.1720276153788511,1.1701843472072906,-0.37998002767562866,0.9964379668235779,0.921608725550317,1.1949906026966972,-0.31058794260025024,0.9972198009490967,0.003327667713165283,1.0622774289365575,1.175365416700438,178.23969606248392,179.55052458277262,1.0,-0.022369469817336125,-0.00038774507967852576,0.02490543036499194,0.01354700658786987,96.91929680344043,0.9319022129572567,104,3.466666666666667
1.0565271262386293,0.6724831145796539,-0.4785878658294678,0.9999966025352478,1.1535962448445902,0.8167940082082006,-0.2284763604402542,0.9999985694885254,0.9649249254521326,0.8239318643400875,-0.2229645550251007,0.9999966025352478,1.1139579420202408,1.173730577624082,0.0046179876662790775,0.9999891519546509,1.0011432401038936,1.1746259344205214,-0.004730438347905874,0.9999903440475464,1.1167387894503866,1.4488505166970749,0.043826401233673096,0.9864717721939087,1.01948068924154,1.4718585656849736,-0.02112191542983055,0.9862570762634277,1.1098821476121243,1.672483114579654,0.327949196100235,0.9754593372344971,1.037198334697423,1.7404840511549218,0.14283016324043274,0.9856670498847961,1.1715515962075698,1.1687464502340708,-0.34084147214889526,0.9964072704315186,0.9159692126006139,1.1937986300837466,-0.31844377517700195,0.9972066879272461,0.0033442676067352295,1.057550591062067,1.1741782560223017,177.66473204807292,179.75675362403655,1.0,-0.02173326602801246,0.006398096477660259,0.004499033177703356,0.051095857521361664,96.79153167510151,0.9420683211929948,105,3.5
1.0522737380186171,0.6697169334929898,-0.4591820240020752,0.9999966621398926,1.1500580790360417,0.816223669174083,-0.20321008563041687,0.9999985694885254,0.9611184399255338,0.8228706334116576,-0.2203902304172516,0.9999966621398926,1.1099250139207932,1.174507198839004,0.008491496555507183,0.9999895095825195,0.9968008549356123,1.1749854818297585,-0.008630703203380108,0.999990701675415,1.1158307856894374,1.4529406015231592,0.033418383449316025,0.9866624474525452,1.0140141491945514,1.4737702515605842,-0.021034259349107742,0.9868271946907043,1.1091618964409924,1.6697169334929898,0.3095856308937073,0.9747193455696106,1.0358887007645283,1.7377773783965813,0.1663912981748581,0.9862760305404663,1.1715618754946633,1.168158732503047,-0.27236655354499817,0.9962660670280457,0.9102222280971366,1.196369675765313,-0.3113601505756378,0.9970391988754272,0.003117114305496216,1.0533629344282027,1.1747463403343812,177.02281080758337,178.56074834719027,1.0,-0.02534851273516518,0.012886151982891727,-0.028585595786411972,0.05106698943859628,96.63357601920647,0.9540581405919895,106,3.533333333333333
1.0537263694168582,0.6718971361579649,-0.45755958557128906,0.9999967813491821,1.1531985153561668,0.8197298037127336,-0.20265674591064453,0.9999986290931702,0.9619986334859304,0.8265829394716528,-0.2195303738117218,0.9999967813491821,1.114542568420547,1.1825963230833707,0.009209142997860909,0.9999900460243225,0.999526484608706,1.183151333705214,-0.009353353641927242,0.999991238117218,1.121310760091198,1.4672792178603824,0.009905682876706123,0.987143874168396,1.0132745894933233,1.4846540521076417,-0.021692564710974693,0.9875109791755676,1.1175594247765173,1.6718971361579649,0.3244764804840088,0.9725659489631653,1.0409754953549635,1.7454021297846034,0.18089810013771057,0.9868559837341309,1.1780490680483897,1.1758923823546732,-0.27556607127189636,0.9962788820266724,0.9111701348337312,1.2027002256702568,-0.31618183851242065,0.9969791769981384,0.0031978487968444824,1.0570345265146266,1.1828738283942923,177.58777154504745,176.54665428544922,1.0,-0.011190980106274945,0.01604028436931046,0.10101927104681975,0.021852142568238767,96.35722972752716,0.971001480757468,107,3.566666666666667
1.0565728278708832,0.6736347849119211,-0.4589775502681732,0.9999968409538269,1.1554504533350565,0.8223933370474238,-0.20555803179740906,0.9999986290931702,0.9640544764885705,0.8298570305956051,-0.21680684387683868,0.9999968409538269,1.1176390384877588,1.18850765295575,0.008345047011971474,0.9999904036521912,1.0021067879842187,1.1887672674916254,-0.008484266698360443,0.9999916553497314,1.125481705155964,1.4746804353396024,0.0031005307100713253,0.9876227974891663,1.0156983461143814,1.4908771772605103,-0.016719138249754906,0.9881322383880615,1.1217369738086114,1.673634784911921,0.3199267089366913,0.971772313117981,1.0447944048388047,1.752007349206743,0.18634581565856934,0.9875407814979553,1.1827692101775822,1.1810098569549548,-0.2733015716075897,0.9962160587310791,0.912127594967478,1.2074202834336887,-0.3139900267124176,0.9969721436500549,0.003470003604888916,1.0598729132359888,1.1886374602236878,177.35188429384448,176.21805464082215,1.0,-0.0077312774396693686,0.010496870164153313,0.025909070590855485,-0.04146219352016197,96.0252166898021,0.9815245149446924,108,3.6
