nose_x,nose_y,nose_z,nose_visibility,left_shoulder_x,left_shoulder_y,left_shoulder_z,left_shoulder_visibility,right_shoulder_x,right_shoulder_y,right_shoulder_z,right_shoulder_visibility,left_hip_x,left_hip_y,left_hip_z,left_hip_visibility,right_hip_x,right_hip_y,right_hip_z,right_hip_visibility,left_knee_x,left_knee_y,left_knee_z,left_knee_visibility,right_knee_x,right_knee_y,right_knee_z,right_knee_visibility,left_ankle_x,left_ankle_y,left_ankle_z,left_ankle_visibility,right_ankle_x,right_ankle_y,right_ankle_z,right_ankle_visibility,left_wrist_x,left_wrist_y,left_wrist_z,left_wrist_visibility,right_wrist_x,right_wrist_y,right_wrist_z,right_wrist_visibility,trunk_lateral_inclination,center_mass_x,center_mass_y,left_knee_angle,right_knee_angle,person_height,center_mass_velocity_x,center_mass_velocity_y,center_mass_acceleration_x,center_mass_acceleration_y,body_orientation,torso_leg_ratio,frame,timestamp
1.039166753968798,1.061456245536993,-0.13081084191799164,0.9998157620429993,0.9725726163320659,1.219976365911902,0.09533131122589111,0.9999855160713196,0.9298652759257511,1.2508093230916077,-0.30345964431762695,0.999995231628418,1.0624478971539217,1.6427549362349545,0.12815849483013153,0.9999896287918091,1.0266016420273467,1.689478749511575,-0.12828077375888824,0.9999933242797852,1.3179818104033387,1.7046969121487634,0.17746251821517944,0.29785430431365967,1.3388505406193465,1.727109345236889,-0.16250431537628174,0.9569423198699951,1.269829978560321,2.0614562455369927,0.2813417315483093,0.4279627501964569,1.2873776351052577,2.1003779068555954,-0.022671597078442574,0.9266688227653503,1.1915753658821546,1.586735134530788,0.07220123708248138,0.3401380479335785,1.1845138090415692,1.6047757068131445,-0.4030715823173523,0.9931458234786987,0.01278841495513916,1.0445247695906341,1.6661168428732647,95.93903703328368,89.02040211676432,1.0,-0.0027688341783515106,0.016040659000486394,-0.12330845483819236,0.17337338196482524,130.50336005384992,1.269565156382689,0,0.0
1.0406784089754284,1.0652367291881697,-0.15714088082313538,0.999824047088623,0.974996584360744,1.2250349900462114,0.06633306294679642,0.9999861717224121,0.9322892460551617,1.2580082066089757,-0.31894147396087646,0.9999954104423523,1.0661013522618445,1.6447290078268375,0.1269962191581726,0.99998939037323,1.0320177018340309,1.6938534266189968,-0.12710589170455933,0.9999931454658508,1.3290091376362538,1.708705353525685,0.1725533902645111,0.28884968161582947,1.3440104379919051,1.7318500276168027,-0.1595870852470398,0.9538702368736267,1.2716491570591235,2.06523672918817,0.2664636969566345,0.41402485966682434,1.288615791395153,2.1052529686892654,-0.02222082018852234,0.9220410585403442,1.1885058355395446,1.589098273397057,0.024491487070918083,0.322111040353775,1.1851293762045214,1.6074871964843511,-0.41387510299682617,0.9930198788642883,0.013644158840179443,1.0490595270479377,1.669291217222917,94.53699432548085,88.50534186612697,1.0,0.016264286054051214,-0.005672655361854476,0.14830050684462376,-0.16941882430648034,132.99877124145317,1.2695969274572347,1,0.03333333333333333
1.041776694144231,1.0684974382927002,-0.16496071219444275,0.9998326897621155,0.9726050786906709,1.226370671201577,0.0644243136048317,0.9999866485595703,0.9338751661367722,1.2617859635391777,-0.3301544785499573,0.9999954700469971,1.0676981062662192,1.6469644534934258,0.125725656747818,0.9999892711639404,1.036098774961092,1.6965876724260747,-0.12584146857261658,0.999993085861206,1.3282866948114833,1.7123638219482682,0.18492208421230316,0.2841486632823944,1.3490609597971552,1.734711792149147,-0.15217635035514832,0.9527143836021423,1.2685281679599938,2.0684974382927,0.28446826338768005,0.40713998675346375,1.2906832481835413,2.106783429784333,-0.010817074216902256,0.9198115468025208,1.1850833434022285,1.5902461439136684,0.02391262724995613,0.30327290296554565,1.1853728226389644,1.6089225680912802,-0.4096701145172119,0.9927083253860474,0.01463162899017334,1.0518984406136556,1.6717760629597502,94.5630433172973,88.02841988833721,1.0,0.00952203543555639,-0.0011620287680385304,-0.0543217009487802,0.03627585543130866,134.7716796150203,1.2725788420799078,2,0.06666666666666667
1.0422666546042736,1.069631873425159,-0.1833047866821289,0.999843180179596,0.9769456186545633,1.2266653882262715,0.06177359074354172,0.9999872446060181,0.9353457409920674,1.2639400603990885,-0.33314749598503113,0.9999956488609314,1.0712791409862479,1.6476009856602163,0.12605193257331848,0.99998939037323,1.0382553071942813,1.6981905471606962,-0.1261603981256485,0.9999931454658508,1.3305790547998229,1.7121187124324262,0.18443432450294495,0.2849569618701935,1.3517472552219247,1.7346952670533708,-0.15668639540672302,0.9535826444625854,1.2696505879441964,2.069631873425159,0.2756369411945343,0.40953540802001953,1.2916446242796769,2.106401426866555,-0.01582637056708336,0.9204092621803284,1.1843470376512009,1.5906001129658043,0.00942592415958643,0.28648996353149414,1.1878448188038173,1.6104841450406995,-0.41907748579978943,0.9923703670501709,0.015385806560516357,1.0547672240902646,1.6728957664104562,94.30072866652279,87.45703730212556,1.0,0.015290042340724046,-0.003225859476174298,0.04608996339468442,-0.016507656372248516,134.23278418329528,1.2767562038195819,3,0.1
1.0427553440747745,1.0705498440088375,-0.18858745694160461,0.9998515248298645,0.9784295384215176,1.227427997478128,0.04930088669061661,0.9999877214431763,0.9370719185196827,1.2650424798168933,-0.3362275958061218,0.9999958276748657,1.0721403577228723,1.6483934987724842,0.12553070485591888,0.9999894499778748,1.0392620814116704,1.699912240293231,-0.1256336122751236,0.9999932050704956,1.3303518878814649,1.712767574070963,0.18302346765995026,0.27948427200317383,1.3520272709043513,1.73505196393506,-0.15398801863193512,0.9529065489768982,1.2707689361709815,2.0705498440088372,0.2748216986656189,0.40526917576789856,1.2929001349454528,2.105134322210721,-0.01598217524588108,0.9202067255973816,1.1827032085223383,1.592080165186241,0.010047202929854393,0.27162182331085205,1.1905625617596742,1.611877078602565,-0.4195379316806793,0.992212176322937,0.015513420104980469,1.0557012195672713,1.6741528695328576,94.54396255602067,87.33311185318186,1.0,0.0005786109220849333,-0.0008366821345243783,-0.11519243396941663,0.01871230924091232,134.904820954078,1.2805710788309326,4,0.13333333333333333
1.044431803748859,1.0727111143919024,-0.17663177847862244,0.9998530149459839,0.9800074613876806,1.2287704161406243,0.05156562849879265,0.9999879002571106,0.9391090697835148,1.2675913431981418,-0.3294285833835602,0.9999958872795105,1.0750871068161694,1.6500467331822963,0.12530434131622314,0.9999893307685852,1.043082602482811,1.7024977556131382,-0.12540575861930847,0.9999931454658508,1.3325090345391326,1.7150505452928304,0.18287000060081482,0.26851704716682434,1.3547545359049429,1.7372824410244607,-0.1532430201768875,0.9501139521598816,1.2727936166417169,2.072711114391902,0.27837705612182617,0.39301082491874695,1.2948823637328795,2.107168396138171,-0.015970654785633087,0.9167696237564087,1.1832216477219066,1.5946230244239226,0.015157843008637428,0.25521421432495117,1.190971069572917,1.6144170510439249,-0.4080749452114105,0.9916723370552063,0.01598656177520752,1.0590848546494902,1.6762722443977174,94.69323899060909,87.1737170619555,1.0,0.013840358802360345,-0.003436605569005413,0.103690095022467,-0.020319469037230954,135.8911022035056,1.2824133038713594,5,0.16666666666666666
1.0483989904842936,1.07859414729382,-0.18269838392734528,0.9998605251312256,0.9854835797482169,1.2332689701072475,0.039655156433582306,0.9999883770942688,0.9433422933241106,1.273138228595655,-0.332682341337204,0.9999960660934448,1.0811425677548594,1.6528169840445803,0.12368172407150269,0.9999895095825195,1.047233549867453,1.7088775840503203,-0.1237742155790329,0.9999932646751404,1.3407342203227703,1.7196170757394718,0.17295685410499573,0.2613823711872101,1.359545478159432,1.74424347536717,-0.15469931066036224,0.9482181668281555,1.280099193237538,2.07859414729382,0.27256524562835693,0.38179701566696167,1.2998121417260073,2.1155881678714032,-0.019810767844319344,0.9141849875450134,1.1894899635145881,1.600826707190674,-0.002339788246899843,0.24140143394470215,1.1962681196407623,1.6209032382755693,-0.41415199637413025,0.9912073612213135,0.016353189945220947,1.064188058811156,1.6808472840474502,94.84333132885047,87.32245703323936,1.0,0.006617348914896134,-0.015606868208213677,-0.054200940897261504,-0.09053180888633953,135.9876342899479,1.2722697372231477,6,0.2
1.0468006325709631,1.075235351666846,-0.18564137816429138,0.9998653531074524,0.9865125662944946,1.2295347472628597,0.0372612439095974,0.9999887943267822,0.9419069703438656,1.2707341193344064,-0.33435747027397156,0.9999961256980896,1.0841767528212496,1.648051339193583,0.12329218536615372,0.9999897480010986,1.045674098575134,1.7058978806000182,-0.1233813613653183,0.9999934434890747,1.3392030131048618,1.7166206272364293,0.17184695601463318,0.2565833330154419,1.3568314929288412,1.7413721677335856,-0.15650241076946259,0.947407603263855,1.2785404994049245,2.075235351666846,0.27093857526779175,0.37682774662971497,1.2976380433939734,2.11256272556522,-0.020497886463999748,0.9130113124847412,1.1889163417574815,1.5981906398734858,-0.0029426985420286655,0.22747302055358887,1.1950303094225465,1.6183981789175366,-0.413783460855484,0.9903643727302551,0.01692652702331543,1.0649254256981917,1.6769746098968006,95.44814673602193,87.44344895497647,1.0,0.017906826381017253,-0.008046130848271042,0.08149840277673073,0.054343690062944726,133.21690504527004,1.2730335836110749,7,0.23333333333333334
1.0407234628961541,1.069612691690216,-0.18640930950641632,0.9998688101768494,0.9817485599525955,1.223924402843837,0.03755069151520729,0.9999892711639404,0.937376353778822,1.264393490268947,-0.33527058362960815,0.9999961853027344,1.0787984324869526,1.640011789047086,0.1233665943145752,0.9999898672103882,1.0410384005182214,1.6973037282825318,-0.12345489114522934,0.9999934434890747,1.332016509574414,1.7115751739068514,0.1745534986257553,0.2555095851421356,1.3501484855456047,1.7330550313613051,-0.15646743774414062,0.9475634694099426,1.2718401084141906,2.069612691690216,0.2691846489906311,0.37835806608200073,1.291588133774068,2.1022899783643703,-0.02061992511153221,0.9131121039390564,1.1845296980836013,1.59004779790172,-0.0019454441498965025,0.21794138848781586,1.1896483908766404,1.610089611050232,-0.415120929479599,0.9896170496940613,0.0167083740234375,1.059918416502587,1.6686577586648088,96.24042342259152,87.58544670893944,1.0,0.001702006940679554,-0.0007938443555573234,-0.12956745229273162,0.05798520467683012,133.482713618669,1.2682627434635385,8,0.26666666666666666
1.0399670806470052,1.0689266624760128,-0.1864321380853653,0.9998723864555359,0.981296195917755,1.224448461990373,0.04031836986541748,0.9999895691871643,0.9367397362340447,1.263208619908058,-0.3358929753303528,0.9999962449073792,1.0779905923067241,1.639267219818547,0.1237090602517128,0.9999898672103882,1.0404138432947916,1.6959897750931627,-0.12379910051822662,0.9999933838844299,1.3307020931991314,1.7111769642427592,0.1776067167520523,0.2536678612232208,1.349179630825757,1.7317306426594856,-0.15645381808280945,0.9476957321166992,1.2699478548504655,2.068926662476013,0.27023476362228394,0.3772505819797516,1.2906593499726093,2.1007141782946492,-0.02026466652750969,0.9126086831092834,1.1845835150064716,1.5879878983149749,0.006668551824986935,0.20939403772354126,1.188897219706748,1.6087265136753441,-0.4153780937194824,0.9893301725387573,0.01601511240005493,1.0592022178007579,1.6676284974558548,96.24564110863284,87.59085744546137,1.0,0.0007839548866447452,0.002021580680783869,-0.007345377310417004,0.022553582069175102,133.3555295725267,1.2686544192977691,9,0.3
1.0387903331817374,1.0692123466534544,-0.18943825364112854,0.9998781085014343,0.9817416578015443,1.2239533597341279,0.03780980035662651,0.9999898076057434,0.9365112546371986,1.2626810307486644,-0.3363259434700012,0.9999963641166687,1.0773934009454993,1.6389336701851462,0.12321243435144424,0.9999898076057434,1.0401073924267614,1.6954787407601246,-0.12330260127782822,0.9999933838844299,1.3301701317499106,1.710692451559585,0.1776711642742157,0.26007530093193054,1.3486225175524373,1.7314099052517746,-0.1561747044324875,0.9489752650260925,1.2667972645259953,2.0692123466534547,0.26748090982437134,0.38415011763572693,1.290474333857537,2.1001795714556737,-0.01967998407781124,0.9143236875534058,1.1840008560704822,1.5852155358621207,0.0011267157969996333,0.2023209035396576,1.1886250211547909,1.6072166626273965,-0.41666632890701294,0.9898751378059387,0.016006112098693848,1.0587503966861305,1.6672062054726353,95.82409532317774,87.68230589237126,1.0,-0.0012346701378557936,0.00029873758659492236,-0.015659288374927402,-0.013361889247274453,133.61919801495299,1.2680243345716002,10,0.3333333333333333
1.0391326093489002,1.0696080175224256,-0.18936090171337128,0.9998807907104492,0.9858483591191297,1.2242020497360253,0.03869432210922241,0.9999898672103882,0.9372259506280874,1.2629654971344868,-0.3345774710178375,0.9999964237213135,1.077946403570614,1.6398064200711,0.12314418703317642,0.9999895691871643,1.0403826964460192,1.6967225660665008,-0.12323421239852905,0.9999932646751404,1.3316638095926423,1.7108884887109872,0.1745636910200119,0.2606641352176666,1.348975615259098,1.731945867211047,-0.157483771443367,0.9491866230964661,1.2672133841187077,2.0696080175224254,0.26552680134773254,0.3828444480895996,1.2908866335243194,2.100852188507162,-0.017122240737080574,0.9132618308067322,1.1848161194082387,1.584794653484743,0.0021946062333881855,0.19716708362102509,1.1892217549633095,1.6075674304813516,-0.4138745367527008,0.9901679754257202,0.016016066074371338,1.0591645500083167,1.6682644930688004,95.46532439657592,87.56318038313576,1.0,0.0007498924998238582,0.004396551762105149,0.015716793922574846,0.032445938539039584,134.0810089916949,1.2706815270851446,11,0.36666666666666664
1.0392021746751525,1.0696521433157504,-0.16729706525802612,0.9998866319656372,0.9858700515148434,1.2250912445689217,0.05716363713145256,0.9999901652336121,0.9372746302256442,1.2626219519278006,-0.32127639651298523,0.9999966025352478,1.0784573064448857,1.6415381885946436,0.12314748764038086,0.9999897480010986,1.0406054655329038,1.6974073461879586,-0.12323872745037079,0.9999934434890747,1.3338195189028328,1.7104381102917352,0.16893520951271057,0.26325616240501404,1.350429287957232,1.7324798054180301,-0.15793150663375854,0.9497941136360168,1.2677749513952716,2.0696521433157504,0.2598583996295929,0.38155484199523926,1.2912330684300177,2.1015484755463403,-0.017143409699201584,0.9132940769195557,1.1854547351398532,1.5848081535455605,0.024051310494542122,0.19550244510173798,1.1897001048391747,1.607792398377031,-0.40135711431503296,0.9906781315803528,0.015502750873565674,1.0595313859888948,1.669472767391301,94.68159396972553,87.34620366304758,1.0,0.0007163712818519342,0.005881642118955934,-0.00025417349921400966,0.011187861960109336,133.34750849328023,1.2750654786899165,12,0.4
1.0425078534258896,1.0740739185155468,-0.17217235267162323,0.9998922944068909,0.9894275290638311,1.2282747953185036,0.04659532383084297,0.9999905228614807,0.9407772755382983,1.2681887371227711,-0.3240385353565216,0.9999967217445374,1.0822168602807103,1.6431620521302372,0.12121864408254623,0.9999901056289673,1.0426535527609735,1.7037092501698137,-0.12130416929721832,0.999993622303009,1.3418549581947186,1.7152338358463814,0.16210247576236725,0.2609727382659912,1.3557491132761639,1.739409208024181,-0.15705980360507965,0.9489774703979492,1.2768787031310873,2.074073918515547,0.25527289509773254,0.3792281448841095,1.2960222343557875,2.109279860035947,-0.017081016674637794,0.9134700894355774,1.1900642757106463,1.5886670248804062,0.010435291565954685,0.1933288425207138,1.1941329948165216,1.6142623138386851,-0.39715033769607544,0.9906116127967834,0.016426503658294678,1.0624352065208418,1.6734356511500255,95.25037322087444,87.33195420639112,1.0,-0.007881279119717534,-0.01719598017543013,-0.06707586511837287,-0.18015761420081766,134.23151321307125,1.2639522706696795,13,0.43333333333333335
1.0445921647141543,1.0765779614757545,-0.17137451469898224,0.999897837638855,0.9872717556912993,1.2303039465740484,0.0508340485394001,0.9999908208847046,0.943095494042495,1.2706489379128472,-0.32187122106552124,0.9999968409538269,1.081834314607273,1.6455609221455287,0.1213422417640686,0.9999904632568359,1.04380657003516,1.706748946748883,-0.12142958492040634,0.9999938607215881,1.3463094896267986,1.7160948319927176,0.16000834107398987,0.2591347396373749,1.3581801016245683,1.7425541889121243,-0.1605069935321808,0.948207676410675,1.2816868732345157,2.0765779614757545,0.25500309467315674,0.37400293350219727,1.298312114031001,2.1136476708340157,-0.02671877108514309,0.9126461744308472,1.1923513590882255,1.5894735681378063,0.0172768272459507,0.1903247982263565,1.1963333062980623,1.6171672133449968,-0.3942481577396393,0.9906412959098816,0.016574084758758545,1.0628204423212164,1.6761549344472058,94.76960133113202,87.33315961763596,1.0,-0.01130391455519676,-0.0021569648709146125,-0.025247208331636038,0.11162651137350389,135.31079926847394,1.2586365079977808,14,0.4666666666666667
1.046581336608471,1.0779049960782714,-0.16696003079414368,0.9998975992202759,0.9927539320203208,1.2291209425101373,0.05358154699206352,0.9999908804893494,0.9450995018391792,1.2726457049429754,-0.31796905398368835,0.9999969005584717,1.0827600547524576,1.6465842553068217,0.12137617915868759,0.9999905824661255,1.0445778171810123,1.708115789265042,-0.12146501243114471,0.9999939799308777,1.3468131698349186,1.717337278755223,0.15826699137687683,0.25041553378105164,1.3588769778083813,1.7439701833908203,-0.15996631979942322,0.9441637992858887,1.2833011320556356,2.077904996078271,0.2456272840499878,0.36382219195365906,1.2993679130355675,2.1157266800176546,-0.028003418818116188,0.9085568785667419,1.1931516881656874,1.5891868179675361,0.03283700719475746,0.18356885015964508,1.1973296378643172,1.6179596657669282,-0.3917314112186432,0.9907075762748718,0.01786583662033081,1.063668935966735,1.6773500222859319,95.01017912800235,87.41352481211197,1.0,-0.00011901171349654435,-0.001273315138382009,0.08494968008058096,0.006719145697840586,136.01223702002935,1.2565005576430874,15,0.5
1.0541140443445793,1.0840808338906784,-0.16976918280124664,0.9999025464057922,0.9994820133904165,1.234103498081832,0.050212759524583817,0.999991238117218,0.9492789901818622,1.2779402188513462,-0.3221716284751892,0.9999970197677612,1.0865463160834588,1.652497655070465,0.1214391440153122,0.9999909400939941,1.0461472951648585,1.714637978072896,-0.12152902036905289,0.9999942183494568,1.351293651337814,1.7214453232672897,0.1592601239681244,0.2486293762922287,1.3628817163842246,1.7502565705934725,-0.16287828981876373,0.9446882009506226,1.2879053223360941,2.0840808338906784,0.25091320276260376,0.3615362048149109,1.3040122358215465,2.12614070539007,-0.031203871592879295,0.909906268119812,1.2024021929581363,1.5936511993732574,0.02814861573278904,0.18830882012844086,1.202334138450702,1.623727065576347,-0.39400604367256165,0.9909688234329224,0.017929911613464355,1.0663468056241585,1.6835678165716805,94.68212204493757,87.51515038250358,1.0,-0.008164878055718243,0.0017010162616079673,-0.05878648265111869,0.021766060258425545,135.21605658189546,1.2491303003030543,16,0.5333333333333333
1.0584264834900299,1.0849949645477037,-0.16137076914310455,0.9999072551727295,1.0035915234098594,1.2366980438940967,0.06445594131946564,0.9999915957450867,0.950749893815893,1.2784360892695947,-0.31520354747772217,0.9999971389770508,1.0873391072019871,1.6571685900339892,0.12222366034984589,0.9999911189079285,1.046136101415336,1.7160311100114007,-0.12231568247079849,0.9999943375587463,1.3521203504447339,1.7221879656262398,0.15901537239551544,0.24605993926525116,1.3628495746293106,1.7508245033696777,-0.16796466708183289,0.9456554055213928,1.2891240500112928,2.084994964547704,0.25112050771713257,0.3608033061027527,1.3045589105634559,2.127437404596514,-0.035531312227249146,0.911352813243866,1.2116731509566923,1.5940191920209623,0.03935634344816208,0.20343627035617828,1.204900843071919,1.6246206278429673,-0.39598822593688965,0.9915383458137512,0.017062127590179443,1.0667376043086616,1.6865998500226949,93.9461126876809,87.47103578029355,1.0,-0.0015482096996945452,0.016610682332557823,0.05224210343906255,0.11763241411307492,133.74395327887052,1.2572119486233067,17,0.5666666666666667
1.0648113643053176,1.087409629695163,-0.16355784237384796,0.99991375207901,1.0073352623338696,1.239705140089725,0.060753367841243744,0.9999920725822449,0.9538976567004885,1.282324134187077,-0.3167594075202942,0.9999973177909851,1.0893206099269133,1.6623838977962362,0.1222774013876915,0.9999914765357971,1.0465111606929236,1.7215722696152171,-0.12236768007278442,0.9999945163726807,1.3547302532103598,1.7253251197759716,0.1597677767276764,0.24897907674312592,1.3655288475973906,1.7544164661359882,-0.16664420068264008,0.9473388195037842,1.2917926839950402,2.0874096296951627,0.2528042197227478,0.3622959554195404,1.307277921238071,2.1318758998128544,-0.03578052669763565,0.9138564467430115,1.21661382455904,1.5958859060495842,0.03790869563817978,0.2355589121580124,1.2102111129805149,1.6280230734900403,-0.39961308240890503,0.9920986890792847,0.01738607883453369,1.0679158853099184,1.6919780837057266,93.48045776561564,87.10524084818447,1.0,-0.008213924206329031,0.014747138077547864,-0.05256425134231655,-0.014975232543388442,133.1456081359601,1.2658859523806896,18,0.6
1.0723274032986836,1.099920555392769,-0.17573127150535583,0.9999197721481323,1.0141395804745033,1.2486008545941516,0.058404117822647095,0.9999924302101135,0.961954574222443,1.2920712310397635,-0.33135369420051575,0.9999974966049194,1.0969322051841082,1.6753708990556178,0.12468522787094116,0.9999917149543762,1.0538910900434257,1.7353099020173368,-0.12477412074804306,0.999994695186615,1.3638187085686515,1.7342804105518388,0.1603492945432663,0.25477302074432373,1.3733552983682407,1.7664989175773418,-0.16950970888137817,0.949043869972229,1.3003237888228596,2.099920555392769,0.2536209523677826,0.3646210730075836,1.316452978893218,2.146881668585407,-0.041101761162281036,0.9151077270507812,1.2251238291962279,1.6037481905366973,0.006355602294206619,0.26042523980140686,1.2205249582527748,1.6389043603605618,-0.4425163269042969,0.9926909804344177,0.017610132694244385,1.075411647613767,1.7053404005364774,92.59582955237175,87.06814928472907,1.0,0.00016477452576777076,0.011941238790201883,0.0662995769521482,-0.0228626242236344,133.33965262029724,1.2650046842391818,19,0.6333333333333333
1.0808627656475975,1.1072640019477296,-0.16942435503005981,0.9999241232872009,1.0220439593898956,1.254508538417542,0.0653538703918457,0.9999926686286926,0.9671487558588673,1.296840191248025,-0.3258711099624634,0.999997615814209,1.1014386149372872,1.6849541355017978,0.12533842027187347,0.9999919533729553,1.0576104870114544,1.7434307890055802,-0.12543100118637085,0.9999948740005493,1.3693210269635132,1.7376285224208667,0.15950524806976318,0.256782591342926,1.3784177695466764,1.7714020721072155,-0.17111805081367493,0.9504013657569885,1.3056070430282942,2.10726400194773,0.25220876932144165,0.3672928214073181,1.3215409313158633,2.155413138000946,-0.04372275620698929,0.9161926507949829,1.2352681337820222,1.6086214220864183,0.009546542540192604,0.2779088616371155,1.2298295152991108,1.6446988889564362,-0.4296445846557617,0.993154764175415,0.017079055309295654,1.0795245509743707,1.714192462253689,91.34433227442055,86.5580641507895,1.0,-0.0022325729543819692,0.015006512231165819,-0.019088266449025844,0.024011287718591633,132.6979070328544,1.268871889264701,20,0.6666666666666666
1.091787993254877,1.108938235010361,-0.16709356009960175,0.9999268054962158,1.023451228960703,1.256509848672727,0.07353340089321136,0.9999929070472717,0.9743623473454247,1.2979888630892735,-0.326642781496048,0.9999976754188538,1.1013806756605586,1.6921537338777888,0.12960496544837952,0.9999920129776001,1.0575274619906163,1.7489310554436563,-0.1297101378440857,0.9999948740005493,1.3694912510498563,1.7389339675185276,0.16778263449668884,0.2690432369709015,1.3796999379112491,1.7702389203541604,-0.17448242008686066,0.9530900716781616,1.3056118997322903,2.108938235010361,0.2577133774757385,0.3849107325077057,1.3239755800030424,2.1559902918999927,-0.04074215143918991,0.9194257259368896,1.2406718902502905,1.6105193081809772,0.03697197884321213,0.30913734436035156,1.2342431298412504,1.6473255374169067,-0.43202894926071167,0.9936883449554443,0.01670825481414795,1.0794540688255874,1.7205423946607226,90.10213082355142,85.56402597394072,1.0,-0.013665599365417771,0.027309314468809496,-0.08668521407917414,0.09312654229198429,132.17651548850773,1.2894457094079805,21,0.7
1.0977408260379704,1.1155059599304942,-0.1681988537311554,0.9999269247055054,1.026460180558423,1.2607496223426182,0.06745617836713791,0.999993085861206,0.985895965737981,1.3012980991189442,-0.32892513275146484,0.9999976754188538,1.105112243804871,1.7010825769978242,0.12901289761066437,0.9999919533729553,1.0611772665734411,1.7567899081722245,-0.12911498546600342,0.9999947547912598,1.3710528224437575,1.7437401001578037,0.16594256460666656,0.28173133730888367,1.3838187517756337,1.7748009118860315,-0.17403191328048706,0.9550266861915588,1.309747350199617,2.1155059599304944,0.24646234512329102,0.40154191851615906,1.328860610889999,2.162535541440312,-0.03993011265993118,0.9223527312278748,1.2496238644574313,1.6124515544770541,0.03248485177755356,0.3347575068473816,1.2458880091173756,1.6531603811368258,-0.4300364851951599,0.9941069483757019,0.016278326511383057,1.083144755189156,1.7289362425850243,89.74875958684216,85.127682418691,1.0,0.0002956141319059378,0.020471278634486195,0.11155778649384544,-0.055195397129308356,131.61069773585928,1.2966403306123924,22,0.7333333333333333
1.1115117070074687,1.12679363189001,-0.1708517223596573,0.9999286532402039,1.0329350992061344,1.2688977291278236,0.05093054100871086,0.9999933242797852,1.0019985797009303,1.307952591448096,-0.3312225341796875,0.9999977350234985,1.1122843915408154,1.7139190429530267,0.12796515226364136,0.9999919533729553,1.070083503274869,1.7681571339395816,-0.12807169556617737,0.9999946355819702,1.377451314038136,1.7536714282672388,0.16428150236606598,0.28750279545783997,1.3914367397225373,1.782997129890123,-0.16478802263736725,0.9560251235961914,1.3183737463581955,2.1267936318900102,0.24117401242256165,0.411693274974823,1.3374112826735094,2.1732802221673495,-0.04140912741422653,0.9246771931648254,1.2586300352534516,1.6220584922640022,0.031297992914915085,0.35466232895851135,1.2590402110500165,1.6637604453806847,-0.4287247061729431,0.9944648742675781,0.01557856798171997,1.0911839474078422,1.7410380884463041,89.52885225256675,84.76286335015331,1.0,0.008116126428904125,0.007448090760594022,0.058944995692124504,-0.09917470024664261,132.00483141203847,1.3005336062375819,23,0.7666666666666667
1.1172276848692606,1.129638646534943,-0.1693221926689148,0.9999269247055054,1.0351006378993162,1.2714844133208942,0.054430972784757614,0.9999933242797852,1.0047426453463424,1.3101325059059343,-0.3310299515724182,0.9999977350234985,1.1140195415170744,1.718784518057339,0.12775622308254242,0.999991774559021,1.0731739755770726,1.772158767449896,-0.12786300480365753,0.9999944567680359,1.373565078505904,1.757785027136669,0.17494197189807892,0.2862699329853058,1.394472377990579,1.7857951739758766,-0.16243025660514832,0.9563421010971069,1.3172419432841593,2.1296386465349433,0.2632841467857361,0.4141100347042084,1.3405453154741693,2.1753729616420183,-0.034747932106256485,0.9246479272842407,1.261256546776662,1.6249936533578642,0.04260893911123276,0.36288556456565857,1.2626542308925632,1.6676302080096046,-0.4269711971282959,0.9948378205299377,0.015380620956420898,1.0935967585470736,1.7454716427536174,89.93270409657953,84.54921380180454,1.0,-0.0009495467345577403,0.003131775607888492,-0.07230987588447425,-0.03449410976090747,132.56841124232002,1.310820716193832,24,0.8
1.1346467283899133,1.1348982928226512,-0.19445809721946716,0.9999273419380188,1.0574696731982083,1.2727809010420894,0.03506701812148094,0.9999935030937195,1.0175637167064684,1.310227892152053,-0.3492705225944519,0.9999977350234985,1.117371436198688,1.7235183016315354,0.12760129570960999,0.9999915361404419,1.0777502257210856,1.7762451857616783,-0.12770824134349823,0.999994158744812,1.3714214846835848,1.7624239310369627,0.17440980672836304,0.28560706973075867,1.3967983377379005,1.7874287299794762,-0.15865732729434967,0.9566177129745483,1.3185938546660247,2.134898292822651,0.2631136178970337,0.41944506764411926,1.3446534074969203,2.1751296840550416,-0.03263844922184944,0.9251728057861328,1.2680309801861667,1.6291052916889972,-0.0007213256321847439,0.3898783326148987,1.2702278711320467,1.6706580906041848,-0.4513509273529053,0.9951758980751038,0.0148659348487854,1.0975608309598868,1.7498817436966068,90.63436464712842,84.34737047897795,1.0,0.009376060041923429,0.0007583414334881101,0.07654348912498386,-0.017647504509201564,135.50715833521346,1.3167673750864242,25,0.8333333333333334
1.1486536541826415,1.1360474863346233,-0.18042875826358795,0.999928891658783,1.0645109749312158,1.2746463738440854,0.04919665679335594,0.9999936819076538,1.0286206140444776,1.3089890674731994,-0.34768208861351013,0.9999977350234985,1.1179023027813466,1.724348615223538,0.12761907279491425,0.9999914169311523,1.079786705415814,1.7772592595430403,-0.1277230679988861,0.9999939203262329,1.3733522842383352,1.7606434894424274,0.1731293648481369,0.2837679982185364,1.396511029317038,1.786613620959214,-0.15838298201560974,0.9572526812553406,1.3195846876266921,2.1360474863346233,0.25878721475601196,0.4230245351791382,1.3455307812110204,2.177050039388406,-0.032677214592695236,0.9264347553253174,1.274439046676632,1.6302328982692913,0.033513106405735016,0.41354864835739136,1.276903535701926,1.6711280318124007,-0.44260987639427185,0.9954320192337036,0.013625025749206543,1.0988445040985801,1.7508039373832893,89.93576992598499,84.25255766275973,1.0,0.0045153759670298384,-0.0013305657348579851,-0.036916868661998586,-0.015849674203501325,137.46109791754688,1.317198005041005,26,0.8666666666666667
1.1615099290243929,1.14043185389655,-0.17976921796798706,0.9999259114265442,1.0728836274273983,1.2794966903252023,0.049703650176525116,0.9999936819076538,1.0407864191054692,1.3121572138683941,-0.3428618013858795,0.9999975562095642,1.1235122707814733,1.729368080628326,0.12753954529762268,0.9999913573265076,1.0871334748016128,1.7829340589518838,-0.12764482200145721,0.9999936819076538,1.3894769580857445,1.7637614410919495,0.17138881981372833,0.2833961546421051,1.4019077337458532,1.7920300205629278,-0.15877395868301392,0.9570505023002625,1.3248423218657892,2.14043185389655,0.2587878108024597,0.42734307050704956,1.3501971603274419,2.1849819242374573,-0.02671186253428459,0.9266306757926941,1.285342715839696,1.6352333054452222,0.03239251300692558,0.43071234226226807,1.2871298264064959,1.6772246748801287,-0.4405694603919983,0.9952322840690613,0.01291269063949585,1.1053228727915432,1.756151069790105,87.63151891433992,84.15843133322784,1.0,0.020796947406864875,-0.005866510291063114,0.12752111586314085,-0.03552460804760922,139.396942748602,1.3205591840332176,27,0.9
1.17448526511621,1.145961530075756,-0.183312326669693,0.9999265074729919,1.0745484674658292,1.2821236352226097,0.05775909498333931,0.9999935626983643,1.05524004763264,1.3127462807688242,-0.3469623029232025,0.9999974966049194,1.1219184886937472,1.7332463328013694,0.13047979772090912,0.9999914765357971,1.0902579128956296,1.7871665599942805,-0.1305970400571823,0.9999936819076538,1.3943015709596578,1.7685466928424,0.17116804420948029,0.29476407170295715,1.4057689847184534,1.796792694252758,-0.16755913197994232,0.9587537050247192,1.3281666565019936,2.145961530075756,0.25845056772232056,0.4430248737335205,1.354055814106042,2.1927684510920145,-0.03310669958591461,0.9291327595710754,1.29722493846972,1.6389397815298143,0.046786218881607056,0.43743380904197693,1.2978041358958587,1.6820254497716651,-0.448254257440567,0.9954306483268738,0.012075960636138916,1.1060882007946884,1.760206446397825,87.44516577136436,84.30699647514426,1.0,-0.016667168463145744,-0.0036753538993152387,-0.30133423529590525,0.017720056825206946,143.58527433448927,1.3098065133290997,28,0.9333333333333333
1.197588227909458,1.1443439753293931,-0.136345773935318,0.9999279975891113,1.0799375278226375,1.282946135826785,0.10935106128454208,0.9999933242797852,1.0674612853448935,1.3105138826515603,-0.31828659772872925,0.9999972581863403,1.1161186385570554,1.7338553590485652,0.13610221445560455,0.9999915361404419,1.0896476047110646,1.7851088752599957,-0.13623832166194916,0.999993622303009,1.392235758263262,1.7666670667615723,0.17339298129081726,0.3052603304386139,1.4041907450197433,1.7943338559478674,-0.16707797348499298,0.9613457322120667,1.3258073216914774,2.1443439753293934,0.24871376156806946,0.466951847076416,1.352421332848992,2.1906609243234074,-0.04267730563879013,0.9336591958999634,1.2998484093245666,1.63717718097206,0.10576611757278442,0.43596044182777405,1.3030088571198435,1.680075658701532,-0.41291213035583496,0.995238721370697,0.0108833909034729,1.10288312163406,1.7594821171542805,86.80127914791225,84.23789116567283,1.0,-0.014818279696655544,0.009283393145333788,0.01374569073636819,0.09728907736383446,148.09728430528207,1.3200836583321085,29,0.9666666666666667
1.2098520809670983,1.1451679540798778,-0.11890709400177002,0.9999249577522278,1.093086276733293,1.2850548341917767,0.10544474422931671,0.9999927282333374,1.0874314157031972,1.3110021694307918,-0.2991221249103546,0.9999969005584717,1.1154714144700852,1.7352354488255515,0.13477852940559387,0.9999911189079285,1.0940252401092634,1.7837670180028302,-0.13490301370620728,0.9999932050704956,1.387767166701625,1.76867998387283,0.17354315519332886,0.30150312185287476,1.4043183701644935,1.797041256661978,-0.1571577489376068,0.9625319242477417,1.3270412385279786,2.145167954079878,0.23275575041770935,0.47551554441452026,1.3536945908093265,2.192786778621949,-0.055392466485500336,0.9370874166488647,1.2993270472831944,1.6381160950729319,0.1013241857290268,0.4193820655345917,1.3102541419565739,1.6810087460278986,-0.3888769745826721,0.9944908618927002,0.010234355926513672,1.1047483272896743,1.7595012334141908,87.83959013581742,85.15991288089664,1.0,0.006652856657711429,-0.012227550092926323,0.16598279768092977,-0.16625140253192047,153.31261552807302,1.3192640148858186,30,1.0
1.2326705991306306,1.152680125634563,-0.11721537262201309,0.9999223947525024,1.1114011621424622,1.2903587381022992,0.10974515974521637,0.9999919533729553,1.10607466321609,1.3155472392479826,-0.29290899634361267,0.9999967217445374,1.1153737749606158,1.743601276369492,0.13392415642738342,0.9999895095825195,1.1016422600568707,1.7886536000855564,-0.13404414057731628,0.9999920129776001,1.3788824106302435,1.78338838631187,0.18396452069282532,0.3003043234348297,1.4065315713346283,1.804142208859497,-0.1524553745985031,0.9643418788909912,1.3270122653738128,2.152680125634563,0.23334820568561554,0.49024561047554016,1.3576351212467586,2.200027608657893,-0.05261104181408882,0.9403717517852783,1.3023642567999594,1.643400506816077,0.10113023221492767,0.4133096933364868,1.321184411423613,1.6870420584529897,-0.3840593695640564,0.9947792887687683,0.009897112846374512,1.1085080175087434,1.7661274382275243,90.59084857300267,85.86713361982126,1.0,-0.003542860430610217,-0.0008824624416017785,-0.07623078772681989,0.08496227031921313,162.54710556603519,1.3255135682239874,31,1.0333333333333334
1.266396078070438,1.1671760266386935,-0.1101345643401146,0.9999182820320129,1.1325465326848796,1.2971025910310792,0.11730436235666275,0.9999903440475464,1.1327044759271032,1.3195418076447882,-0.287023663520813,0.9999964237213135,1.1162149881051138,1.7564358252149643,0.1335909366607666,0.9999876022338867,1.1112586331639056,1.7960343979505322,-0.13371720910072327,0.9999907612800598,1.3695033770749003,1.8129179438761298,0.1856517344713211,0.30170702934265137,1.4111726596209606,1.815460883409392,-0.15114614367485046,0.9662780165672302,1.3322702196302498,2.1671760266386935,0.22075025737285614,0.5083897113800049,1.3637799345491737,2.214447608557979,-0.06496691703796387,0.9439865946769714,1.308448142502138,1.6508768630902566,0.09909950196743011,0.3897702097892761,1.330916616330036,1.6945810458356927,-0.3340170979499817,0.9948101043701172,0.008777201175689697,1.1137368106345098,1.7762351115827482,96.57114886925564,86.93206357196499,1.0,0.0016172142705369182,0.01562281568576792,0.038003088781225276,0.12121195994997376,174.90196368548948,1.3185602252796813,32,1.0666666666666667
1.3197081579155787,1.2091874622293437,-0.10591362416744232,0.9999102354049683,1.1777088266195688,1.3311908275972655,0.1174808144569397,0.9999886751174927,1.1829492967098905,1.3514192403382221,-0.281669020652771,0.9999958276748657,1.1430461612528564,1.7960373241384584,0.13327348232269287,0.9999842047691345,1.1375335278583096,1.8372811447712927,-0.1333966702222824,0.9999885559082031,1.3935795833825888,1.8414575406128435,0.21702317893505096,0.2812027335166931,1.44546586312948,1.862426443536453,-0.15194310247898102,0.9671937823295593,1.3646486553548793,2.2091874622293437,0.28499653935432434,0.4908198118209839,1.3947556284861657,2.2712480302688043,-0.05877188965678215,0.9451637864112854,1.3538098766096787,1.693664595400924,0.05937900021672249,0.36844751238822937,1.37457481311206,1.7358561498333898,-0.3328309953212738,0.9942572712898254,0.007726073265075684,1.140289844555583,1.8166592344548755,95.7773291096649,87.59747769990112,1.0,-0.0024356699929137995,-0.01892180439718485,-0.0319842353533351,-0.27296317820054333,176.65152732083092,1.3018698430985465,33,1.1
1.3280900023178401,1.2061832184476704,-0.10658802092075348,0.9998523592948914,1.1878144715032264,1.3309513467820002,0.11819660663604736,0.9999850988388062,1.1851603692183035,1.3494985868966067,-0.2813621163368225,0.9999943971633911,1.1359588943707648,1.7961600205683967,0.13311833143234253,0.9999794960021973,1.135235728240058,1.8345230410842037,-0.13324369490146637,0.9999856352806091,1.3930792798723823,1.8371620287139494,0.23191499710083008,0.26173967123031616,1.4441328453533149,1.8622724572416922,-0.1488799750804901,0.9681148529052734,1.3628227008096858,2.2061832184476704,0.31796663999557495,0.4710231423377991,1.3923185608355133,2.2708261055026306,-0.027780741453170776,0.945121705532074,1.3517140525390088,1.695543786727541,0.0343865230679512,0.3438919484615326,1.3741186461476134,1.7336769709919382,-0.3187544047832489,0.9938485622406006,0.007094681262969971,1.1355973113054114,1.8153415308263003,94.37317406984927,87.90544519680672,1.0,-0.023735128210070625,0.011401977145104561,-0.17025169653785613,0.2421149730840115,174.7195792664038,1.3105563706223102,34,1.1333333333333333
1.331583716371455,1.1986170558878546,-0.059502650052309036,0.9998525977134705,1.1808382133919029,1.321878261870443,0.15065160393714905,0.9999833106994629,1.1999880567292982,1.3399238941374476,-0.23321428894996643,0.999993622303009,1.1188293552598583,1.7864598892524641,0.12984630465507507,0.9999778866767883,1.1268069031485834,1.8176389422408268,-0.13000936806201935,0.9999846816062927,1.3868901873500032,1.8281652645442197,0.21441641449928284,0.26490750908851624,1.4338821616886794,1.8499176424849986,-0.1386348307132721,0.9706622958183289,1.3531416293993819,2.1986170558878544,0.2893160879611969,0.49005186557769775,1.382609329272415,2.260662347183763,-0.028795253485441208,0.9496804475784302,1.3409341215685722,1.6926459620064758,0.11530754715204239,0.33299896121025085,1.368726360020613,1.7213539027808482,-0.2547075152397156,0.9935852289199829,0.0069525837898254395,1.1228181292042207,1.8020494157466456,93.63794166191327,88.8853326538638,1.0,-0.03495485394965236,-0.0022188849700980674,-0.08563966595904324,-0.1018024443351068,158.04558571094864,1.2956079871642503,35,1.1666666666666667
1.3741810483504593,1.2250535285150326,-0.038558244705200195,0.9998108148574829,1.2051545931061987,1.3389439111005998,0.15575620532035828,0.999979555606842,1.2402168954533457,1.356486723151749,-0.23287908732891083,0.9999921321868896,1.1296288107884873,1.8112146181387376,0.1294814944267273,0.9999765157699585,1.1467347703656248,1.8390415416024504,-0.12966635823249817,0.9999837279319763,1.4050751739212064,1.851817324291901,0.2216005027294159,0.2567080557346344,1.4506397791351526,1.8784451338883963,-0.12609250843524933,0.9717194437980652,1.3691782970876998,2.2250535285150326,0.2934388220310211,0.5001591444015503,1.399221569900035,2.287114597235245,-0.020800026133656502,0.9528571367263794,1.35505799173549,1.7356945488684292,0.166585773229599,0.3129572570323944,1.3969341596330314,1.7486046273023093,-0.287137508392334,0.9915851950645447,0.006680428981781006,1.1381817905770562,1.825128079870594,92.89174858605975,90.21642792790556,1.0,0.016265378086113353,0.01433227442707714,0.3849425992022974,0.12359479012305735,139.3339999849686,1.2994088730456272,36,1.2
1.4060519809653569,1.2248022449745295,-0.03131481260061264,0.9998146295547485,1.22672395947713,1.3317317360301903,0.16780945658683777,0.9999759793281555,1.281811034078129,1.3474541191926637,-0.22303274273872375,0.9999913573265076,1.125213900912408,1.799710408678809,0.12883290648460388,0.9999756217002869,1.152579837346234,1.8195729224257617,-0.12902788817882538,0.9999833106994629,1.3989793745726746,1.8591356742263334,0.22180858254432678,0.24524599313735962,1.4430710651625593,1.8726493654016865,-0.1030670553445816,0.9722360372543335,1.3610546270860224,2.2248022449745295,0.3109073042869568,0.49438750743865967,1.3913664196824391,2.276312252973959,0.004459242802113295,0.9550176858901978,1.3455125675367554,1.7340517650126603,0.1569657325744629,0.2940267324447632,1.3957218806212561,1.7417112399722217,-0.25857681035995483,0.9899379014968872,0.006023228168487549,1.1388968691293209,1.8096416655522853,96.32578777776092,93.05525671596826,1.0,0.05779163601509925,-0.03508991307902196,0.31971771947331556,-0.3789617632771113,113.73404683656652,1.2840722703498848,37,1.2333333333333334
1.3797840256657512,1.1805771522653739,-0.0026971041224896908,0.9997933506965637,1.2144556440223429,1.289101975864828,0.19463394582271576,0.9999712705612183,1.2702909660535817,1.31102851563346,-0.21703436970710754,0.9999908208847046,1.0963871150852929,1.7459501972593454,0.1312553584575653,0.9999758005142212,1.1268881397373722,1.7587974608680743,-0.13146023452281952,0.9999836087226868,1.3355238417327138,1.8908719409807673,0.21758434176445007,0.25236502289772034,1.4098411429577073,1.8289931329909193,-0.0883941799402237,0.9741420149803162,1.3152993254758751,2.180577152265374,0.3076714873313904,0.5103405117988586,1.3544063371372654,2.2147195500527133,0.029029017314314842,0.9580269455909729,1.291125078736383,1.704249409600182,0.15148815512657166,0.2746511399745941,1.369190678581538,1.702454242783552,-0.248306542634964,0.9899154901504517,0.008629262447357178,1.1116376274113324,1.7523738290637099,117.22334136235443,95.75450717575221,1.0,0.0227262316650895,-0.06979362294840682,-0.2544700817801939,-0.27045020778974577,98.35065413959263,1.2679327453268623,38,1.2666666666666666
1.3955486823764154,1.1783700567718942,0.033561982214450836,0.9997598528862,1.2296244978039859,1.2832594562513462,0.23316295444965363,0.9999669790267944,1.2919965535136981,1.309463476970255,-0.19641676545143127,0.9999901652336121,1.09636414781718,1.7258336203890445,0.1378154307603836,0.999976396560669,1.1262405881324655,1.733048640719254,-0.13801786303520203,0.9999842047691345,1.35131059488547,1.86676464430995,0.21339277923107147,0.24004967510700226,1.4113084196242494,1.8298876044345034,-0.10976137965917587,0.9757235646247864,1.3168726954122287,2.178370056771894,0.29705923795700073,0.501988410949707,1.3561802412964556,2.219693051858167,-0.028488894924521446,0.9607719779014587,1.2943193568255487,1.701401013647492,0.1844199001789093,0.2540346086025238,1.3779299753722862,1.7076279261126173,-0.24878695607185364,0.9874547123908997,0.010310769081115723,1.1113023679748226,1.7294411305541493,112.62663538725191,100.71321689338293,1.0,-0.00432933736357745,-0.186046691795065,-0.21646419678896903,-0.9298608092805313,86.81951600653551,1.1905684864053754,39,1.3
1.3642710056960639,1.1165428680580187,0.10963503271341324,0.9996740221977234,1.2174759106815565,1.2442121033014415,0.27315640449523926,0.9999643564224243,1.2740059375706936,1.2630442007555651,-0.14593784511089325,0.9999896287918091,1.0616944228081266,1.671733362300439,0.13909167051315308,0.9999765157699585,1.098166737932998,1.6650724469173626,-0.13929545879364014,0.9999843835830688,1.3140036209861976,1.7952486205224398,0.21187233924865723,0.22696742415428162,1.3725223680491256,1.7748490067570477,-0.11291942745447159,0.9771801233291626,1.2797627088398718,2.1165428680580187,0.28390365839004517,0.49187955260276794,1.3160888410154226,2.1547099205526172,-0.044146500527858734,0.9629661440849304,1.27349205562919,1.6772693524837652,0.26026976108551025,0.23864656686782837,1.3467105308609184,1.6641240583914525,-0.19308790564537048,0.9832422733306885,0.007636368274688721,1.0799305803705623,1.6684029046089006,110.0004079608689,103.3573224262351,1.0,0.011944535303615571,-0.07482615757033477,0.12345823319549536,0.8082957047167142,59.629288896077064,1.20409187173616,40,1.3333333333333333
1.3247332918649102,1.0355013146015601,0.09931845963001251,0.9995417594909668,1.1890216255316939,1.181373213767845,0.258122056722641,0.9999597072601318,1.2366493223192188,1.1942708832907847,-0.15465092658996582,0.9999877214431763,1.017321030549664,1.5928175696440445,0.1384471356868744,0.9999768733978271,1.0569616810235658,1.5808382668863896,-0.1386343240737915,0.9999845027923584,1.2521559979307544,1.7160987019783027,0.22379744052886963,0.22331345081329346,1.3168168999752217,1.7013727436766577,-0.10094787925481796,0.9787520170211792,1.2259075979473342,2.03550131460156,0.3123323619365692,0.5033122897148132,1.2613762595083509,2.0633217051445922,-0.002839687978848815,0.9654995203018188,1.220112949963649,1.6129919411029225,0.2363770455121994,0.224191814661026,1.2985043148107789,1.6014414909941295,-0.16848352551460266,0.9724613428115845,0.005462050437927246,1.037141355786615,1.5868279182652172,113.00009975445387,106.1758874422463,1.0,0.023442040005127646,-0.08090888592466554,0.09089590166256865,-0.07012736907092858,50.533963489916275,1.2274898609335123,41,1.3666666666666667
1.3116013005262226,1.0096738465249286,0.14368808269500732,0.9993308782577515,1.1803635018171201,1.156504218526531,0.30135494470596313,0.999954342842102,1.231296911642733,1.1546997074781646,-0.12389709055423737,0.9999857544898987,1.0049221642655959,1.5624863445927644,0.13964465260505676,0.9999765157699585,1.0473506477934147,1.5467057131132411,-0.1398388296365738,0.999984085559845,1.2376401761202782,1.6923283305594692,0.21978160738945007,0.21837513148784637,1.3026928862527243,1.6792148324069482,-0.09558512270450592,0.9798949360847473,1.2103133138318776,2.0096738465249286,0.30216535925865173,0.5023817420005798,1.2452601799259035,2.036519552181145,0.007285569794476032,0.9667859673500061,1.2095545508031864,1.5949401718617018,0.308512806892395,0.21155288815498352,1.292729901133636,1.5865448709126784,-0.12772968411445618,0.9602766036987305,0.0007741153240203857,1.0261364060295053,1.5545960288530027,114.23712183591593,108.29538398746541,1.0,0.017828519753299823,-0.09275618778221519,-0.04142779144490555,-0.10046177525753401,46.226947949521985,1.2060749950132006,42,1.4
1.2994491631737184,0.9805852717397588,0.1250285655260086,0.9992384314537048,1.1752281275386323,1.1240415673906679,0.29342061281204224,0.9999493956565857,1.2177844751279112,1.1169599954130571,-0.13154025375843048,0.9999837875366211,0.9970685713061956,1.5189495681917409,0.13909050822257996,0.9999768137931824,1.0385914883336405,1.502907036612548,-0.13928301632404327,0.9999841451644897,1.219266063143401,1.6638329203328626,0.20185044407844543,0.21231546998023987,1.2836871576342186,1.6532152149934463,-0.09779594838619232,0.9805757999420166,1.1938992565307318,1.980585271739759,0.26936906576156616,0.49895787239074707,1.2264863928791818,2.005460815678039,0.002718360396102071,0.9682210087776184,1.1964205698387023,1.5669846577572053,0.26752057671546936,0.1985694169998169,1.2789432570400576,1.5635820821586877,-0.140976220369339,0.9450648427009583,0.003084540367126465,1.017830029819918,1.5109283024021445,118.52756057267155,112.29557867097613,1.0,0.05491985286555036,-0.15375900112322546,0.28481652045812356,-0.47573732149915604,44.59364580378303,1.1568599454810897,43,1.4333333333333333
1.2690186426574885,0.9221260302418938,0.08238226920366287,0.9991912245750427,1.1575824268276806,1.0648942659462337,0.26746922731399536,0.9999414086341858,1.1848964509831037,1.067366919591773,-0.16303764283657074,0.9999822974205017,0.9918679812419103,1.4425435317758388,0.14189010858535767,0.9999765157699585,1.0158494918958592,1.437297183821078,-0.14202573895454407,0.999984085559845,1.1988408140166127,1.6156938811192412,0.19424375891685486,0.2012099325656891,1.252585942623776,1.6054426822895917,-0.14096806943416595,0.9808856248855591,1.1602040723425304,1.9221260302418939,0.26288557052612305,0.48010921478271484,1.1910028581584777,1.9494148015381119,-0.08340775966644287,0.9689750075340271,1.1547970364573534,1.5005024322158433,0.2298240214586258,0.18353131413459778,1.2455627237494702,1.5193095655637658,-0.1896248161792755,0.9362534880638123,0.0011088848114013672,1.0038587365688847,1.4399203577984583,122.72908140980947,115.23441115538867,1.0,0.11756390114778832,-0.21233659365455715,0.49424387160415084,-0.4848065337487595,53.96790398548703,1.1085963110443542,44,1.4666666666666666
1.265391565362375,0.9084512592783879,0.08770838379859924,0.9991042017936707,1.1535618988925542,1.0521772715852766,0.2756289839744568,0.9999336004257202,1.1751792900798037,1.0565348776816608,-0.1642039716243744,0.9999797344207764,0.986816282672144,1.4308071192430032,0.14462170004844666,0.9999761581420898,1.0088208963361993,1.4270085631220826,-0.14472821354866028,0.9999839663505554,1.19681463634951,1.6038291589746962,0.19797828793525696,0.18710920214653015,1.2455633453328734,1.5969899888533263,-0.1547224521636963,0.9808633923530579,1.1507789931344254,1.9084512592783878,0.2758258879184723,0.4545895755290985,1.178868135366007,1.940752980708716,-0.10716693103313446,0.9693634510040283,1.1448336164559387,1.4711981334107513,0.22637613117694855,0.16942237317562103,1.232482935740476,1.5074387510550262,-0.19611667096614838,0.9208594560623169,0.0019673407077789307,0.9978185895041717,1.4289078411825429,120.89209812446596,114.6985671920202,1.0,0.004823472194455306,-0.010240142489113584,-0.8179419666729851,1.4661502418741834,56.43750056918598,1.1187906861874197,45,1.5
1.2336566826010356,0.8660878948515033,0.027545873075723648,0.9991253018379211,1.142725274254133,1.0163268845564728,0.24497362971305847,0.9999328851699829,1.1470564420681284,1.0137388248599914,-0.20815801620483398,0.9999796748161316,0.9876028570030189,1.376726239433424,0.14455732703208923,0.9999768733978271,0.9948647528636084,1.3720108853214878,-0.14462412893772125,0.9999845623970032,1.1764284207980253,1.5678210205821836,0.17501099407672882,0.17787308990955353,1.2176430228733546,1.5626575567378593,-0.18788926303386688,0.9809463024139404,1.124220021103773,1.8660878948515032,0.23585250973701477,0.4424680173397064,1.1503307424325953,1.898394152929908,-0.16176491975784302,0.9705809354782104,1.1492468850885222,1.4398073050667781,0.1552290916442871,0.15929682552814484,1.2058391410033449,1.470457494209118,-0.3230186104774475,0.9196026921272278,0.0011945366859436035,0.9912338049333137,1.374368562377456,125.41379094252802,119.2188775297705,1.0,0.11664905249047944,-0.1787880731191405,0.8581187642432102,-1.2938879563163532,33.715277240899596,1.065619979482284,46,1.5333333333333334
1.2276957843665326,0.8503499307381924,0.009599919430911541,0.9991828799247742,1.1341470086681928,0.9893446880059303,0.22634437680244446,0.9999359846115112,1.1403208518239114,0.9896714116077806,-0.22349412739276886,0.9999803900718689,0.9891096627734672,1.3480890650593509,0.14487414062023163,0.9999775290489197,0.9904654886636928,1.3550036871991389,-0.14492227137088776,0.9999851584434509,1.1818333714767728,1.5560229518193136,0.18434010446071625,0.1755129098892212,1.210899571278016,1.5625147853988455,-0.1655002385377884,0.9823436141014099,1.1216236313633081,1.8503499307381923,0.26292163133621216,0.4514589011669159,1.1442159776574483,1.8892275992056917,-0.11415122449398041,0.9730650186538696,1.1732688208334585,1.4317897698011326,0.16638314723968506,0.16818535327911377,1.1962941015858681,1.4469405494042302,-0.28951296210289,0.9246678352355957,0.00015163421630859375,0.98978757571858,1.3515463761292448,125.61273335608904,121.73443675434542,1.0,0.029953120737633458,-0.11446440741410917,-0.644869189652715,0.4746620228681769,146.89306535301444,1.0318956559634045,47,1.5666666666666667
1.187932707968061,0.7902396471443333,-0.06342808902263641,0.9992446303367615,1.1045995454859765,0.9344057945785234,0.16860970854759216,0.9999404549598694,1.1011391553598864,0.9380271576446957,-0.26742058992385864,0.9999815821647644,0.967200847074278,1.2872155489795427,0.14398245513439178,0.9999784231185913,0.962786547831236,1.296482644961227,-0.143949493765831,0.999985933303833,1.141964651435806,1.5051940332779714,0.20958609879016876,0.18143869936466217,1.1692981175982191,1.5156139713577512,-0.15715999901294708,0.9838951230049133,1.0858696511832566,1.7902396471443331,0.3357430100440979,0.4803197383880615,1.1077617225235314,1.8316189497767534,-0.09978814423084259,0.9756104350090027,1.1348208326444922,1.3790829487782366,0.11982758343219757,0.18293185532093048,1.1585865519689427,1.387806924172426,-0.33572298288345337,0.931557834148407,0.001737147569656372,0.964993697452757,1.2918490969703849,130.1460291120841,125.67881229324261,1.0,0.05536320525124923,-0.11847406779076868,0.19814279226188208,-0.05804919183693339,175.807612274333,1.0249487667581278,48,1.6
1.1405174235595674,0.729196958419726,-0.038477540016174316,0.9992549419403076,1.0558073685810285,0.8696393826312661,0.19460411369800568,0.9999406337738037,1.072186003179229,0.8640366135905893,-0.23496738076210022,0.9999827742576599,0.9332545970074001,1.2223197100504821,0.14347250759601593,0.9999784231185913,0.9421860541380186,1.230583547085472,-0.1434430629014969,0.9999865889549255,1.0925729962179584,1.4531223799313495,0.22987417876720428,0.17674203217029572,1.1282252042773009,1.46226186882668,-0.11432596296072006,0.9848410487174988,1.0428476491061678,1.729196958419726,0.35563746094703674,0.48169076442718506,1.0690170858826467,1.7684252744805276,-0.034460872411727905,0.9774508476257324,1.086513216761605,1.318521032041388,0.20026688277721405,0.17561420798301697,1.1218314948700985,1.3193073561410886,-0.3146914839744568,0.9378455877304077,0.0027851760387420654,0.9377203255727093,1.2264516285679772,135.17307799809717,130.29014972332396,1.0,0.044397895525334984,-0.13701110239678377,-0.06138353493844516,-0.15428732698199948,113.61475409150185,1.0027038073553687,49,1.6333333333333333
1.1186261298671702,0.6883920851256127,-0.04301450401544571,0.9992524981498718,1.0389817191764679,0.8340784079425914,0.19193431735038757,0.9999401569366455,1.0494432930582531,0.8279261078590473,-0.2488335818052292,0.9999839067459106,0.9225043002675416,1.1830346532007385,0.1433708518743515,0.9999787211418152,0.9267542559843349,1.1924803682673024,-0.14330847561359406,0.9999873638153076,1.0712052254829305,1.4147309619908393,0.21896204352378845,0.1699228733778,1.103991168118532,1.43319807128813,-0.1318434476852417,0.9859573245048523,1.0208820182135259,1.6883920851256127,0.33178773522377014,0.4804736077785492,1.0456630121604413,1.7303071450359948,-0.06050794571638107,0.9794414639472961,1.0608539562432047,1.2730534501678537,0.1868911236524582,0.16703124344348907,1.099095167500826,1.2786116306740076,-0.3512443006038666,0.943747341632843,0.003125011920928955,0.9246292781259382,1.1877575107340206,136.8883175942203,132.52933370142583,1.0,0.03956895617413463,-0.07174842880313717,-0.022223753266111403,0.35689665630973183,137.31696959016108,1.005510062626539,50,1.6666666666666667
1.0868261599034812,0.6422489042792379,-0.06005014851689339,0.9992846250534058,1.0104002964715266,0.788609810434531,0.18433210253715515,0.9999417662620544,1.0189231111137738,0.7832985994915593,-0.2672494053840637,0.999984860420227,0.9020460586432776,1.138391436560314,0.14384250342845917,0.9999794363975525,0.9065949794407039,1.1424780192552437,-0.14382115006446838,0.9999881386756897,1.0416527089401058,1.3753955449960873,0.2146303355693817,0.17739376425743103,1.0734552712277978,1.3928724159662127,-0.13335908949375153,0.9870287179946899,0.9909534532285641,1.6422489042792379,0.3199520409107208,0.5005764961242676,1.016955192916179,1.6823983154300706,-0.06776206940412521,0.9812967777252197,1.028554898156382,1.2168960241376665,0.16933991014957428,0.16370789706707,1.0677021488194631,1.2274308054799303,-0.3800201117992401,0.9489717483520508,0.002774149179458618,0.9043205190419907,1.140434727907779,138.74252950883232,135.27859646109405,1.0,0.041457800430271516,-0.11792426701332641,0.02400696642818014,-0.38816117335953054,114.72358576033957,0.9985829149535506,51,1.7
1.0827603529002567,0.6225680005796591,-0.07794665545225143,0.9993395209312439,1.0107765951109462,0.7654744280246636,0.1720697581768036,0.9999454617500305,1.007922384460705,0.758500263209089,-0.27194926142692566,0.9999861121177673,0.9078362946852111,1.1115016324389349,0.14372293651103973,0.999979555606842,0.9036946937341542,1.115009881220752,-0.14374205470085144,0.9999886751174927,1.0349068266953814,1.3569460013865247,0.18349286913871765,0.17236389219760895,1.0622362610450888,1.3795828873511444,-0.1665852814912796,0.9877976775169373,0.9854145879441081,1.622568000579659,0.2905275225639343,0.4957391321659088,1.0067280244713803,1.6670621491087119,-0.12295790761709213,0.982830286026001,1.0321382988836703,1.1947186590432302,0.15258249640464783,0.1732461154460907,1.0568163128368604,1.2039774923165214,-0.3886360228061676,0.9539351463317871,0.003677457571029663,0.9057654942096827,1.1132557568298436,142.07401308621203,138.13993014303568,1.0,0.07191064823525525,-0.11824497676761214,0.22220845891889018,-0.010330217955053334,146.83443546951793,0.9674616151048849,52,1.7333333333333334
1.060876731309306,0.5905574275208147,-0.10145553201436996,0.999392569065094,0.9855179034934684,0.7314946371962895,0.15077301859855652,0.9999485015869141,0.9875978238514673,0.7285107770236727,-0.28812259435653687,0.9999872446060181,0.8977325211338525,1.0816105564656824,0.142499640583992,0.999980092048645,0.8951882477518687,1.086000329773201,-0.14247915148735046,0.9999893307685852,1.0120900218785016,1.3292516142930089,0.18688395619392395,0.1782253235578537,1.0405353983163836,1.3522227112676057,-0.15826795995235443,0.9886093735694885,0.9653486598088025,1.5905574275208147,0.2946572005748749,0.5109734535217285,0.9863377932499326,1.633440022055799,-0.10057960450649261,0.9843238592147827,1.0064480855424591,1.1403276943888911,0.12324352562427521,0.17234861850738525,1.035756900415585,1.1646370544515836,-0.3876243531703949,0.9583861827850342,0.001605004072189331,0.8964603844428606,1.0838054431194417,145.0715187493564,140.45858010165693,1.0,0.06594040453121536,-0.05802837728297496,-0.03515461214434048,0.44691579337419257,163.97953057302385,0.9734184303616569,53,1.7666666666666666
1.0467897387841418,0.5704736855043433,-0.1139373928308487,0.9994522929191589,0.9806981206524453,0.7183869988785662,0.14248692989349365,0.9999527931213379,0.9744748551725324,0.7097111203175427,-0.28510040044784546,0.9999884366989136,0.904451237883321,1.056518723861565,0.13772132992744446,0.9999803900718689,0.8927163408460407,1.059884394253515,-0.13763019442558289,0.999989926815033,0.992745308803297,1.3138462729473608,0.17850348353385925,0.19225293397903442,1.0217167700273238,1.3357035849256904,-0.16241738200187683,0.9895749092102051,0.9585509648530696,1.5704736855043433,0.29102617502212524,0.5311747193336487,0.9728621540783254,1.6140834094305674,-0.11931902170181274,0.9857690334320068,1.1194830508980314,1.0107283275907502,0.13471758365631104,0.23855909705162048,1.0231300734645135,1.1384665619381846,-0.42370668053627014,0.9625280499458313,0.004722625017166138,0.8985837893646809,1.05820155905754,153.47223572121402,144.9807117129715,1.0,0.09909273999367277,-0.09937238082151652,0.2640025479912288,-0.3270058550093208,118.71070556913935,0.9469944500828529,54,1.8
1.0299764262850362,0.5558903173160572,-0.030666450038552284,0.9995020031929016,0.954683409400316,0.6863182170435788,0.1670277863740921,0.9999558329582214,0.9632051933554262,0.6925424208532301,-0.24790605902671814,0.9999894499778748,0.8891850173489696,1.0406686796060423,0.1358979344367981,0.9999808669090271,0.8892222786256373,1.0457181241828448,-0.1358759105205536,0.9999905824661255,0.9816711888389045,1.2998313656436622,0.18368574976921082,0.18733082711696625,1.0056089594739748,1.321184568480567,-0.14024129509925842,0.9897395968437195,0.9519605199442879,1.5558903173160572,0.2962917685508728,0.5084581971168518,0.9532229623267371,1.5968574662472679,-0.09667499363422394,0.9863618016242981,1.021321411602306,1.069538370151681,0.17047974467277527,0.23010294139385223,1.0110441232548872,1.1093077423462874,-0.3358951508998871,0.966094970703125,0.003425031900405884,0.8892036479873034,1.0431934018944435,153.7418139369977,146.3359688648293,1.0,0.0023756074565260115,-0.027159159889123444,-0.7232338798581949,0.5379270590321191,169.10481252497016,0.9446712173353441,55,1.8333333333333333
1.023929339350565,0.5525624973322141,-0.03194257616996765,0.9995486736297607,0.949624655990349,0.6757475405708264,0.17062100768089294,0.9999588131904602,0.9583257341854726,0.6849289819211422,-0.24205589294433594,0.9999904036521912,0.8892025917729146,1.0344121751930184,0.13138124346733093,0.999981164932251,0.8901925828867622,1.0420416118557916,-0.13141757249832153,0.9999911189079285,0.9767593266874743,1.2936542480422224,0.1674235761165619,0.1947457641363144,0.997218172936341,1.3146834076432983,-0.11942660808563232,0.9899729490280151,0.9476904842284806,1.552562497332214,0.26241442561149597,0.5078811049461365,0.9492996711563079,1.5895486817580353,-0.06829613447189331,0.9870807528495789,0.9753996720617383,1.0883244105324836,0.16177505254745483,0.23132021725177765,1.0043228911340687,1.0982265852469173,-0.3229982256889343,0.9694477319717407,0.005077093839645386,0.8896975873298384,1.038226893524405,154.93201614799793,148.67825633856378,1.0,0.03794318036204573,0.0009566165697226515,0.2794340794644013,0.21977721747157142,163.04415762922167,0.9399480047901136,56,1.8666666666666667
1.0125299652710533,0.5344089885557238,-0.09048695862293243,0.9995924234390259,0.9389752443373329,0.657881968465573,0.13983029127120972,0.9999620318412781,0.946397014967518,0.6633763185185442,-0.27270954847335815,0.9999912977218628,0.8892890622065575,1.014020670076605,0.12962064146995544,0.9999817609786987,0.8819276549982699,1.0247573675474417,-0.12965860962867737,0.9999916553497314,0.9705772272198009,1.2727740988175322,0.15064142644405365,0.19758062064647675,0.9834409761079658,1.297294221600888,-0.1191955953836441,0.9896137714385986,0.9400532615294536,1.534408988555724,0.2524455785751343,0.5036959052085876,0.9391156838608296,1.5715015387877607,-0.06804333627223969,0.9875829815864563,0.9655511332260147,1.0858688057232835,0.12655887007713318,0.23772193491458893,0.991956320963982,1.07543994572087,-0.39974796772003174,0.9724847078323364,0.0030734241008758545,0.8856083586024136,1.0193890188120234,155.90533001174768,150.38850055276308,1.0,0.04499863976678928,-0.05127208036395007,0.05526308372296741,-0.3852780501289345,153.50655024330115,0.9347775581736316,57,1.9
0.9995956666708242,0.5173685189111745,-0.09926507622003555,0.9996313452720642,0.9272887842523562,0.6427060619844098,0.12883040308952332,0.9999649524688721,0.9302213718398861,0.6455316588576075,-0.2779799699783325,0.9999921321868896,0.8853246368249408,0.9950149063378657,0.12724779546260834,0.999982476234436,0.8710948191917449,1.0067856742327994,-0.1272893249988556,0.9999921917915344,0.9586320639856046,1.2484255445408974,0.1493084579706192,0.21285171806812286,0.9680200913089174,1.2756940200295248,-0.11894409358501434,0.9899125099182129,0.9355615399484539,1.5173685189111745,0.24102210998535156,0.5220194458961487,0.9272847845994839,1.5523531668225217,-0.06992073357105255,0.9884372353553772,0.9635793188264871,1.0609830757320062,0.11950615793466568,0.24617786705493927,0.9775928394425136,1.051138982727236,-0.402122437953949,0.9752155542373657,0.001600116491317749,0.8782097280083428,1.0009002902853326,158.96277849226445,151.802769239949,1.0,0.024761469838877944,-0.043819807764990434,-0.1427785678219941,0.0495050553022228,136.3898260325661,0.929050608356651,58,1.9333333333333333
0.9904852090392007,0.5105010435450482,-0.10832854360342026,0.9996680021286011,0.9259411112025253,0.6342976464999462,0.12780031561851501,0.9999681711196899,0.9218897903520015,0.6344981701237397,-0.27464646100997925,0.9999929070472717,0.8866722070329695,0.9821878567522914,0.12515181303024292,0.999983012676239,0.8718988686414202,0.9919288324953219,-0.12518760561943054,0.9999925494194031,0.9549092074174155,1.2410133182983385,0.1466139703989029,0.25807711482048035,0.9602446335840568,1.265708569784761,-0.11691030114889145,0.9906852841377258,0.9336040568091962,1.510501043545048,0.22454912960529327,0.5599648356437683,0.9221804422485941,1.545189378563726,-0.0810268372297287,0.9894809722900391,1.079768653659043,0.9708326370343828,0.131886288523674,0.315701425075531,0.9724324269689977,1.036948664119369,-0.4415827691555023,0.9776897430419922,0.00011411309242248535,0.8792855378371949,0.9870583446238066,160.71026797999008,154.35992901763507,1.0,0.03718635635338805,-0.06197212254015552,0.08688681492206661,-0.12719735800956136,129.83946752452133,0.9012656560828086,59,1.9666666666666666
0.9884538601516656,0.5120888278562418,-0.08680916577577591,0.999697744846344,0.9274933304039339,0.6331457354738694,0.13905075192451477,0.9999694228172302,0.9176658029862587,0.6283614688214096,-0.2549782395362854,0.9999935626983643,0.901665163463579,0.9830191746270425,0.12140101194381714,0.9999834895133972,0.8807803056769634,0.9894748543380755,-0.12142298370599747,0.9999929070472717,0.9611503068456848,1.2391972502620194,0.1342766433954239,0.26021796464920044,0.9578676193291539,1.2652514084245483,-0.12006266415119171,0.9898189902305603,0.9370362995650376,1.5120888278562417,0.20323283970355988,0.563203752040863,0.9232266328926609,1.5465471982981824,-0.0967026874423027,0.9894780516624451,1.046180944791036,1.0028425965899004,0.11588333547115326,0.3025999963283539,0.9721654144688968,1.0288855442467397,-0.40933161973953247,0.9798853993415833,0.0027217864990234375,0.8912227345702712,0.9862470144825589,161.8776361094608,157.36231763158256,1.0,0.09271932012110577,-0.008815469395554205,0.44107199695243277,0.4224323699356424,111.39880479872213,0.8889916683108756,60,2.0
0.9652236815477198,0.4827045802248372,-0.13623389601707458,0.9997223615646362,0.9091227839006983,0.6075462080990092,0.11381617933511734,0.9999703168869019,0.8934376979089924,0.6047712136744167,-0.29443925619125366,0.9999940991401672,0.8945077447968469,0.9621228152760054,0.12165842205286026,0.999984085559845,0.8694032883889334,0.9691327058922364,-0.1216372698545456,0.9999933242797852,0.9432053023960824,1.2160843072473415,0.21511025726795197,0.2545693814754486,0.9353497676609729,1.240332027774798,-0.11028236150741577,0.9881864190101624,0.9184216854619819,1.482704580224837,0.3568539023399353,0.5507340431213379,0.907451727857673,1.5167460181217818,-0.03880926966667175,0.9879639744758606,1.0019234449696883,0.9806502678737448,0.11415539681911469,0.2849353551864624,0.9529718038691043,1.0000359968743826,-0.44408807158470154,0.9818234443664551,0.0016105175018310547,0.8819555165928902,0.9656277605841209,163.8345405058427,160.56960773019446,1.0,0.06633064584476536,-0.009049823338773258,-0.19537023102129744,-0.0032498342962272147,107.96156889132722,0.9159851583319885,61,2.033333333333333
0.9570303057823303,0.475468302023163,-0.10547046363353729,0.9997451305389404,0.8994671718573213,0.5946315899393836,0.1390620768070221,0.9999703764915466,0.8854360120801763,0.597856660051099,-0.2886478304862976,0.9999945759773254,0.8888636110093115,0.9491572655633382,0.12605443596839905,0.9999840259552002,0.8758158422892708,0.95126195481895,-0.1260686218738556,0.9999935030937195,0.9334927266723776,1.2078606662892313,0.19890663027763367,0.23814669251441956,0.9274977921352057,1.230658255859945,-0.13285911083221436,0.9823307991027832,0.9102072128696616,1.475468302023163,0.31387341022491455,0.517099916934967,0.9018123067497188,1.5052259722670063,-0.09237910807132721,0.9811901450157166,0.962786425513657,0.9791350979841451,0.14941570162773132,0.26464349031448364,0.9466066459724413,0.9857095890667871,-0.4329592287540436,0.9835014343261719,0.0018859505653381348,0.8823397266492912,0.9502096101911441,165.23920999620557,164.1756457154926,1.0,0.053764444870394175,-0.06216776809729751,-0.09220239313489413,-0.4064244785825002,100.87640488364768,0.8888821097752985,62,2.066666666666667
0.9554178740059844,0.47814817805970783,-0.15057018399238586,0.9997658133506775,0.8943917661090064,0.5879101588630127,0.10560637712478638,0.9999706745147705,0.8838268332794925,0.5919288958718785,-0.3160698711872101,0.9999949932098389,0.8921848028610678,0.9446170817303456,0.12882192432880402,0.9999826550483704,0.882583600090061,0.9464087161741048,-0.12887528538703918,0.9999932050704956,0.9335524898926121,1.2080589287637171,0.2009732723236084,0.2201773077249527,0.926591832023207,1.229177271674188,-0.10394033044576645,0.9661763310432434,0.9104078767469711,1.4781481780597079,0.3159347176551819,0.48025059700012207,0.9042234238511514,1.5048688201358094,-0.03173027187585831,0.9642331004142761,0.9617032784157098,0.9761624923725523,0.11215980350971222,0.2557879090309143,0.94878790882304,0.9886164421668151,-0.4495481848716736,0.9850644469261169,0.0023490488529205322,0.8873842014755644,0.9455128989522252,166.1779935925989,166.51526209491465,1.0,0.031686967157574526,-0.03473646383826827,-0.1502468456518039,0.18666827412041984,100.92460792484998,0.8644294908280292,63,2.1
0.9430716959172715,0.4665567231337084,-0.18670114874839783,0.9997801780700684,0.8807266106784908,0.5805261345375391,0.07954858243465424,0.9999696016311646,0.8768842187561333,0.5831842442102094,-0.34672871232032776,0.999995231628418,0.8866674463410676,0.9358578529466633,0.1323319673538208,0.9999803304672241,0.876900102261447,0.9393714461921471,-0.13238409161567688,0.9999925494194031,0.9247271577994891,1.1960153040102917,0.22454635798931122,0.20584864914417267,0.9153717731697851,1.2197057039387451,-0.07285203784704208,0.9526569843292236,0.9031905409577936,1.4665567231337084,0.3569079339504242,0.4510526657104492,0.8971063490720997,1.4921689260362825,0.02197609469294548,0.9513651728630066,0.9382353203025191,0.9613894242967856,0.08931396901607513,0.24580833315849304,0.9416387406990442,0.9762132873514285,-0.4601406455039978,0.9864527583122253,0.0015660524368286133,0.8817837743012573,0.9376146495694052,167.12549312758497,168.35056261137996,1.0,0.010865127817758651,-0.0036006366420617826,-0.16170118208316334,0.2425811928166886,108.82726428122004,0.87633705540044,64,2.1333333333333333
0.948231753236193,0.4755056142028809,-0.18304672837257385,0.9997924566268921,0.8832369489093413,0.5836964026803209,0.08154568076133728,0.9999690055847168,0.8809998699491071,0.5863246523301888,-0.35047417879104614,0.9999955296516418,0.8994693363663272,0.939059474996507,0.13573728501796722,0.999978244304657,0.8864284130915184,0.9428800699169888,-0.13580118119716644,0.9999920725822449,0.9305516524734738,1.2016473452438912,0.2148541510105133,0.19057771563529968,0.9204359835296015,1.2263891840413557,-0.08829901367425919,0.9346299171447754,0.9084150053789151,1.4755056142028808,0.3379446566104889,0.41825416684150696,0.9027157731372882,1.501308220361694,-0.006166581530123949,0.9318035244941711,0.9402901483776342,0.9703681967285711,0.0935487300157547,0.2323448807001114,0.9497647758556318,0.9810914145795958,-0.4592980444431305,0.9876970648765564,0.0015388429164886475,0.8929488747289228,0.9409697724567478,168.6280426161502,169.47195965909128,1.0,0.04354103227035364,-0.019286852715443323,0.25109903900320063,-0.12061896506287176,103.71362696105204,0.8560064430653076,65,2.1666666666666665
0.9479555781811928,0.4751828351963318,-0.16556794941425323,0.9998087286949158,0.8805122187100867,0.5786216049276437,0.09339562058448792,0.9999693036079407,0.8796308851630844,0.5859764765138515,-0.3389083743095398,0.9999958276748657,0.9015631623563911,0.9390841731097607,0.13838455080986023,0.999977171421051,0.8889826379023141,0.9430665252485099,-0.13846555352210999,0.9999918341636658,0.9333200010961911,1.2008309658085168,0.22473743557929993,0.1819705218076706,0.9220525627694187,1.22409813069878,-0.09031715989112854,0.9273449778556824,0.9088542592575425,1.4751828351963319,0.3513088822364807,0.40005913376808167,0.9033059635341241,1.5010837112017381,-0.01638353429734707,0.9251185655593872,0.941367530963068,0.9695246656744575,0.09928271174430847,0.2273489087820053,0.9509647041756221,0.9789952064053419,-0.47386807203292847,0.9888292551040649,0.004303097724914551,0.8952729001293526,0.9410753491791353,167.98635322687252,169.4167604643407,1.0,0.012119422519084606,-0.00431086076735822,-0.22927765763232624,0.1092691231002018,104.22286382574465,0.856890572789194,66,2.2
0.9567345433934327,0.48093625087474273,-0.18772241473197937,0.9998201131820679,0.887753334817605,0.5798703769208676,0.06895403563976288,0.9999695420265198,0.884526457622202,0.5895500317870948,-0.357357919216156,0.9999960660934448,0.9166200368552434,0.94779436836624,0.138367161154747,0.9999768733978271,0.8992171486531314,0.9518013877957193,-0.13845162093639374,0.9999918341636658,0.9438854321854835,1.209047017911965,0.2533913552761078,0.17215420305728912,0.9307418656061064,1.2355105775432644,-0.07384051382541656,0.9196232557296753,0.9167720967345526,1.4809362508747428,0.4026685357093811,0.3823022246360779,0.911606070530595,1.5137101412784328,0.01434190385043621,0.9184550046920776,0.9505211649308382,0.9736935894731793,0.1023872122168541,0.22054296731948853,0.9611444855186612,0.9886940549573603,-0.47602230310440063,0.9898547530174255,0.005611687898635864,0.9079185927541874,0.9497978780809796,168.34712537352317,169.72465528078502,1.0,0.032921526833366715,0.0005591343955227235,0.15414267814383725,0.03657578390781547,98.48024074401144,0.8608983452139846,67,2.2333333333333334
0.952597816176751,0.4728669007043906,-0.20345623791217804,0.999830961227417,0.8846825559498833,0.5801949222565371,0.06027362868189812,0.999969482421875,0.8787652347785277,0.5882450420518143,-0.36787649989128113,0.9999963045120239,0.9135339363655881,0.9426308695911403,0.13812775909900665,0.9999749660491943,0.8960757354877291,0.9459810942760555,-0.13820724189281464,0.9999913573265076,0.9394244555347516,1.2041364235729675,0.24892528355121613,0.16012705862522125,0.924934485558419,1.2297781145300681,-0.06330834329128265,0.9046832323074341,0.9124742413925373,1.4728669007043906,0.39538419246673584,0.3587031066417694,0.9088163336119984,1.5047208013885658,0.039615340530872345,0.9029719233512878,0.9583280299965429,0.9591075757238448,0.09393174946308136,0.2110426276922226,0.9571963785310691,0.9833696058539626,-0.47343865036964417,0.99079430103302,0.004687786102294922,0.9048048359266586,0.9443059819335978,168.6189397910131,170.83861606245992,1.0,0.007129660271942194,-0.009936901751467463,-0.19964935196459366,-0.08169116579189974,96.3116061964907,0.8702245039279543,68,2.2666666666666666
0.9520620093666283,0.4758144139011902,-0.19481012225151062,0.9998394846916199,0.8775297575172871,0.5820978796511063,0.06541799753904343,0.9999679327011108,0.8800059890632935,0.5913749797138428,-0.36709731817245483,0.9999964833259583,0.9115964519927608,0.9445566054932735,0.13895398378372192,0.9999731779098511,0.9035509043459935,0.946893981017028,-0.1390528380870819,0.9999909996986389,0.9362817505601286,1.206473315979749,0.2570130228996277,0.15009821951389313,0.925139221365368,1.2318631499037418,-0.059886496514081955,0.8929866552352905,0.9140502245514164,1.4758144139011902,0.4060084819793701,0.3408496081829071,0.9120069694647506,1.5072747377669664,0.0556698739528656,0.8908780813217163,0.9510439711591735,0.9661559981776429,0.09960611164569855,0.1990966647863388,0.9608395764276007,0.9839674108812768,-0.46697402000427246,0.9916369915008545,0.005391955375671387,0.9075736781693772,0.9457252932551508,169.8973329930461,172.93781164922095,1.0,0.00802553375087601,-0.003025180140216763,0.006840382672603149,0.05373888132063506,100.83019583073204,0.8647313896640189,69,2.3
0.9417924421048937,0.4630072823985092,-0.21705421805381775,0.9998492002487183,0.8703414636875799,0.5762449294968296,0.049810878932476044,0.9999681711196899,0.8725103381166277,0.5871536994803156,-0.38239651918411255,0.9999966621398926,0.9069423260387267,0.9370367685714133,0.13936790823936462,0.9999719858169556,0.8983946066556132,0.9387693044092427,-0.13945992290973663,0.9999907612800598,0.9242002345485246,1.1939132343407322,0.2751834988594055,0.14117783308029175,0.9157538425696671,1.2203977354952897,-0.061129339039325714,0.8877424597740173,0.9076662676137116,1.4630072823985092,0.4357450604438782,0.32738247513771057,0.9059990452232038,1.4947829866608475,0.044017158448696136,0.8864966630935669,0.9476821483444389,0.9533595350130182,0.09589751064777374,0.19513027369976044,0.9544795283799391,0.9759319437948283,-0.498678982257843,0.9923971891403198,0.006391286849975586,0.90266846634717,0.937903036490328,172.64042511273811,174.43672859376758,1.0,0.018211004885696214,-0.0021661348207285217,0.07993881719451512,0.0065117232521612455,95.6654376499031,0.8807688934273542,70,2.3333333333333335
0.9279968377674949,0.4489950815142249,-0.20490357279777527,0.9998597502708435,0.8607325439263424,0.5674513868923711,0.061878740787506104,0.9999679327011108,0.8632453750159771,0.5798821885149886,-0.3714555501937866,0.9999968409538269,0.8983468807362218,0.9279507252328746,0.1396872103214264,0.9999704360961914,0.8921757550059158,0.9303849233759188,-0.13978911936283112,0.9999904632568359,0.9128431312485065,1.1818137197577159,0.2861141562461853,0.13391703367233276,0.9028640968459882,1.2088186497212834,-0.03354950621724129,0.8840229511260986,0.8981539732769808,1.448995081514225,0.4539148807525635,0.32129430770874023,0.8965730583891915,1.479338136118262,0.0895492359995842,0.8859144449234009,0.9458812520680793,0.9357485763384201,0.10297539085149765,0.18907976150512695,0.9468428695749749,0.9652701633224423,-0.49111056327819824,0.993090033531189,0.007359117269515991,0.8952613178710689,0.9291678243043967,173.5849556585539,176.46944835869414,1.0,0.01448461626054511,0.007239091092875711,-0.026600006544137477,0.07054194073463535,105.57007425882718,0.8995947120591922,71,2.3666666666666667
0.9297313160363169,0.45087675830347385,-0.19897322356700897,0.9998691082000732,0.8591182197737854,0.5699063650500004,0.06455495208501816,0.9999666213989258,0.8654007681988205,0.5817417295146813,-0.37156015634536743,0.9999970197677612,0.9002088062613228,0.9306676050069115,0.14112265408039093,0.9999678730964661,0.8992947114048895,0.9326446970493328,-0.14123724400997162,0.9999900460243225,0.9124103231684964,1.1840896852047378,0.2791779935359955,0.12417515367269516,0.9055546621864148,1.210654425738393,-0.04405096918344498,0.8740925192832947,0.8988197573618381,1.4508767583034738,0.43450838327407837,0.30125296115875244,0.8983132271472755,1.4814772967326835,0.06425567716360092,0.8743724226951599,0.9469667606822794,0.9418146997267501,0.10638408362865448,0.17868559062480927,0.9503410730934903,0.9675096327499577,-0.46500372886657715,0.9937199950218201,0.006992727518081665,0.8997517588331061,0.9316561510281222,174.32728883816574,177.17844149908555,1.0,0.020120668352237272,0.004770127953411801,0.04159312385428529,-0.018420645536402373,148.68889757350948,0.9012005003459745,72,2.4
0.9298300302017775,0.4530404515097277,-0.19660905003547668,0.9998776912689209,0.857358695976671,0.5719959223130008,0.06731025129556656,0.9999655485153198,0.8667242828624854,0.5833231168897034,-0.3637767434120178,0.9999971985816956,0.9014444308561955,0.9325940517718344,0.14138281345367432,0.9999656677246094,0.9032137319913397,0.934245857490992,-0.1415024697780609,0.9999896883964539,0.9118608086462886,1.1861399659344116,0.267993301153183,0.11512840539216995,0.9070764316773501,1.212262641958684,-0.052653878927230835,0.863751232624054,0.898377123612199,1.4530404515097277,0.41404834389686584,0.2836501896381378,0.8995814768830295,1.4838665811768808,0.047193996608257294,0.863574206829071,0.9477458080125913,0.9453358891364577,0.1123516708612442,0.16937966644763947,0.9532495034353771,0.9695678285225628,-0.4467582106590271,0.994295597076416,0.006682842969894409,0.9023290814237677,0.9334199546314131,174.75535485076793,177.62331196688817,1.0,0.00961049989415398,0.003153409702298806,-0.07917272749192225,-0.012196834861710575,140.0032254571834,0.8992989066946588,73,2.433333333333333
0.9312935835736151,0.4554787029142167,-0.1608826071023941,0.9998831748962402,0.8590426841792658,0.5726291845615963,0.07697467505931854,0.9999648332595825,0.8676698715812623,0.583897238310958,-0.33761486411094666,0.9999973177909851,0.9036786146662186,0.9339372816238765,0.13771872222423553,0.9999610781669617,0.9053660061955636,0.9353854953907462,-0.13786959648132324,0.9999886155128479,0.9101707992167914,1.1875790790958332,0.2416599690914154,0.1070590391755104,0.9077554577786524,1.2131160837387136,-0.05610130354762077,0.8487576246261597,0.897291203122802,1.4554787029142167,0.35191088914871216,0.2690783739089966,0.8999943669338817,1.485420320279756,0.012029374949634075,0.8538017272949219,0.9518343518530411,0.9410922869166325,0.11564712226390839,0.16336272656917572,0.9549365835079803,0.9702073504332455,-0.4373210072517395,0.9948146939277649,0.006641089916229248,0.9045223104308912,0.9346613885073113,175.78134023865167,177.87449251366965,1.0,0.007849426557189027,0.001724871983855797,-0.011023911767106265,-0.008912461411383268,137.68066360150388,0.8956889965450983,74,2.466666666666667
0.9324788546592633,0.45718344344823425,-0.16356037557125092,0.9998854994773865,0.8608274388760061,0.5735156657122971,0.07375193387269974,0.9999634623527527,0.8686643441107862,0.5846416437184703,-0.33965715765953064,0.9999974370002747,0.906064640422919,0.9349637788988348,0.1360039860010147,0.9999570846557617,0.9070063566605242,0.93644999601165,-0.1361449956893921,0.999987781047821,0.9089390867609861,1.1914532494524623,0.24251008033752441,0.09825292974710464,0.9066177456064377,1.2147109984925253,-0.05790387839078903,0.8269633650779724,0.896659220397029,1.4571834434482343,0.36590123176574707,0.24998433887958527,0.9007400919871417,1.4868475555463776,0.015106667764484882,0.8335742354393005,0.9583707367676874,0.9439218761198254,0.11418459564447403,0.1538352519273758,0.9566227462279725,0.9713400612950679,-0.43915843963623047,0.9952713847160339,0.006551206111907959,0.9065354985417216,0.9357068874552424,176.71206220800448,178.84272549308778,1.0,0.008814232092247805,0.0012743929724750563,0.0072481172125907645,-0.0034225235088493015,154.77408887232983,0.8934660427837597,75,2.5
0.9308179748414303,0.4555922707907008,-0.16858701407909393,0.9998841285705566,0.8597595454110043,0.5724815966876665,0.07197989523410797,0.9999615550041199,0.8673034585253019,0.583966413475028,-0.34066295623779297,0.9999974966049194,0.9061545251757475,0.9334887943198201,0.13524454832077026,0.9999500513076782,0.9068318293132946,0.9349679909884093,-0.13537918031215668,0.9999861717224121,0.9066577289061645,1.1893721351237416,0.2443128377199173,0.08968736976385117,0.904403719746644,1.212075515319017,-0.05586572363972664,0.7950618863105774,0.8925392266506396,1.4555922707907007,0.36875009536743164,0.23018521070480347,0.8981835962050759,1.484179294924675,0.0210714191198349,0.8061294555664062,0.9638944250281006,0.937021628060095,0.1055305153131485,0.14484946429729462,0.9555555914826402,0.9697015779579791,-0.4420550763607025,0.9956750869750977,0.006774693727493286,0.906493177244521,0.9342283926541147,176.85159204340027,179.19251419309632,1.0,0.011895543359552395,0.0015413847659831907,0.023176727477873565,0.002015113789775782,162.7208454281363,0.8945062042106796,76,2.533333333333333
0.9298783530172695,0.45459017565958976,-0.1760973185300827,0.9998831152915955,0.8592088976240319,0.5714658294093415,0.06902512907981873,0.9999595880508423,0.8666772227340137,0.5829123651407294,-0.35095909237861633,0.9999975562095642,0.9060107044983737,0.9323065177086779,0.13530373573303223,0.9999464154243469,0.9063431348117985,0.9324704614769749,-0.13543328642845154,0.9999855160713196,0.9059767850980364,1.1882418196829536,0.2487223893404007,0.08219363540410995,0.9036363464747623,1.2105848113468067,-0.0575111098587513,0.7741497755050659,0.8908633703840529,1.4545901756595898,0.36976590752601624,0.21324875950813293,0.8971830796099936,1.4827920370775387,0.01652309112250805,0.7862206697463989,0.9620553460634391,0.936680707043843,0.09882627427577972,0.13562187552452087,0.9548980497404788,0.9690332531768774,-0.4421811103820801,0.9960474967956543,0.0067584216594696045,0.9061769196550862,0.9323884895928264,176.75993949918214,179.19955467949558,1.0,0.004054731776040342,-0.007403940223049664,-0.059901738590974356,-0.06842584919704585,123.64113783308362,0.8917754538978322,77,2.566666666666667
0.9287242600541364,0.4526826463676943,-0.19234469532966614,0.9998860359191895,0.858420625840511,0.5707113540588526,0.06125627085566521,0.9999591708183289,0.8656220213982222,0.5817070620242775,-0.36196985840797424,0.999997615814209,0.9054524974497662,0.9302619866534445,0.13537751138210297,0.9999446868896484,0.9053351491404765,0.9289268975985283,-0.13550475239753723,0.9999852180480957,0.9049357213042176,1.1865048234540558,0.25066453218460083,0.07609766721725464,0.9024124302103947,1.2084483524030216,-0.06126071885228157,0.7654719948768616,0.8892281863581885,1.4526826463676943,0.37324240803718567,0.20110459625720978,0.8952399684712111,1.480751071521627,0.01180446520447731,0.7789942622184753,0.962471375556579,0.9350439302569963,0.08511240780353546,0.12961779534816742,0.9538872055914654,0.9678313906424906,-0.44551658630371094,0.9963900446891785,0.006500989198684692,0.9053938232951214,0.9295944421259864,176.73836120737124,179.09024790487263,1.0,0.003488754337872998,-0.012291769322668756,-0.004477115875070567,-0.039120884463906325,2.42926570310711,0.8886938102782512,78,2.6
0.9297531572032856,0.4547259266450363,-0.19188407063484192,0.999890148639679,0.8591257147848094,0.5718388976244538,0.0631406232714653,0.9999594688415527,0.8669806087949039,0.5824353400700257,-0.3596053719520569,0.9999977350234985,0.9057710921594511,0.931337820032538,0.1353912055492401,0.9999442100524902,0.9062524550643439,0.9300537819608696,-0.13552157580852509,0.9999852180480957,0.9060898815549556,1.1894513709180212,0.2532235085964203,0.07106659561395645,0.903449146859937,1.209839461434632,-0.05767301470041275,0.7596867680549622,0.8892007039604511,1.4547259266450363,0.3815460205078125,0.19152027368545532,0.8953690113396284,1.4824600994806578,0.01892770826816559,0.7752518653869629,0.9635883273431235,0.9380349202045116,0.09037692844867706,0.12400142103433609,0.9555601628701985,0.9694356252043838,-0.4321569800376892,0.9967045187950134,0.006258726119995117,0.9060117736118974,0.9306958009967038,176.28631436476823,178.8763765376728,1.0,-0.0020396978734109855,0.0013101306145772943,-0.0403360699937617,0.09926745791055232,27.943010533967644,0.8856803912972901,79,2.6333333333333333
0.9303156625231933,0.45506449715868613,-0.18907339870929718,0.9998934268951416,0.8593651553489716,0.5744714740483647,0.06222265958786011,0.9999595880508423,0.8700526245473857,0.582734623828127,-0.35883811116218567,0.9999977946281433,0.9055698550705918,0.931171648938811,0.1344602406024933,0.9999436140060425,0.9074069514613423,0.9301624870688837,-0.13459765911102295,0.9999851584434509,0.9060996120766031,1.189469459962681,0.25297629833221436,0.06705724447965622,0.9034907858607149,1.2097480536223069,-0.05836907774209976,0.7570658326148987,0.8891915847544611,1.4550644971586861,0.3762940466403961,0.1856486201286316,0.8950332404862705,1.4821453725876883,0.016090037301182747,0.7758132815361023,0.9624405309920966,0.9420876704455327,0.08973652869462967,0.118575319647789,0.9561956544991405,0.9702053560148711,-0.4300077557563782,0.9969789385795593,0.004880994558334351,0.906488403265967,0.9306670680038474,176.2399019578748,179.0241113526987,1.0,0.00409775128392288,0.0003716738858252749,0.04543883874771541,-0.006947273335084365,68.59957237042042,0.8849118724016339,80,2.6666666666666665
0.9307284188682273,0.45546807461578565,-0.19441327452659607,0.999899685382843,0.8596328761233221,0.5752458603560616,0.05703200772404671,0.9999611377716064,0.8707311743411972,0.5829802105564895,-0.35775095224380493,0.9999978542327881,0.9080103012297182,0.931364095379738,0.1324123740196228,0.9999430179595947,0.9086496113319583,0.9302999579613739,-0.13254804909229279,0.9999850392341614,0.9084400742665572,1.1891707893622594,0.2527539134025574,0.06368554383516312,0.9038182477917105,1.2098789257289009,-0.05887218564748764,0.7546100616455078,0.8897628123184782,1.4554680746157855,0.38154539465904236,0.18072818219661713,0.8949422940372271,1.4825683026740704,0.017210546880960464,0.7764052748680115,0.9765381065257775,0.9413581857481488,0.08434777706861496,0.12026271224021912,0.9568102321914943,0.9713425764479733,-0.4500974714756012,0.9972354769706726,0.0045674145221710205,0.9083299562808382,0.930832026670556,175.89250843247794,179.12572004982133,1.0,0.012476794601323572,-0.0006543938597386954,0.06536455794278982,-0.008006132606902685,38.73258869086268,0.8838582525361611,81,2.7
0.9298927920639567,0.45505578606128433,-0.192947119474411,0.9999060034751892,0.8596452202729371,0.5758761422083489,0.0592850036919117,0.9999625086784363,0.8709273684610687,0.5830186658718093,-0.3566877841949463,0.9999979734420776,0.9076630698764949,0.9305777717096851,0.13240018486976624,0.9999436736106873,0.908694824879453,0.9294634319386054,-0.13253264129161835,0.9999852180480957,0.9091087570810893,1.1886238120624784,0.2515498995780945,0.06105050817131996,0.9029950641736083,1.2099361273874585,-0.05922470614314079,0.7559369802474976,0.8922685229114247,1.4550557860612843,0.38166239857673645,0.17745879292488098,0.8942471289188565,1.4812353592281118,0.018150214105844498,0.779403030872345,0.9728601646270381,0.940572747046687,0.08745349943637848,0.11907167732715607,0.9564229723599167,0.970577537769927,-0.4579888880252838,0.9974645376205444,0.004221975803375244,0.908178947377974,0.9300206018241453,176.0623523484486,179.31736386127128,1.0,0.005068980587748653,0.0005821855586320236,-0.051946977884315376,0.008681098945256803,50.5058311063257,0.8832088462162908,82,2.7333333333333334
0.9300366510170944,0.45519381395852565,-0.17326562106609344,0.9999098777770996,0.8587108635486244,0.5763963860035991,0.07952544093132019,0.999962329864502,0.873074399769764,0.5834522059483433,-0.34677654504776,0.9999980926513672,0.9075627184555306,0.930281488604464,0.13309992849826813,0.9999424815177917,0.9097842061201733,0.9285808354286039,-0.1332462728023529,0.9999852180480957,0.9090408195081104,1.1886523021892796,0.24614007771015167,0.05705144628882408,0.9038727094626904,1.2091929455313006,-0.0708162859082222,0.7500600814819336,0.8921242363194981,1.4551938139585257,0.3711593747138977,0.16919121146202087,0.8941872047554155,1.4811906649518625,-0.0007898716139607131,0.7757099866867065,0.9664829645273898,0.940685472640408,0.0958145335316658,0.11339462548494339,0.9568802488066185,0.9706178760883828,-0.4441785216331482,0.9976849555969238,0.004170596599578857,0.908673462287852,0.929431162016534,176.04070394543493,179.16746861924094,1.0,0.0035153673292491203,-0.004656513153440212,-0.011706533192683496,-0.03946996217806503,60.423933733261805,0.880761481263091,83,2.7666666666666666
0.9333475352864561,0.45805994573572023,-0.16796478629112244,0.9999144673347473,0.8604156145920514,0.5791016235767265,0.08103663474321365,0.9999623894691467,0.8781961225631928,0.5861277953137602,-0.3459441065788269,0.999998152256012,0.9105069490055429,0.9336764403765913,0.1345425844192505,0.9999426603317261,0.9146461942645024,0.9319853622054655,-0.13470812141895294,0.99998539686203,0.9123076284728583,1.191584988569283,0.24873998761177063,0.054796040058135986,0.9086255106884034,1.2131294863919313,-0.06824158132076263,0.752593994140625,0.8943390879917258,1.4580599457357202,0.3732135593891144,0.16677974164485931,0.8974339330875485,1.4856950574167085,0.003740651998668909,0.7808671593666077,0.9586935687416699,0.9465915818513208,0.10400668531656265,0.1117621511220932,0.9606621416073036,0.9740626457935063,-0.4368650019168854,0.9978840351104736,0.004138201475143433,0.9125765716350226,0.9328309012910284,175.7423322285315,178.8755466090355,1.0,0.004956521532490654,0.00046517770511197493,0.011101043325227067,0.03993069196394729,75.81870632423745,0.881177947182979,84,2.8
0.9356712022801364,0.459413831088184,-0.15673485398292542,0.9999176859855652,0.862721587216497,0.5805209195457339,0.08930868655443192,0.9999620318412781,0.8826879987468745,0.5875255682434959,-0.3382098078727722,0.9999982118606567,0.9126927040544168,0.936011875473904,0.13505199551582336,0.9999412298202515,0.9175725076935533,0.9343546698097607,-0.13522222638130188,0.9999852776527405,0.9139122491593245,1.1928913333672857,0.2453581541776657,0.05168658494949341,0.9108749011104241,1.2156575956426297,-0.07147033512592316,0.7478033900260925,0.8959333684625088,1.4594138310881841,0.3645278811454773,0.16038061678409576,0.8997464125327155,1.4885511284723456,-0.0044302684254944324,0.7784823179244995,0.9582164023490422,0.9498346040774868,0.1063215509057045,0.10923256725072861,0.9637506678026497,0.9764906075446836,-0.4354119300842285,0.9980695843696594,0.004115372896194458,0.915132605873985,0.9351832726418323,175.86881773886364,179.02870584466407,1.0,0.002330178818755417,0.0003912714974412074,-0.020171043916345065,-0.0005737625018455776,79.24385610693217,0.8833828328757739,85,2.8333333333333335
0.9376696037194988,0.4604171910919745,-0.16173851490020752,0.999920666217804,0.8635792367837706,0.5816778268438794,0.08615592122077942,0.9999618530273438,0.8852482532824788,0.5887500960740386,-0.33869779109954834,0.9999982714653015,0.9095978879571345,0.9374185912312971,0.13612402975559235,0.9999408721923828,0.9194281429223832,0.9363822116020025,-0.1362985074520111,0.9999853372573853,0.9158198256962775,1.1930261634515245,0.2516360580921173,0.04978843405842781,0.9133811717657412,1.2171756184626445,-0.0702732652425766,0.7507554888725281,0.8958586904407043,1.4604171910919745,0.3753874897956848,0.15769349038600922,0.901546476858255,1.4911326203995785,-0.00036027509486302733,0.7824985980987549,0.9565604030189004,0.9518680249739634,0.10798007249832153,0.10755686461925507,0.9660305582542137,0.9785789460200135,-0.4363601803779602,0.998235285282135,0.0041463375091552734,0.9145130154397588,0.9369004014166499,174.33629970977816,178.76010333584338,1.0,-0.018429708193375253,-0.0018726843217989784,-0.14984856608559816,-0.016343728803898012,91.35253223679021,0.8848792555250917,86,2.8666666666666667
0.9410420205285474,0.4631271056157246,-0.15361706912517548,0.9999247789382935,0.8649343685883975,0.5831881691408259,0.08732277154922485,0.9999621510505676,0.8885891947066655,0.5904527935018099,-0.33927929401397705,0.9999983310699463,0.908255193782026,0.9392334219314525,0.1365942507982254,0.9999414086341858,0.9222827167192089,0.9386780672576618,-0.1367766559123993,0.9999855756759644,0.9179128798698103,1.1946495701302993,0.2525562644004822,0.04896010830998421,0.9162136801280446,1.2199854478111638,-0.06493774056434631,0.7557451725006104,0.8967445582098513,1.4631271056157247,0.37531599402427673,0.15989068150520325,0.9040836614746731,1.49529791383112,0.0018086234340444207,0.7898408770561218,0.9536184028246315,0.9558597029520307,0.11207981407642365,0.10866040736436844,0.9688212752531785,0.9813019208063419,-0.4265650808811188,0.9983868598937988,0.0042469799518585205,0.9152689552506175,0.9389557445945572,173.32638400475892,178.71316130587493,1.0,-0.01302210610637932,-0.00435584013845031,0.038301718602217795,-0.017380941514508315,94.67003063293224,0.8817003582461311,87,2.9
0.943043298937061,0.4642991166246289,-0.15615466237068176,0.9999280571937561,0.8655688499818496,0.5841380159874947,0.08574263751506805,0.9999619722366333,0.8904476036836894,0.5915673840563441,-0.3404913544654846,0.9999983906745911,0.9075692703935957,0.9401042980666167,0.1367536187171936,0.9999415874481201,0.9239095595870322,0.9398806096011175,-0.13693803548812866,0.9999857544898987,0.919197291388035,1.1953938152897092,0.2545858919620514,0.04799451306462288,0.9181020350339036,1.2214193043350008,-0.056078601628541946,0.7589244246482849,0.8967653217916894,1.4642991166246289,0.37647533416748047,0.1618557870388031,0.905707753369065,1.4977904890932976,0.008789138868451118,0.7962996959686279,0.953422137313667,0.9586270308410216,0.11189969629049301,0.10840094834566116,0.9705807790119343,0.9830333831031657,-0.42505985498428345,0.9985221028327942,0.0043354332447052,0.915739414990314,0.9399924538338671,172.6235236095564,178.61392350961796,1.0,-0.009356611847650452,-0.005236405504596126,0.029045088893760743,-0.006870733956303885,95.94491548908111,0.8803283043768323,88,2.933333333333333
0.9442934347660178,0.4658883301581925,-0.1451544463634491,0.9999305605888367,0.8657736180313227,0.584900167414658,0.09144777059555054,0.9999619126319885,0.8927341383841851,0.5933478625814994,-0.33701178431510925,0.9999984502792358,0.9069786517418171,0.9412052280338192,0.1372235268354416,0.9999425411224365,0.9249665482623967,0.9411423286418569,-0.13741464912891388,0.9999860525131226,0.9203604718129414,1.1961606006595333,0.25613895058631897,0.0491098128259182,0.9200798280218121,1.2225823340256357,-0.05460292100906372,0.768220067024231,0.8979509014505622,1.4658883301581924,0.3736917972564697,0.1717059463262558,0.9069439803696623,1.4989039653106273,0.008519221097230911,0.8070515990257263,0.9517377567867676,0.9610932998442652,0.11479359865188599,0.10863136500120163,0.9718938925099506,0.9846511165051175,-0.41402673721313477,0.9986433386802673,0.004923194646835327,0.9159726000021069,0.9411737783378381,172.2461273414714,178.27305015832962,1.0,-0.006799719770123437,-0.00039973135922081034,0.017947260807219947,0.03383472968744099,96.39633967624256,0.8794506544236456,89,2.966666666666667
