nose_x,nose_y,nose_z,nose_visibility,left_shoulder_x,left_shoulder_y,left_shoulder_z,left_shoulder_visibility,right_shoulder_x,right_shoulder_y,right_shoulder_z,right_shoulder_visibility,left_hip_x,left_hip_y,left_hip_z,left_hip_visibility,right_hip_x,right_hip_y,right_hip_z,right_hip_visibility,left_knee_x,left_knee_y,left_knee_z,left_knee_visibility,right_knee_x,right_knee_y,right_knee_z,right_knee_visibility,left_ankle_x,left_ankle_y,left_ankle_z,left_ankle_visibility,right_ankle_x,right_ankle_y,right_ankle_z,right_ankle_visibility,left_wrist_x,left_wrist_y,left_wrist_z,left_wrist_visibility,right_wrist_x,right_wrist_y,right_wrist_z,right_wrist_visibility,trunk_lateral_inclination,center_mass_x,center_mass_y,left_knee_angle,right_knee_angle,person_height,center_mass_velocity_x,center_mass_velocity_y,center_mass_acceleration_x,center_mass_acceleration_y,body_orientation,torso_leg_ratio,frame,timestamp
0.9060423613887812,0.5330101119028102,-0.47990936040878296,0.9999368786811829,0.9698084597794814,0.6718346718889567,-0.21205508708953857,0.9999653100967407,0.8193398770544593,0.6748999098338744,-0.2196626216173172,0.9999979734420776,0.9550405337240218,1.0245767429285078,0.0064497352577745914,0.9999478459358215,0.860165209005922,1.023984322483437,-0.00664545688778162,0.999987006187439,0.9658985070217404,1.297092920126542,0.027290159836411476,0.1435045301914215,0.863164961313847,1.3073291957426685,0.028062094002962112,0.7898736000061035,0.973374959501209,1.5369510053764206,0.23886089026927948,0.2541600465774536,0.8656941707635852,1.5330101119028101,0.23970389366149902,0.8257590532302856,1.023835718328365,1.0389836939654902,-0.2422558069229126,0.19627100229263306,0.7784864323020186,1.0466899283922044,-0.3126864731311798,0.9981687068939209,0.0016474723815917969,0.9076028713649719,1.0242805327059725,179.50369726250838,179.96447595025165,1.0,-0.5203005102332483,0.02281337714693866,-3.1177703680188786,0.141303052685977,92.03958777707601,0.9616938711373456,0,0.0
0.9154530908629884,0.5565780010947985,-0.4834897518157959,0.9999427199363708,1.0000416357404376,0.6999558138574536,-0.21991708874702454,0.9999682903289795,0.8310298393070585,0.7042357748482297,-0.20325930416584015,0.999997615814209,0.9713510320636667,1.0495873716356774,-0.005296863615512848,0.9999527335166931,0.8687288154029746,1.0491489751217646,0.005115956533700228,0.9999880194664001,0.9835652428928557,1.3286355570245771,0.011166904121637344,0.22868648171424866,0.8786321574351293,1.329946088816362,0.03229896351695061,0.8099764585494995,0.9950665907718499,1.5565780010947985,0.2397892028093338,0.328400582075119,0.8826740619618204,1.562928104732575,0.23684115707874298,0.842870831489563,1.0361802088001142,1.061848955190003,-0.24063611030578613,0.2737906575202942,0.7958195217320104,1.0609111569981529,-0.292095422744751,0.997700035572052,0.002245575189590454,0.9200399237333207,1.049368173378721,179.6177547460981,178.97399109352395,1.0,-0.0740027482445207,0.0007890356523865472,3.501277674249257,-0.17225180107852914,94.44639129695997,0.9649083149200203,1,0.03333333333333333
0.9242882097066983,0.5579595611321057,-0.4570276737213135,0.9999480843544006,1.0078955119935151,0.7127953281804793,-0.18588070571422577,0.9999709725379944,0.8349054104967518,0.7104231695760883,-0.20294800400733948,0.9999974370002747,0.9738261653860645,1.0566783500211214,0.008048673160374165,0.9999569058418274,0.8707208667755083,1.0546890591284295,-0.008228580467402935,0.9999887943267822,0.9877904759730103,1.3320603043761203,0.051846008747816086,0.30436715483665466,0.8782441859137563,1.33248729863339,0.03018699213862419,0.8269619941711426,1.0001697701766203,1.5579595611321055,0.2835744023323059,0.39438724517822266,0.8817964013746018,1.5643924465400907,0.22984018921852112,0.8577159643173218,1.042733790772814,1.066558928632591,-0.20236477255821228,0.3437250852584839,0.8006785098585438,1.068897121784699,-0.310820996761322,0.997458279132843,0.0012384355068206787,0.9222735160807864,1.0556837045747753,179.7662432013131,179.32625905891467,1.0,-0.018984335778866806,0.008790312685626677,0.44749907002092715,0.0646144546082229,94.55265697272472,0.9839630823877212,2,0.06666666666666667
0.9193427769519553,0.5583217962990018,-0.45433393120765686,0.9999529719352722,1.0035819292277548,0.7124986055517651,-0.19110657274723053,0.9999735951423645,0.8311055128602471,0.7129146741329098,-0.18619200587272644,0.9999971389770508,0.9727578540711419,1.054770392448039,0.0007448085816577077,0.9999606013298035,0.8696022597557366,1.052881182293731,-0.0009340892429463565,0.9999892711639404,0.9853238206644659,1.3242737283216384,0.018140487372875214,0.37309199571609497,0.8796841846227231,1.327141118617396,0.01609034091234207,0.8429538011550903,0.9987841722472622,1.558321796299002,0.2399204671382904,0.4541942775249481,0.8829795572321173,1.5677594105518389,0.2045554667711258,0.8713435530662537,1.0424016579811377,1.0619288925741022,-0.21322572231292725,0.4086591899394989,0.8003746954373996,1.0676563767170097,-0.25568628311157227,0.9972168803215027,0.00021752715110778809,0.9211800569134392,1.053825787370885,179.378046627843,178.6793697069724,1.0,0.0016247033312404065,-0.002620502832161413,0.15209346711765495,-0.08422924031607049,94.09681362661796,0.9723501002231701,3,0.1
0.9188790410689275,0.5611909047601389,-0.44531169533729553,0.9999574422836304,1.0061996194627407,0.7149690920449456,-0.18021109700202942,0.9999759197235107,0.8309218757577227,0.7171897294876439,-0.18452487885951996,0.9999968409538269,0.9743312499821712,1.0558688030762473,0.003257477656006813,0.9999639391899109,0.8690363050802009,1.053842427907587,-0.003458454040810466,0.9999897480010986,0.9851269836289106,1.3238032046143708,0.015113437548279762,0.4349251091480255,0.8794560656326931,1.3285336193543418,0.0065212310291826725,0.8572171330451965,0.9994412320963495,1.5611909047601389,0.22405549883842468,0.5081230401992798,0.8833423951026509,1.5677065926511238,0.19508227705955505,0.8835534453392029,1.0425337962157366,1.0629486217647914,-0.20298278331756592,0.46707892417907715,0.8001045193791595,1.0694524428267016,-0.2789379060268402,0.9970206022262573,0.0011599957942962646,0.9216837775311861,1.054855615491917,178.85663741134871,178.75858072695743,1.0,-0.001986246442011143,0.0009340399512076768,-0.025535444155727085,0.025142701741055457,94.23815993177202,0.9680311977450247,4,0.13333333333333333
0.921596627305083,0.5695511511460005,-0.45892229676246643,0.9999613165855408,1.0139986456295136,0.7206370250342613,-0.19054022431373596,0.9999780058860779,0.8353028290630999,0.7249680358457947,-0.1936061829328537,0.9999964237213135,0.9804656866010584,1.06241520827581,0.0031117459293454885,0.9999668598175049,0.8726504681261218,1.0604771445386205,-0.0033007387537509203,0.9999900460243225,0.9903680276681167,1.3284942230218173,0.009970458224415779,0.4906129240989685,0.8835974730975069,1.3371030667670654,0.0047589996829628944,0.8701341152191162,1.00494864372292,1.5695511511460005,0.21635305881500244,0.5567411780357361,0.886272848684933,1.577694946884144,0.19553814828395844,0.8945991396903992,1.0468280027583583,1.0697631735271107,-0.20840606093406677,0.519673228263855,0.8049129352948122,1.0769729681801037,-0.2663712799549103,0.9967647194862366,0.0022476017475128174,0.9265580773635901,1.0614461764072154,178.66993768318565,178.370899875869,1.0,-0.009344780433814525,-0.002755858736555947,-0.05762588662315129,-0.028995844438243445,94.57371323757202,0.9597820966711171,5,0.16666666666666666
0.9226662968096668,0.5722129582123936,-0.4435722827911377,0.999964714050293,1.014968446574703,0.720866581856615,-0.1782999038696289,0.9999797940254211,0.8371720672406932,0.7300441382509352,-0.1846558153629303,0.9999960660934448,0.9818561545940873,1.064615072958034,0.0036366451531648636,0.999969482421875,0.8742561975266581,1.0626956532498546,-0.003839893266558647,0.9999902844429016,0.992076868868908,1.3299191388624076,0.0048932828940451145,0.5406672954559326,0.8810840876986962,1.3395970381130158,0.0023515145294368267,0.8816936612129211,1.0068348537659664,1.5722129582123936,0.21529355645179749,0.6004238128662109,0.8897242963532924,1.5808704895262655,0.19847926497459412,0.9044791460037231,1.0478993398110104,1.0716502595377497,-0.19496235251426697,0.567053496837616,0.8053780814262822,1.0801603468215077,-0.2683824896812439,0.9966441988945007,0.0047525763511657715,0.9280561760603726,1.0636553631039443,178.72065329473045,179.36159019361463,1.0,-0.0037510616744827726,-0.0004763536109806898,0.04350709135106954,0.017712197818832275,94.48019838705721,0.95749961943736,6,0.2
0.9214549238014674,0.5721483661684935,-0.450735867023468,0.999967634677887,1.0129850826455742,0.7173350755531381,-0.1886601746082306,0.9999814033508301,0.8331355734386948,0.7291977356204455,-0.19150231778621674,0.9999955892562866,0.9812136153143237,1.0627461429055105,0.0020389962010085583,0.999971866607666,0.873271801130165,1.062154128700851,-0.0022303680889308453,0.9999905824661255,0.9902688096522475,1.3274561025378726,0.014592139050364494,0.5857649445533752,0.8827906785718354,1.3398151180824447,0.011583537794649601,0.8919715881347656,1.006116061244134,1.5721483661684934,0.22191493213176727,0.6398276686668396,0.8895143999459756,1.5810742515351701,0.20107683539390564,0.913450300693512,1.0474522508791917,1.0706686182657665,-0.20197708904743195,0.6094503998756409,0.8038180429501358,1.0800467399011016,-0.2877245545387268,0.9963358044624329,0.006146103143692017,0.9272427082222444,1.0624501358031806,178.25367991355108,179.6329133427482,1.0,-0.002634705962352713,-0.005058807369802843,0.008327538915313992,-0.03424205648772572,94.9411308784496,0.9528958769557047,7,0.23333333333333334
0.9236606016542915,0.5753385036270421,-0.44843190908432007,0.9999704957008362,1.0155448782421286,0.7187843416325739,-0.17994734644889832,0.9999828934669495,0.8341133526183754,0.7313966944529117,-0.19062624871730804,0.9999953508377075,0.9837358143570456,1.0649522115412533,0.003738001687452197,0.9999740123748779,0.875200800877391,1.0655458046491084,-0.003933463245630264,0.9999908208847046,0.9927373733181745,1.3296282441343863,0.008578858338296413,0.6264106631278992,0.8839695171122376,1.3426523141502058,0.010544957593083382,0.9014952182769775,1.0088297263393782,1.575338503627042,0.20402224361896515,0.6753485202789307,0.8901235145814439,1.5866445937457196,0.1873292624950409,0.9216318130493164,1.0502192813979383,1.0736815626944625,-0.19233042001724243,0.6478731036186218,0.805099382689719,1.0841806109195158,-0.28537359833717346,0.9962894916534424,0.006512075662612915,0.9294683076172183,1.0652490080951809,178.20073001150482,179.63235937318493,1.0,-0.007225477033055176,-0.006427325114355168,-0.034107947889670365,-0.010057986766456401,95.56347120078806,0.9492620214223814,8,0.26666666666666666
0.9224105642135041,0.5757390004269215,-0.4651145935058594,0.9999731779098511,1.0141429715236092,0.7183033278998219,-0.1977088898420334,0.9999842643737793,0.831799791926235,0.7294703070385755,-0.1979653239250183,0.9999951720237732,0.9820793326505204,1.063861619757018,0.00217427802272141,0.999975860118866,0.8721597925306848,1.0647383026565453,-0.00236315093934536,0.9999909400939941,0.9907809871933931,1.329405409433408,0.012351208366453648,0.6628572940826416,0.8828315611842187,1.3411053194926637,0.007897944189608097,0.9097920060157776,1.0080332991849963,1.5757390004269216,0.2083117514848709,0.70722496509552,0.8882639959829467,1.5851513448834766,0.1848999708890915,0.928827166557312,1.0492226302770975,1.0729274437622338,-0.2142162024974823,0.6824157238006592,0.8031510059763243,1.0826440894673355,-0.28052857518196106,0.9961779713630676,0.00577014684677124,0.9271195625906026,1.0642999612067816,177.87061763413962,179.0638384083835,1.0,-0.012828283890539922,-0.0011309100686697428,-0.043671837460864,0.04120572323986535,95.75814094372184,0.9458129311087121,9,0.3
0.9212647675318881,0.574460038002369,-0.48082250356674194,0.9999756217002869,1.0131756416192281,0.7178447157058648,-0.2075798064470291,0.9999855160713196,0.8311357984402394,0.7283793154466944,-0.199074387550354,0.9999951124191284,0.9798996205814984,1.0628467332884879,0.0032261337619274855,0.9999775886535645,0.8694328076974883,1.063828752220969,-0.0034114487934857607,0.9999911785125732,0.9901581968062079,1.3290487920700271,0.015993807464838028,0.6954787373542786,0.8808534607925281,1.3392846593230616,0.006264327559620142,0.9169938564300537,1.00729067501035,1.574460038002369,0.2177491933107376,0.7357944846153259,0.8892041952116231,1.583975212408136,0.18598084151744843,0.9352229237556458,1.0482157001876258,1.0715108399893003,-0.2138618528842926,0.7133759260177612,0.7999764380009626,1.0823435958480854,-0.28716185688972473,0.9960625767707825,0.005447119474411011,0.9246662141394933,1.0633377427547286,178.21349027826886,179.58044110103415,1.0,-0.013976990377604448,-0.0017906038777509928,-0.008898756117624283,-0.005077637636396323,96.01856181912133,0.9466888808970434,10,0.3333333333333333
0.919853426746219,0.5745499827703244,-0.5014251470565796,0.9999778866767883,1.0121016862032364,0.7193975030223962,-0.22211065888404846,0.9999867081642151,0.8254547424249933,0.7305990395176152,-0.2240632325410843,0.9999950528144836,0.977093059840565,1.0625793343006538,0.0032431171275675297,0.9999792575836182,0.8655570140914545,1.0632919168042927,-0.0034250959288328886,0.9999914169311523,0.989288904204156,1.328905517990893,0.01530880481004715,0.7251749038696289,0.8791378593021232,1.3390317268053415,0.006089556030929089,0.9237532615661621,1.0066206901320633,1.5745499827703244,0.2220459282398224,0.761674165725708,0.8898968985431416,1.5835764888110833,0.1944318562746048,0.9410720467567444,1.0474449946927988,1.071264473791877,-0.22694286704063416,0.7414456009864807,0.7980395625621622,1.0825416710365119,-0.29197221994400024,0.9959121346473694,0.005793243646621704,0.9213250369660098,1.0629356255524733,178.5860124832801,179.6994960728203,1.0,-0.025209967920214883,-0.001355394529386507,-0.09026143370719865,0.0034929678343998006,96.19074842247946,0.9449647558528699,11,0.36666666666666664
0.9201455133918951,0.5753356520099541,-0.5001910924911499,0.9999799132347107,1.0118141499201507,0.7202904244302147,-0.22123686969280243,0.999987781047821,0.8235990822300906,0.7315255302427941,-0.23507118225097656,0.9999951124191284,0.976047156207418,1.0623686931229512,0.004940918646752834,0.9999808073043823,0.8645873967438173,1.063306726114272,-0.0051292721182107925,0.999991774559021,0.9893491309982285,1.329838259410491,0.01517941989004612,0.7518483996391296,0.8804229491404143,1.34076486095412,0.000126669168821536,0.9297669529914856,1.00777376522854,1.575335652009954,0.2067907601594925,0.7850375771522522,0.8919354606992275,1.5852574077806196,0.17918530106544495,0.9463798999786377,1.0463599352250659,1.0725748936375712,-0.22820834815502167,0.7665265202522278,0.7961820707150404,1.0856816227866897,-0.2999536693096161,0.9958966374397278,0.005803316831588745,0.9203172764756177,1.0628377096186115,178.55511132207369,179.42938005033082,1.0,-0.016237171359418726,-0.010746886104842744,0.06753711757667571,-0.0704272653549611,96.45122248588517,0.9405733797069049,12,0.4
0.9196246466995717,0.5762941075476081,-0.5160430073738098,0.9999817609786987,1.0097316575939934,0.7224741345852805,-0.2342962771654129,0.9999887347221375,0.8228144860750216,0.7319493238417734,-0.24795123934745789,0.999995231628418,0.973173031003871,1.0605959541600358,0.003923844080418348,0.9999822378158569,0.862676037033243,1.0606700552728512,-0.004112604074180126,0.9999920725822449,0.9885283513223788,1.32995061368591,0.007223311811685562,0.7757633328437805,0.8805075695383252,1.3411192211303593,0.00014321415801532567,0.9348304271697998,1.0080397976070072,1.576294107547608,0.1922103464603424,0.8058876395225525,0.8922273761482715,1.585582947510269,0.1743559092283249,0.951033890247345,1.0457772320868206,1.0722577610671946,-0.22315140068531036,0.7888462543487549,0.7922709769198695,1.0876773716035186,-0.3078482747077942,0.9958182573318481,0.0048930346965789795,0.917924534018557,1.0606330047164434,178.73416166035148,179.1066229543249,1.0,-0.021036637486600836,-0.019814788038497823,-0.03845731908019318,-0.07269959676390651,96.20942205502978,0.9290977990010141,13,0.43333333333333335
0.91721756267288,0.5773414788968718,-0.48815542459487915,0.9999834299087524,1.0087100617963867,0.7230570584134403,-0.21348528563976288,0.9999896287918091,0.8215014922045525,0.7323131740839851,-0.22525246441364288,0.9999951720237732,0.9718780522037669,1.0613929976416987,0.002547217532992363,0.999983549118042,0.8596832148214293,1.0614112494953305,-0.002739845309406519,0.9999923706054688,0.9886642126779916,1.3312637502591937,0.0025854753330349922,0.7976016998291016,0.8769210509140077,1.3423691945676477,-0.0021452174987643957,0.9402167201042175,1.0086230766964839,1.5773414788968718,0.19093433022499084,0.8248948454856873,0.8928699364823942,1.58670029012361,0.17229364812374115,0.9554600715637207,1.0451489634275595,1.0699229667810488,-0.21160390973091125,0.8095194697380066,0.7925429626108468,1.089366966801842,-0.2883766293525696,0.9957276582717896,0.004775941371917725,0.9157806335125981,1.0614021235685147,178.92226068188566,179.7761883367114,1.0,-0.021006261140700137,-0.000801765692393135,0.000345805882160258,0.1375792300886849,96.22220216608368,0.9276901936112842,14,0.4666666666666667
0.9139217696330741,0.5778608249908892,-0.49460354447364807,0.999984860420227,1.0043834980565185,0.7228742212109504,-0.22037489712238312,0.9999903440475464,0.8203385021453072,0.7320335469562019,-0.23178669810295105,0.9999951720237732,0.9704373961304121,1.0613245526665274,0.002461958909407258,0.9999846816062927,0.8591534887444661,1.0611001992667155,-0.0026580255944281816,0.9999926090240479,0.988146411734815,1.3312721779314236,0.004467082675546408,0.8169890642166138,0.8775969093759561,1.3426032954187255,-0.002519717440009117,0.9443979859352112,1.008959868410146,1.5778608249908892,0.18528735637664795,0.841820478439331,0.893391411828103,1.587082766360599,0.1577550619840622,0.9593019485473633,1.0438736243407958,1.0698662711638933,-0.2110505849123001,0.8273910880088806,0.7895804250618922,1.0898671110450553,-0.2930033504962921,0.9954647421836853,0.004725635051727295,0.9147954424374392,1.0612123759666214,178.92867335142014,179.9479076809858,1.0,-0.008219294437861823,-0.0021150744549071126,0.09954685496290594,-0.010222362515596772,95.61202229246108,0.9250242801236984,15,0.5
0.9088062018905696,0.5775251911385396,-0.4850221574306488,0.9999859929084778,1.003399121983949,0.7234624181298824,-0.21544182300567627,0.9999909400939941,0.8178681405356902,0.7316806968696643,-0.2236642837524414,0.9999949932098389,0.9684722601551281,1.061523599784971,0.0015589848626405,0.9999856948852539,0.8550216847907365,1.061451423008455,-0.0017546474700793624,0.9999927878379822,0.9875947175838218,1.330856957754644,0.007160273380577564,0.8344743251800537,0.8742211115339066,1.3424956650628024,-0.005273711401969194,0.9484432339668274,1.0085811835721037,1.5775251911385395,0.18432147800922394,0.8571972846984863,0.893264751922645,1.5861506046392921,0.1524898111820221,0.9628466367721558,1.0399621447242529,1.0717732794644368,-0.21192507445812225,0.843520998954773,0.7872146635493998,1.088201522179346,-0.2934132218360901,0.995284378528595,0.004241734743118286,0.9117469724729322,1.061487511396713,179.19814254168529,179.43901485217393,1.0,-0.02208714643568505,0.005569748727855455,-0.11351477263111452,0.06288297180864384,95.86214627223922,0.9274589705925279,16,0.5333333333333333
0.9076236938274754,0.5784763057565644,-0.48084384202957153,0.9999869465827942,0.9995107846902646,0.7238485299738546,-0.2166750133037567,0.9999914765357971,0.8155298361255812,0.7317081540660795,-0.2197752743959427,0.9999948143959045,0.9663421831158093,1.0621509112530614,0.0006371099152602255,0.9999865293502808,0.851991050849275,1.062216887148635,-0.0008324841037392616,0.999992847442627,0.9864983969359454,1.3316810473321012,0.007022588513791561,0.8500687479972839,0.8729380510604903,1.3433140651365805,-0.0059405965730547905,0.9517508149147034,1.0089437201346416,1.5784763057565645,0.18197380006313324,0.8709447979927063,0.8935599668895751,1.5872645030270343,0.15360864996910095,0.9658946990966797,1.0371163519004063,1.0739999972269325,-0.2171843945980072,0.8580789566040039,0.7852768838486848,1.0880454681376865,-0.28713011741638184,0.9950985908508301,0.004054456949234009,0.9091666169825422,1.062183899200848,179.08018600846262,179.4298217891875,1.0,-0.022505661058829847,0.0009530153532926986,-0.0029846066256051245,-0.033899924666572344,95.63268205719436,0.9259620573104941,17,0.5666666666666667
0.9078749984811375,0.5810131189220185,-0.4785609245300293,0.9999879002571106,0.9954248967318129,0.7259569846557273,-0.21481716632843018,0.9999918937683105,0.8131438024333045,0.7326274238876285,-0.21914871037006378,0.9999946355819702,0.9660427468672376,1.0647744821835978,0.0016514001181349158,0.9999871850013733,0.8516339778518018,1.0650916785427251,-0.0018457022961229086,0.999992847442627,0.9873878283853131,1.3339444657567379,0.007610396482050419,0.8641838431358337,0.8739442458833039,1.3462221983061644,-0.00587040837854147,0.9547584056854248,1.0103385645852174,1.5810131189220185,0.1827220618724823,0.8833361268043518,0.8945790204869966,1.5896989296214068,0.15357843041419983,0.9686905145645142,1.0361156001937202,1.0767531868629094,-0.21354761719703674,0.8711504340171814,0.7860828216936387,1.089323119633714,-0.29299691319465637,0.9950158596038818,0.0034357011318206787,0.9088383623595196,1.0649330803631616,179.22694857680793,179.69316282788415,1.0,-0.01346232576056062,0.008623012862084034,0.07056616205949585,0.05960934587045736,95.1151242460518,0.9266082221476977,18,0.6
0.9085933311359281,0.5826159187699118,-0.47414103150367737,0.9999889135360718,0.9934613585373506,0.7275554087529819,-0.20314832031726837,0.9999923706054688,0.8120811413579628,0.7331634832961008,-0.21642985939979553,0.9999945163726807,0.9634741334888313,1.068220047945597,0.001885182922706008,0.999987781047821,0.8500887215370438,1.0672172574031964,-0.0020847353152930737,0.999992847442627,0.9884183310389156,1.3361276403974813,0.006448197178542614,0.8769012689590454,0.873246151833284,1.3478960945901264,-0.010720714926719666,0.9574654698371887,1.0110841541892683,1.5826159187699118,0.17946913838386536,0.8944635391235352,0.8952070562074119,1.5913193576279236,0.1508059799671173,0.971127986907959,1.0350045949166964,1.0806566430471674,-0.20491556823253632,0.8832429647445679,0.7858385402974513,1.090415693573528,-0.29368168115615845,0.9950022101402283,0.0028856992721557617,0.9067814275129376,1.0677186526743967,179.9345275324116,179.56141563892348,1.0,-0.023266336991264614,0.013800648447980566,-0.07737857873183429,0.040853037704563534,94.52381601809795,0.9305400245014455,19,0.6333333333333333
0.9094937643524341,0.5856577639868686,-0.46051135659217834,0.9999896883964539,0.9921196269491386,0.7290371846816461,-0.18747147917747498,0.9999926686286926,0.8107949743451374,0.7344931623299287,-0.20999594032764435,0.9999942779541016,0.9622244949176245,1.0729491704420007,0.0038657065015286207,0.9999882578849792,0.8492109733470855,1.0715722071595708,-0.0040614730678498745,0.9999927878379822,0.9896155614839057,1.3401955195019026,0.010829710401594639,0.8883807063102722,0.8735789295024393,1.351753655292068,-0.010762868449091911,0.9601578712463379,1.0126681202246197,1.5856577639868688,0.18769603967666626,0.9045137763023376,0.8967903641583362,1.5943975640573707,0.15237388014793396,0.9733758568763733,1.0347914463481895,1.0829624149371213,-0.19471076130867004,0.8938823342323303,0.7864304417394533,1.0923097500083412,-0.2923932671546936,0.9949827194213867,0.0028021931648254395,0.905717734132355,1.0722606888007857,179.51316821014288,179.50630916487506,1.0,-0.021794087750015217,0.020089073033407276,0.01196800638141937,0.0494470525892107,94.2699840096121,0.9356528776503746,20,0.6666666666666666
0.9087561446310637,0.5868799950758754,-0.4510573744773865,0.9999902844429016,0.9898999119406248,0.7294609854578638,-0.17792433500289917,0.9999929666519165,0.8079147174130229,0.7347336312777145,-0.210103839635849,0.9999940395355225,0.961002036137152,1.0747354952447066,0.007041709963232279,0.9999886155128479,0.8488799503638945,1.073388793609787,-0.007246510591357946,0.9999926686286926,0.990037648068515,1.3411660594257064,0.009649640880525112,0.8986294269561768,0.8749569066509653,1.3530021917580721,-0.011627523228526115,0.9621152877807617,1.0123551977822858,1.5868799950758754,0.18654587864875793,0.9135085344314575,0.8971018216648129,1.5956710673127257,0.14759305119514465,0.9753612279891968,1.035524365561671,1.0837055315398023,-0.19000086188316345,0.9036828279495239,0.7870799795718508,1.093488396805474,-0.2986246943473816,0.9950512647628784,0.0027061104774475098,0.9049409932505232,1.0740621444272467,178.97023377164692,179.88608775855334,1.0,-0.0116271637528049,0.008507495309614916,0.08334710485377383,-0.0949166883508509,94.09609266793771,0.9376277116744907,21,0.7
0.9092916971165222,0.5888843347338814,-0.43739980459213257,0.9999908208847046,0.9891774672813032,0.7302735806879022,-0.16309602558612823,0.9999932050704956,0.8073314531455936,0.7355051420285912,-0.2066904604434967,0.9999938607215881,0.9618975361633821,1.0761487662212703,0.010961098596453667,0.9999889731407166,0.8508241954697592,1.0754240160554311,-0.011170906014740467,0.9999926090240479,0.9913747404858373,1.3429572899715763,0.01045913714915514,0.9078072905540466,0.8753880866793291,1.3546654992526341,-0.02158304676413536,0.9638537168502808,1.012953644709632,1.5888843347338812,0.18202118575572968,0.921650767326355,0.8980637089464728,1.5977100545859082,0.13080331683158875,0.9771524667739868,1.0358103091728628,1.0849840207297383,-0.18772920966148376,0.912311315536499,0.7876204113739149,1.0951294765648028,-0.3097683787345886,0.9951642751693726,0.0026817619800567627,0.9063608658165706,1.0757863911383507,178.71007097184176,179.69700404927772,1.0,0.0024064846617729515,0.003150602264743481,0.10598261303515517,-0.040492794773971115,94.13585942836143,0.9366529478930014,22,0.7333333333333333
0.910082871529281,0.5907845862936891,-0.43891626596450806,0.9999911785125732,0.9895376542352582,0.7300944244400174,-0.16386674344539642,0.9999933242797852,0.8085032286799961,0.7342037170244666,-0.20866970717906952,0.9999936819076538,0.9620427976903027,1.0773620108770119,0.014417370781302452,0.9999892115592957,0.8510737373491611,1.076990767100933,-0.014627245254814625,0.9999924302101135,0.992311330688333,1.3444436774065043,0.019214460626244545,0.9156767129898071,0.8769375194047341,1.356488087428666,-0.025438085198402405,0.9647178053855896,1.0127643132869066,1.5907845862936891,0.17993010580539703,0.9289342164993286,0.8991106330899624,1.5996680109750323,0.12687064707279205,0.9785182476043701,1.0373591843486698,1.085007257821643,-0.18281789124011993,0.919592559337616,0.7886980891713813,1.096443871119155,-0.31486815214157104,0.9952085614204407,0.0021039843559265137,0.9065582675197319,1.0771763889889725,178.28043993251595,179.92290528322064,1.0,-0.006958340617383646,0.0009333653604341749,-0.07451061832981033,-0.01766558465953856,94.3352601604959,0.934674623073784,23,0.7666666666666667
0.9103977238512126,0.5917089973546887,-0.42016395926475525,0.9999916553497314,0.988330392869086,0.7292055481767317,-0.13826337456703186,0.999993622303009,0.8075609708086271,0.7338326589891955,-0.2024867832660675,0.9999936819076538,0.9628948821013027,1.077940065313366,0.019809279590845108,0.9999896287918091,0.8521089750376775,1.0784074878930796,-0.02002505399286747,0.9999924302101135,0.9937012681676604,1.3451896532465253,0.026353511959314346,0.9229451417922974,0.8775404673457048,1.3572361802548263,-0.04188762232661247,0.9659814238548279,1.0078463629852568,1.5917089973546887,0.1882411539554596,0.9354763627052307,0.8996415883329087,1.6005959667010623,0.11032502353191376,0.9798508286476135,1.0382230068119298,1.0841579620422115,-0.14659607410430908,0.9266880750656128,0.7891874662726014,1.0973131180347426,-0.2957853674888611,0.9953404664993286,0.0023678243160247803,0.9075019285694901,1.0781737766032227,176.7084127333274,179.977744296887,1.0,0.00323845326266436,0.0029587933642878975,0.07321804956403442,0.0145345509841318,94.41331087463332,0.9354526020477842,24,0.8
0.9102063018600676,0.5919244097841668,-0.4311797022819519,0.9999922513961792,0.9880800949310189,0.729142204725501,-0.1544763594865799,0.9999939203262329,0.8080821836184582,0.7336187872833766,-0.20318603515625,0.9999938011169434,0.9633561164905136,1.0776737194135577,0.018937626853585243,0.9999900460243225,0.8528771902459344,1.0785504322785036,-0.019150637090206146,0.9999925494194031,0.9936522190964394,1.3442284457911347,0.024559995159506798,0.9293756484985352,0.87709466489468,1.357248785098584,-0.0422159880399704,0.9670156240463257,1.0053792729631992,1.591924409784167,0.18171116709709167,0.9413497447967529,0.8993222366522475,1.6008073306988069,0.10605422407388687,0.9809836149215698,1.0386693162204637,1.0825411882348301,-0.16318753361701965,0.9329849481582642,0.7889319019747416,1.097496679563603,-0.2930986285209656,0.9953356981277466,0.0022905170917510986,0.908116653368224,1.0781120758460305,176.22631582488654,179.7517715949683,1.0,0.0038280969755182625,-0.0014591430742757858,0.004469167147013822,-0.03351049561506429,94.51229117791765,0.9347331461377184,25,0.8333333333333334
0.9113917238922595,0.5934496822409092,-0.41553378105163574,0.999992847442627,0.989595412119009,0.7298546624926503,-0.13624493777751923,0.9999942779541016,0.8095059247691762,0.7327431641931665,-0.19973894953727722,0.9999940395355225,0.9645439681159412,1.0776395605330995,0.020622190088033676,0.9999905228614807,0.8539394926990181,1.079473733460159,-0.02084488235414028,0.9999927282333374,0.994626969396539,1.344363751589087,0.024157974869012833,0.9354490041732788,0.876813133284496,1.3574501614812609,-0.04661506414413452,0.968625545501709,1.003639486489882,1.5934496822409092,0.15886729955673218,0.9468232989311218,0.8994311790158024,1.6023548075182434,0.08854050934314728,0.9822567105293274,1.0394874810118502,1.0830882085010358,-0.1467619091272354,0.9388887286186218,0.7894237134772356,1.0985722193929681,-0.288086473941803,0.9955071806907654,0.0014765262603759766,0.9092417304074797,1.0785566469966292,175.63717229139934,179.42750232338275,1.0,0.0018958021421152606,-0.004512402904724338,-0.014693091499053066,-0.023161942331066332,95.07003992056698,0.930997147709853,26,0.8666666666666667
0.9130001438361648,0.5947794772013839,-0.40316304564476013,0.9999932646751404,0.9913930144211669,0.7308152018299371,-0.11877082288265228,0.9999945163726807,0.8112182163976849,0.7319521674381436,-0.20221400260925293,0.999994158744812,0.9664354250662345,1.078235252311,0.026971224695444107,0.9999909400939941,0.8557222820906922,1.081068176531766,-0.02719665691256523,0.9999929070472717,0.9977884970662503,1.345591117874467,0.03027968667447567,0.9406039118766785,0.8784884576879612,1.3596514387791994,-0.060284603387117386,0.969937264919281,1.0024651871806063,1.594779477201384,0.1595681607723236,0.9516526460647583,0.9001707521568563,1.6047812005490185,0.07858248054981232,0.9833447933197021,1.0413199896821057,1.0848595413279027,-0.13539817929267883,0.9438906311988831,0.7909890000665162,1.1017645830044753,-0.2909923791885376,0.9956277012825012,0.00058022141456604,0.9110788535784633,1.0796517144213829,174.38660355297705,179.6171125568133,1.0,0.0024928404490815164,-0.005383744633926973,0.0045689502331706325,-0.006645761452440474,95.57465713436538,0.9294425596425433,27,0.9
0.9138586626506467,0.5950500657961876,-0.4073883891105652,0.9999936819076538,0.9919470279791665,0.7309663490484978,-0.1295510083436966,0.9999947547912598,0.812831620584022,0.7318247633752722,-0.20237693190574646,0.9999943375587463,0.966844177441923,1.0770213496025678,0.025241831317543983,0.9999912977218628,0.8574480192009089,1.0802982199717235,-0.025466810911893845,0.999993085861206,1.0005818758155156,1.3451661518030527,0.025653263553977013,0.9449934363365173,0.8793701511200598,1.3582517859194698,-0.0607251301407814,0.9708300828933716,1.003012657507638,1.5950500657961877,0.1552194207906723,0.9559324979782104,0.8990103437904107,1.6051628232934685,0.0627031996846199,0.9842719435691833,1.041691948365692,1.0854373733444564,-0.14453455805778503,0.9483659863471985,0.7913935186826766,1.102710340279645,-0.2918127775192261,0.9957572221755981,0.0004379451274871826,0.9121460983214159,1.0786597847871457,173.38612298127038,179.96163272812456,1.0,0.0062589305484637685,-0.01006905876337563,0.029176817323503156,-0.03629323220156498,95.8647061924834,0.9248754430823095,28,0.9333333333333333
0.9160173393830409,0.5964149008449694,-0.40835970640182495,0.9999940395355225,0.9942839373147396,0.7323042484743331,-0.129691481590271,0.9999949932098389,0.8173318663733214,0.7332303089362053,-0.1977868378162384,0.9999945163726807,0.9698319369152557,1.0791303707438187,0.024206029251217842,0.9999916553497314,0.8622974026869628,1.0822824536510223,-0.02442786656320095,0.9999932646751404,1.0036534282384806,1.3473983607810731,0.026878222823143005,0.9494844079017639,0.8821488981584048,1.359531339293356,-0.054317642003297806,0.9723984003067017,1.0038963734889244,1.5964149008449695,0.1700669825077057,0.9599580764770508,0.9010119284361737,1.6077463356538606,0.0826774537563324,0.9853482246398926,1.044050715728416,1.0873286899373482,-0.14052900671958923,0.9528243541717529,0.7932185257988538,1.1048201625590577,-0.2836069166660309,0.9959055185317993,0.00047144293785095215,0.9160646698011092,1.0807064121974204,172.87032829928808,179.74966282192426,1.0,0.015764251944580688,-0.002199388895123299,0.0764600476194686,0.06356718989606866,95.71179433203146,0.926617386957571,29,0.9666666666666667
0.9220932768899451,0.5990943007448414,-0.3847731053829193,0.9999943375587463,0.9985201449725398,0.7367676056284217,-0.09795921295881271,0.999995231628418,0.8243764691941582,0.7363300030276575,-0.1978977471590042,0.9999947547912598,0.9758098924990565,1.0830579140738934,0.032021719962358475,0.9999920129776001,0.8713076288680881,1.0856541406522353,-0.03225001320242882,0.9999935030937195,1.0089819329785608,1.3509062076853127,0.03319748863577843,0.9526275992393494,0.8866785598178069,1.3627523363835028,-0.08279095590114594,0.9736400246620178,1.0041697738214663,1.5990943007448413,0.18212121725082397,0.9632693529129028,0.9032943511411435,1.6138220822442495,0.04508740082383156,0.9861903190612793,1.0484511601112387,1.0917467209047025,-0.10605321824550629,0.9566177129745483,0.7984154965278922,1.1093163036857425,-0.28529536724090576,0.9960704445838928,0.0002218782901763916,0.9235587606835723,1.0843560273630644,171.82929578964198,179.3886914571056,1.0,0.028536622564794535,-0.005474227790090953,0.09581444118846914,-0.02462309267126986,95.17532088451064,0.9278907487014001,30,1.0
0.9362793603776094,0.6035401708733606,-0.38102540373802185,0.9999945759773254,1.004568334355174,0.7415351947290879,-0.09180469810962677,0.9999953508377075,0.8341321113739114,0.7410441908786929,-0.19917096197605133,0.9999948143959045,0.9840151165800068,1.0885246711991887,0.03508814796805382,0.9999923706054688,0.8814427329804105,1.090584829695752,-0.03530155494809151,0.9999937415122986,1.0174911252413998,1.3586867681025592,0.04654928669333458,0.9559444189071655,0.896371875342022,1.3676969016202476,-0.07651188224554062,0.9749616384506226,1.0075422661542426,1.6035401708733608,0.21938152611255646,0.9662991762161255,0.9106965460800077,1.6231571464800363,0.06003345176577568,0.9870544672012329,1.055707946368709,1.0973897031454816,-0.10135364532470703,0.9597530961036682,0.8049394372412348,1.1162898036700055,-0.28621235489845276,0.9961269497871399,0.0002474784851074219,0.9327289247802086,1.0895547504474705,170.60968032511525,179.8743320628977,1.0,0.028512505348658707,-0.009873599811387985,-0.0015127757150637817,-0.033997499171069596,94.54046516422522,0.9267194409675725,31,1.0333333333333334
0.9502994739985053,0.6084347373151158,-0.37994998693466187,0.999994695186615,1.014254604747959,0.7477290633406876,-0.09445624053478241,0.9999954104423523,0.8443638695497222,0.7468694388721422,-0.2045924961566925,0.9999948740005493,0.9959165453871469,1.0947054189000573,0.0346403643488884,0.9999927282333374,0.8927701911031489,1.097343173959529,-0.03485410660505295,0.9999939799308777,1.0267553944057661,1.3677103261018557,0.044697221368551254,0.9594395160675049,0.9045431844485685,1.3730865548392017,-0.08050455152988434,0.9765729308128357,1.0143250481840254,1.6084347373151158,0.20976093411445618,0.9693199396133423,0.9188672194867283,1.631968685449199,0.04766341298818588,0.988050103187561,1.064581493281651,1.1046765621219328,-0.10386291891336441,0.962259829044342,0.8154800940676138,1.1254986167579093,-0.2972206771373749,0.996213972568512,0.0004298686981201172,0.944343368245148,1.0960242964297933,170.59917245799326,179.27781995844612,1.0,0.033105517247744055,-0.01689780703763233,0.03419203043269269,-0.054381966789233675,94.49022849572164,0.9294281857249597,32,1.0666666666666667
0.960030411299759,0.6093158985400356,-0.34472227096557617,0.9999949336051941,1.018046727502794,0.7486422759559871,-0.06376717239618301,0.9999954700469971,0.8524276699140957,0.7468224082984962,-0.1861245185136795,0.9999949932098389,1.0017373281575954,1.0926354593749892,0.035400647670030594,0.9999929666519165,0.8985466602417553,1.0967755642974348,-0.03562667965888977,0.9999940991401672,1.0299065137213115,1.3670048737097906,0.032424964010715485,0.9621105790138245,0.9067113864045806,1.3736192538214356,-0.08388116955757141,0.9774519205093384,1.014809484152595,1.6093158985400355,0.1871984601020813,0.9715939164161682,0.9201587002421994,1.63440372880397,0.034525420516729355,0.9886555075645447,1.0673034124562668,1.1034446126534068,-0.08239982277154922,0.9642925262451172,0.8225854928384003,1.1293074667392076,-0.27479279041290283,0.9963127970695496,0.0009087622165679932,0.9501419941996754,1.0947055118362121,170.5728811235705,178.73745403040786,1.0,0.0358413373110532,-0.0231279177230708,0.021622452936709224,-0.04990774206710459,95.01200121739167,0.9204629173557344,33,1.1
0.9628907897844254,0.6091625413658787,-0.3190583884716034,0.999995231628418,1.0184397156349805,0.7484152054829994,-0.03755297511816025,0.9999955296516418,0.8546538679416067,0.7460080457834698,-0.1819954365491867,0.999995231628418,1.0031515098284647,1.0915058402993965,0.041820697486400604,0.9999931454658508,0.899815425034962,1.0955672771391847,-0.04204987734556198,0.9999942183494568,1.0303250927558711,1.3663095257842288,0.03002139925956726,0.9635782241821289,0.907200631328244,1.3725251924480713,-0.0968327671289444,0.9779103994369507,1.0133826694764416,1.6091625413658786,0.1678086370229721,0.973294734954834,0.919633993345659,1.6341366666217172,0.012941685505211353,0.9889820218086243,1.0675783996096324,1.1015162307708555,-0.061341144144535065,0.9657986164093018,0.8250571344662093,1.1298641863826469,-0.2766560912132263,0.9965016841888428,0.001202315092086792,0.9514834674317134,1.0935365587192905,170.36202161604453,178.80646044938564,1.0,0.011823247725238866,-0.006863891420250835,-0.18119578052752072,0.12270010075526404,94.80217458610129,0.9170584390293421,34,1.1333333333333333
0.9651193208854284,0.608906126109383,-0.2711755037307739,0.9999953508377075,1.0216007083732597,0.7492721412270875,0.0009952681139111519,0.9999954104423523,0.8588474667818818,0.7457738146432051,-0.1476057767868042,0.9999954700469971,1.0051827767387227,1.090969493451806,0.044170401990413666,0.9999933838844299,0.9032685919650022,1.0949411504099116,-0.0443914569914341,0.9999944567680359,1.030851645163018,1.3657396842786202,0.032103877514600754,0.9643771052360535,0.9091916034913363,1.3721904806438534,-0.09109828621149063,0.9784808158874512,1.0119414525636006,1.6089061261093829,0.17350678145885468,0.9745973944664001,0.9201978468478023,1.6331121794179777,0.021482905372977257,0.9893147349357605,1.0682462954562073,1.0955671680016261,-0.048935599625110626,0.9641839265823364,0.8307923237932849,1.1297351079564235,-0.24077466130256653,0.9965951442718506,0.0017480254173278809,0.9542256843518624,1.0929553219308588,170.21621195368465,178.80842293184702,1.0,0.023200160194130636,-0.0010637154052381779,0.08454262742730555,0.04306315357113461,94.98256322862134,0.9166644705452875,35,1.1666666666666667
0.9722889539740023,0.6078697112126177,-0.28484928607940674,0.9999950528144836,1.0328031237197437,0.749211268158213,-0.016425326466560364,0.999995231628418,0.866575365188522,0.7447126957847587,-0.16265986859798431,0.9999957084655762,1.009376179639524,1.0906642280915955,0.04727308079600334,0.999993622303009,0.9099192602612651,1.0941968786056238,-0.04747873917222023,0.999994695186615,1.0309703764286924,1.3643982548296243,0.05564374849200249,0.965575635433197,0.9135196445550657,1.3700946895583788,-0.0884915292263031,0.9794946908950806,1.0099574022497513,1.6078697112126177,0.21635551750659943,0.9761708378791809,0.9199059382908299,1.630910286549067,0.02938530407845974,0.989854633808136,1.069304833788996,1.0947698729926043,-0.06647311896085739,0.9627976417541504,0.8406500224815332,1.1284828116291983,-0.2580750286579132,0.9967563152313232,0.002248525619506836,0.9596477199503946,1.0924305533486096,170.55669064606832,179.34499437066302,1.0,0.044581465504597434,-0.0014280084169364052,0.16669503944110436,-0.002841765023031771,95.95914529932452,0.9198041780586769,36,1.2
0.9719926229307196,0.606656932471461,-0.23619644343852997,0.9999945163726807,1.0375819611538473,0.7443057219783383,0.022212039679288864,0.9999948740005493,0.8720151331579337,0.7426020394194432,-0.1344992071390152,0.9999958872795105,1.0129004671794697,1.0890400310643515,0.05063115432858467,0.9999936819076538,0.9145499394926044,1.0916515031141727,-0.05084711313247681,0.9999948143959045,1.0294519717935307,1.3620202827741648,0.05596577003598213,0.9649282097816467,0.9170003521166161,1.3669169416660139,-0.0856105163693428,0.9802395105361938,1.0082598606341957,1.606656932471461,0.2054435908794403,0.9770464301109314,0.9181453858319606,1.6280937872963277,0.015173058025538921,0.990220308303833,1.0706986598379693,1.0897392646690853,-0.05402275174856186,0.9617614150047302,0.8504425146411708,1.1267300794012256,-0.23398976027965546,0.9968981146812439,0.0008530616760253906,0.9637252033360371,1.0903457670892622,171.57926005543032,179.7411571474963,1.0,0.04228325360799873,-0.0011209636278154626,-0.01625151732054945,0.0022298599755068435,95.61614403738068,0.9178942136472139,37,1.2333333333333334
0.9780306966574764,0.6052459966496975,-0.24073895812034607,0.9999943971633911,1.041658595735104,0.7456448144833783,0.018574582412838936,0.999994695186615,0.8772763144533906,0.7408023743087254,-0.13973504304885864,0.9999961256980896,1.015890956617679,1.086590060610667,0.05125253275036812,0.9999938607215881,0.9192711280757375,1.0872870803140329,-0.051465630531311035,0.9999949932098389,1.0272345989702065,1.358887832558504,0.06486393511295319,0.9659419059753418,0.9197399447871085,1.361886003015391,-0.08463606238365173,0.9813740253448486,1.0058069140221624,1.6052459966496975,0.20566852390766144,0.9784402847290039,0.9162394664693618,1.6244187296284442,0.013961429707705975,0.9907797574996948,1.0719063292928201,1.0861236785395958,-0.032658450305461884,0.9619016647338867,0.8556276116713093,1.1240092943877977,-0.2348935604095459,0.9970623254776001,0.0024303197860717773,0.9675810423467082,1.08693857046235,172.6435473824085,179.13827265133102,1.0,0.047173734663072335,-0.006825138036657155,0.038649019655238294,-0.0442143690407168,94.73535714841401,0.9126209131044274,38,1.2666666666666666
0.982369434938751,0.6072825596002674,-0.21024498343467712,0.9999933838844299,1.0439576001440714,0.744288879820108,0.03607049211859703,0.9999943375587463,0.8835578034731847,0.7407731933328904,-0.1213233694434166,0.9999962449073792,1.022646875507113,1.0865931810407536,0.050193674862384796,0.9999940991401672,0.926146833141933,1.0865291731023443,-0.05039693042635918,0.999995231628418,1.027064254529289,1.3592019219481974,0.07603547722101212,0.9669985771179199,0.9256582233783236,1.3617829025296257,-0.08904657512903214,0.9826288819313049,1.005507473401822,1.6072825596002676,0.2192099392414093,0.9797583222389221,0.9168593881565482,1.6262219029346334,-0.010015304200351238,0.9913961887359619,1.0739979863031324,1.086193933009339,-0.0019619350787252188,0.9608921408653259,0.866205477001348,1.1237319169409716,-0.22159795463085175,0.9972103238105774,0.0017645955085754395,0.9743968543245229,1.0865611770715489,174.10545514596933,178.19597380252327,1.0,0.05247219025875513,-0.002188609767154831,0.040347595604142035,0.03527680361675654,93.52444245245056,0.9038144387632354,39,1.3
0.9885348479393115,0.6147170555250706,-0.24366669356822968,0.9999920129776001,1.0483956586903296,0.7473210291474748,0.007472734898328781,0.9999938607215881,0.8940035013177945,0.7439806565251132,-0.14007575809955597,0.9999963045120239,1.033032580335732,1.0913212089958035,0.05010976642370224,0.9999940395355225,0.9372548776405235,1.090784645580126,-0.050317954272031784,0.999995231628418,1.0315415565920554,1.3648152982709396,0.07022196799516678,0.9668605327606201,0.940660188866983,1.3604490865243393,-0.09455499053001404,0.9832216501235962,1.0097163417371082,1.6147170555250707,0.19748114049434662,0.980767011642456,0.9228572914245383,1.6283786112632044,-0.013675781898200512,0.9917016625404358,1.0809864895502517,1.0913099982909638,-0.01945108361542225,0.959006667137146,0.8796478956135494,1.1296737458292303,-0.23670879006385803,0.9972830414772034,0.0016694366931915283,0.9851437289881277,1.0910529272879648,175.32108695871224,175.47501131226431,1.0,0.049655703691138704,-0.0012990196760860888,-0.023007208678785453,0.006799859079039135,92.23615777370357,0.8973611101080767,40,1.3333333333333333
1.0028356533271636,0.6209953280860477,-0.16911748051643372,0.9999874234199524,1.0540456847276691,0.7525294153388074,0.05524122714996338,0.999992847442627,0.9084819676812144,0.7459507235645066,-0.11781942844390869,0.9999963641166687,1.0422247756604328,1.0955720528016968,0.05191255360841751,0.9999942183494568,0.94936051138736,1.0916994734257022,-0.05210224911570549,0.9999954104423523,1.0356275267290407,1.36674312015849,0.06797236949205399,0.9666048288345337,0.947922571159963,1.354153465893292,-0.12962710857391357,0.9843020439147949,1.007096197009963,1.6209953280860478,0.16960598528385162,0.9819546937942505,0.92770490767964,1.6347621047288126,-0.08587656170129776,0.9922587871551514,1.086261268609162,1.0957658853006065,0.020009391009807587,0.9549307227134705,0.8931479493293832,1.1340249964906022,-0.23075735569000244,0.9973959922790527,0.0032752156257629395,0.9957926435238964,1.0936357631136995,174.99090481579498,176.1929092406822,1.0,0.05155703361164248,-0.012300043860073766,0.01288014229061108,-0.08284967127139455,89.58563829738257,0.8835400074843355,41,1.3666666666666667
0.9924466960022771,0.603041568569503,-0.21228158473968506,0.9999781250953674,1.0418420812085856,0.7396125937576814,0.022465616464614868,0.9999916553497314,0.9018616319673851,0.7341189749870585,-0.16570134460926056,0.9999963045120239,1.0328041177838494,1.0834423828055624,0.05568184331059456,0.999994158744812,0.9435667205165038,1.0792471158131445,-0.05584685876965523,0.9999954700469971,1.0244102685056125,1.3494796410200305,0.09124802052974701,0.9643489122390747,0.9395066701335163,1.3402825435120418,-0.11279560625553131,0.9844702482223511,0.9953145431975626,1.603041568569503,0.2009696662425995,0.9823915958404541,0.918660401235752,1.6164466022268351,-0.0430343821644783,0.9924509525299072,1.0769760214300566,1.083903563798322,0.002165550133213401,0.9513512253761292,0.8938634274355685,1.1185741917669898,-0.2886122465133667,0.9975043535232544,0.0027655065059661865,0.9881854191501767,1.0813447493093533,175.2612166396705,176.57429543954544,1.0,0.02460821616855366,-0.0016840007204246196,-0.1924079229255786,0.07644018638291393,88.81410698327029,0.9036514538364041,42,1.4
1.0058766914195414,0.5990726472031409,-0.22520379722118378,0.9999719858169556,1.0390165486666498,0.7338940548922739,0.0008842251263558865,0.9999915361404419,0.904629889279453,0.7318454046614279,-0.2633475065231323,0.9999963641166687,1.033351059519588,1.0808019969245737,0.07425333559513092,0.9999942183494568,0.9480252233156914,1.076357181314316,-0.0743945762515068,0.9999955296516418,1.0222719174922021,1.3394420952588397,0.10664298385381699,0.9552702903747559,0.9410284983683798,1.336412736489256,-0.1070050597190857,0.9830389618873596,0.9912684161176155,1.599072647203141,0.21043944358825684,0.9816457629203796,0.9182172354756505,1.6079325116604208,-0.02511603757739067,0.9921109676361084,1.077889697132634,1.0800983437158702,0.001075957203283906,0.947494626045227,0.9042175251109816,1.120020416219673,-0.37212109565734863,0.9976158738136292,0.0010337531566619873,0.9906881414176397,1.0785795891194447,175.6431624176243,176.7388277194819,1.0,0.03629026518410718,-0.0014702595259075087,0.08784698766416234,0.0015693628817843221,87.95366531186356,0.9117999733066241,43,1.4333333333333333
1.0318293715789248,0.5994223993079495,-0.20494815707206726,0.9999666213989258,1.043459650775484,0.7358711792505163,0.020028049126267433,0.9999914765357971,0.9151838578710616,0.7324679979354997,-0.24318496882915497,0.9999964237213135,1.0382467755206333,1.0830384765985994,0.07592523843050003,0.9999942183494568,0.9553968580426296,1.0737716690542929,-0.07606139779090881,0.9999955296516418,1.027228647440859,1.3338002021637942,0.09165909141302109,0.9449476003646851,0.9483798538580972,1.3201654536720602,-0.13728556036949158,0.9809303879737854,0.9924969454606508,1.5994223993079495,0.15991732478141785,0.979904055595398,0.9270228841505788,1.6097226410780396,-0.09428925812244415,0.9916304349899292,1.0853863188606363,1.0828738943834484,-0.013382050208747387,0.9447640776634216,0.9146945513932832,1.1129186737704613,-0.38597503304481506,0.9977338314056396,0.0017131567001342773,0.9968218167816315,1.0784050728264463,175.06637514198454,177.41292902615314,1.0,0.027343058160143933,-0.01999283380563013,-0.06560451740420213,-0.1344851093310619,84.47822008475596,0.9104924607886616,44,1.4666666666666666
1.0317310298838893,0.5940145561053752,-0.22469325363636017,0.9999637007713318,1.040822928581481,0.7339288143069391,0.009754637256264687,0.9999916553497314,0.913594966521241,0.7273677166343481,-0.2763320803642273,0.999996542930603,1.034687871612336,1.0803076985561015,0.07996566593647003,0.9999942183494568,0.9535530035485879,1.0704543930422363,-0.0800914615392685,0.9999955296516418,1.0241876831792023,1.330702510836086,0.11452557891607285,0.928371787071228,0.9452848504483198,1.3209183919239165,-0.10398463904857635,0.9759542346000671,0.9876148899012119,1.5940145561053751,0.21898135542869568,0.9762791395187378,0.9262053463060966,1.604919474351842,-0.005772960837930441,0.9898456335067749,1.0838659678426343,1.080643359833612,-0.02297898754477501,0.9401938319206238,0.9176904945637749,1.1098156661134886,-0.40408334136009216,0.9978368282318115,0.00331231951713562,0.9941204375804619,1.075381045799169,174.49374415593755,178.0473059802225,1.0,0.0011212315395107543,0.0004498234544268665,-0.19646071272066257,0.15319013071603058,84.0904217504368,0.9189701038781446,45,1.5
1.0326362479301452,0.5906185286646376,-0.22756771743297577,0.9999613761901855,1.0405140442454706,0.7328276759758215,0.007112637162208557,0.9999916553497314,0.9177128763210262,0.7259720905713171,-0.2759421467781067,0.9999966621398926,1.0365809222896911,1.080512591943283,0.08214227855205536,0.9999943375587463,0.96012057173082,1.0699474471722132,-0.08224170655012131,0.9999956488609314,1.0229500288986917,1.3293738844710112,0.1386520117521286,0.9171310663223267,0.9449666471493913,1.3218965321923646,-0.08936291933059692,0.9741636514663696,0.9857557682743409,1.5906185286646377,0.2675791382789612,0.9739782810211182,0.926881712698084,1.6026034402822653,0.0029111953917890787,0.9893864393234253,1.083019699323937,1.0792201373014976,-0.0470876470208168,0.9329951405525208,0.9273000158079321,1.1083267722359902,-0.4170028567314148,0.997926652431488,0.003466397523880005,0.9983507470102556,1.075230019557748,175.03219970484471,179.7557436820564,1.0,0.04403459572649559,0.01162879838819221,0.32687277712576585,0.0851525647594805,82.78091688593798,0.9287832917972234,46,1.5333333333333334
1.0431045871832223,0.5910527080004097,-0.2300073355436325,0.9999627470970154,1.0418856788230708,0.7332803190337587,0.0065301209688186646,0.9999920725822449,0.9223020200947737,0.7252893241938394,-0.30091407895088196,0.9999968409538269,1.037067583327885,1.0815915773880356,0.08932112157344818,0.9999945759773254,0.9618595933824052,1.0715171311863387,-0.08941304683685303,0.9999958276748657,1.0245103983624324,1.33005811155629,0.13622306287288666,0.909528911113739,0.9490217930274032,1.3225483485283227,-0.08834058791399002,0.9729577898979187,0.9853099612155339,1.5910527080004095,0.2518763244152069,0.9725823998451233,0.9316638446937664,1.6006297103665987,0.012734738178551197,0.9888858795166016,1.0858314636939985,1.0795167920897588,-0.0452517606317997,0.926810622215271,0.9404785871887638,1.1090025130994625,-0.4192367494106293,0.9980229735374451,0.004039674997329712,0.9994635883551451,1.0765543542871872,174.35142674657575,179.35577929755115,1.0,0.006859957649761668,0.008336567367058364,-0.28031573415751415,-0.024836941725301886,83.16289926516392,0.9357962324774192,47,1.5666666666666667
1.0535183613358863,0.6082510032166601,-0.207366943359375,0.9999650716781616,1.053138261539421,0.7423473618534563,0.029422949999570847,0.9999923706054688,0.9424347919603409,0.7334395776647732,-0.28898537158966064,0.999997079372406,1.0510465203759363,1.0972766946483545,0.10199394077062607,0.9999943971633911,0.9783304962961135,1.0925676540080795,-0.10205072164535522,0.9999958276748657,1.0361179458729783,1.3455225185879889,0.1626054346561432,0.8468959927558899,0.9773521685420681,1.3510373040289267,-0.08256728202104568,0.9652436375617981,0.9964987419626717,1.6082510032166601,0.2766786217689514,0.9406477808952332,0.949646970987345,1.614435732433112,0.020168330520391464,0.9823126792907715,1.1021623123898108,1.0944118772363503,0.003456627484411001,0.9123228788375854,0.9738775580281119,1.1214620345521207,-0.43577060103416443,0.9981396198272705,0.004453182220458984,1.0146885083360249,1.0949221743282171,174.86587451664934,174.2123698450381,1.0,0.031602864183467215,0.04954346957464328,0.1942509441351173,0.32377884887418695,86.63240102278422,0.9423283824554838,48,1.6
1.056559360382052,0.6082564447305231,-0.1897668093442917,0.9999666213989258,1.0510185600977984,0.7411579817883746,0.05194659158587456,0.9999923706054688,0.9428877261239127,0.7323227931594661,-0.27673444151878357,0.9999973177909851,1.0506449119906345,1.1021351447945933,0.1052338033914566,0.999994158744812,0.9837376773645607,1.1025778326921858,-0.10529445111751556,0.9999958872795105,1.0344096101007594,1.3514352092813284,0.175953209400177,0.7817084193229675,0.9910750596435345,1.3656559777001478,-0.08506875485181808,0.9598075747489929,0.9951700119718567,1.6082564447305232,0.29872870445251465,0.9047726988792419,0.9505816155965648,1.614937710932183,0.014923179522156715,0.9763555526733398,1.1013317835090723,1.0937427630973988,0.006017088424414396,0.8764119148254395,0.9830176994811005,1.1205661500883382,-0.43962183594703674,0.9982683658599854,0.004424095153808594,1.0171912946775976,1.1023564887433894,175.03902919739116,169.1758423201336,1.0,0.032618296320963844,0.0723557922485944,0.008375007860465002,0.1797068265287243,90.43839566456059,0.969674771307332,49,1.6333333333333333
1.0641711952751278,0.6218390647861339,-0.18803271651268005,0.9999682903289795,1.0570231468589686,0.747278648412523,0.04983394220471382,0.9999926090240479,0.9502323752682955,0.7359637658692679,-0.265661358833313,0.9999974966049194,1.0573785218124385,1.1150609843036947,0.10236148536205292,0.999994158744812,0.9930103811112291,1.1129411745004656,-0.10243390500545502,0.9999960064888,1.0464305570308021,1.3649070403235144,0.15808233618736267,0.7348672151565552,1.003996443140486,1.3789269470624093,-0.10769280046224594,0.958278477191925,1.003457818631743,1.6218390647861338,0.27937647700309753,0.8822226524353027,0.9621126759889496,1.6312806033934182,-0.017865726724267006,0.9736674427986145,1.1083687870984658,1.102783024871223,0.005089550744742155,0.870224118232727,0.9973670435961697,1.1260717467462438,-0.420330673456192,0.998375654220581,0.0056382715702056885,1.0251944514618339,1.11400107940208,173.01400532784456,168.21122566461676,1.0,0.023328771764921218,0.04806294647143655,-0.07244078029882126,-0.18895447462100518,88.0584202462808,0.9599285081033074,50,1.6666666666666667
1.0625743874178077,0.6210419069260933,-0.16198024153709412,0.9999707937240601,1.0532023997562028,0.7446964516534905,0.07150693237781525,0.9999930262565613,0.9499492516064761,0.7321412830030699,-0.26028701663017273,0.9999977350234985,1.0524069472223263,1.1108678806744907,0.10685469210147858,0.9999942183494568,0.9889286310521758,1.1070311602705731,-0.10691122710704803,0.9999961853027344,1.043701671088066,1.3636662243976008,0.17475487291812897,0.684411346912384,1.0069406303100077,1.375380106331727,-0.11724356561899185,0.9582120180130005,1.0033965572866783,1.6210419069260933,0.2987641990184784,0.8492505550384521,0.9667182445257804,1.634853194424966,-0.06048740819096565,0.9716947674751282,1.1075071443808335,1.0985108897308842,0.04504381865262985,0.8614241480827332,0.9983173669650934,1.1200199357832707,-0.43145403265953064,0.9984838962554932,0.00627782940864563,1.020667789137251,1.108949520472532,173.0719867720317,167.34837009683022,1.0,-0.007792937333253674,-0.009489446402036833,-0.2388017839888044,-0.44147882254013837,86.66563506828571,0.941339691846978,51,1.7
1.0686628222888417,0.6204406513694866,-0.16700127720832825,0.9999731183052063,1.0528217179417898,0.7450510776720772,0.06549699604511261,0.9999934434890747,0.9517133018865563,0.7316565599091613,-0.2605434060096741,0.9999979138374329,1.0514512003857805,1.1094083962346344,0.10807714611291885,0.9999940991401672,0.9907796670449227,1.1064293470727549,-0.10811477899551392,0.9999962449073792,1.0443769270109715,1.3633383991272738,0.1976814717054367,0.6318301558494568,1.0170711018405745,1.3743437778634062,-0.1123739629983902,0.9560145735740662,1.0066969311204979,1.6204406513694867,0.3373100757598877,0.8027235865592957,0.9742152240556045,1.6373745703500762,-0.041679106652736664,0.9666538238525391,1.109579785420263,1.0973310603806008,0.03872973471879959,0.8582282662391663,1.000566370938878,1.117250464556466,-0.4290245473384857,0.9985648393630981,0.006698578596115112,1.0211154337153516,1.1079188716536947,173.25808873483365,165.14135319911227,1.0,0.0044382742206092425,-0.006235520081903174,0.08914576447382497,0.023707323848122328,87.40447734663103,0.9384920178810409,52,1.7333333333333334
1.0724094269147508,0.6199896328035306,-0.1600542962551117,0.9999754428863525,1.0521305279970616,0.7453556622334259,0.07077054679393768,0.9999938607215881,0.9577923174891053,0.7296650134649014,-0.26558253169059753,0.9999980926513672,1.0508738078364637,1.1051351587933556,0.11179329454898834,0.9999939799308777,0.9938170440690466,1.1040331302181967,-0.11181999742984772,0.9999963641166687,1.0437942246766567,1.3582605276830304,0.21283450722694397,0.5771303176879883,1.0246538224582746,1.3709160393543498,-0.11698635667562485,0.9541752934455872,1.0085619647356814,1.6199896328035306,0.3479551374912262,0.74781733751297,0.9858147935329145,1.6387657113110594,-0.07667643576860428,0.9617632031440735,1.1088870852130754,1.0931176009408776,0.057165347039699554,0.8411366939544678,1.0042798203932968,1.1163954667738145,-0.4469369053840637,0.9986512064933777,0.007847458124160767,1.0223454259527551,1.1045841445057762,173.9353739853073,165.15847042966,1.0,0.00999323354905792,-0.024872554379570838,0.042492404407417424,-0.14255817298578283,89.09362750998555,0.9272467446952998,53,1.7666666666666666
1.0736878209625194,0.6193757639199097,-0.1762821227312088,0.9999772906303406,1.0538500729497162,0.7462066475172048,0.059117842465639114,0.999994158744812,0.9632579802545821,0.7286805474353051,-0.278556227684021,0.9999982118606567,1.051192872163731,1.1034763713268927,0.11282642930746078,0.9999935030937195,0.9954425265662,1.1008638463970202,-0.11284159123897552,0.9999963045120239,1.0432403315043832,1.3543326138932024,0.21088464558124542,0.5269615054130554,1.0311060115772417,1.3635899278222825,-0.13928396999835968,0.952147364616394,1.008108429613278,1.6193757639199096,0.34208378195762634,0.6961690187454224,0.9982036731774082,1.6395833088857121,-0.10317143052816391,0.955640971660614,1.1102727008300357,1.0922020914138306,0.04402732104063034,0.8353410959243774,1.0052632328247693,1.11612619106577,-0.44873738288879395,0.9987178444862366,0.008768469095230103,1.0233176993649655,1.1021701088619564,174.26512598300047,165.47130510122454,1.0,0.010558147713563197,-0.016173921394124435,0.00452487982251386,0.0691821080741474,87.74314769509141,0.9198745744223802,54,1.8
1.0672723996622744,0.6138926108300441,-0.2274564504623413,0.9999790787696838,1.0449331489596,0.7397136187154901,0.0165140051394701,0.9999943971633911,0.9612009081739974,0.7214959471207718,-0.327201783657074,0.9999983310699463,1.0398377158143932,1.0952954499641194,0.11295264959335327,0.9999930262565613,0.9883626835963657,1.0919423048658958,-0.11297030746936798,0.9999962449073792,1.0362414470127135,1.3420636451051084,0.2107039988040924,0.48669224977493286,1.026117478153586,1.3527842539521047,-0.09552325308322906,0.9485043883323669,1.0074850070268897,1.613892610830044,0.3393612802028656,0.663153350353241,0.9969743095543893,1.6355251835439175,-0.02503279782831669,0.9506691098213196,1.1007984137508025,1.081330552086417,-0.0011120098643004894,0.8224055171012878,0.9983918022989432,1.1087914748561098,-0.49123817682266235,0.9987946152687073,0.009187132120132446,1.0141001997053796,1.0936188774150075,174.79615203879015,165.87918034112133,1.0,-0.00828215883370988,0.001224260430760575,-0.13823202989617814,0.12727666252417508,87.09393382091301,0.908587432454636,55,1.8333333333333333
1.0646804079390704,0.6104685479278024,-0.2241681069135666,0.9999805092811584,1.0389286478619033,0.7329957110222044,0.018554527312517166,0.9999945759773254,0.960967759327532,0.7172785627156761,-0.32383179664611816,0.9999984502792358,1.0343904587254458,1.0913122360296266,0.1132001131772995,0.9999926090240479,0.9854347331154902,1.0873584045200368,-0.11322072893381119,0.9999961256980896,1.0382435226829407,1.3366798127512862,0.20858275890350342,0.4517786502838135,1.023963253746587,1.3475315128152547,-0.08158893883228302,0.9442884922027588,1.0080097254814064,1.6104685479278025,0.3358858525753021,0.635599672794342,0.9934614101477163,1.6301120991929414,-0.0013500828063115478,0.9461002945899963,1.096087276001148,1.0763730932742603,0.0003334534412715584,0.8074944615364075,0.9950866400825541,1.105083605284081,-0.48388829827308655,0.9988437294960022,0.007958054542541504,1.009912595920468,1.0893353202748317,172.79884828251735,165.41572870143145,1.0,-0.0009218557761179467,0.0008118551240929572,0.056936881271219805,-0.003166529053546725,86.10824906814376,0.9076375797868763,56,1.8666666666666667
1.0672159083244148,0.6108761960047159,-0.22374780476093292,0.9999815225601196,1.0308649171734021,0.7311574563378272,0.02104182355105877,0.9999945759773254,0.964413360861395,0.7178102501872883,-0.3282398581504822,0.9999985694885254,1.0339548433202084,1.0929152197242524,0.11498410999774933,0.9999921321868896,0.9890082351492,1.090498630263521,-0.11500149965286255,0.9999960660934448,1.0400283048828456,1.3377470366558484,0.23576219379901886,0.414413720369339,1.0288557464809027,1.3524573519559135,-0.08022903650999069,0.9380505681037903,1.0074028744230614,1.6108761960047158,0.392574280500412,0.5969215631484985,0.9989234271270326,1.6334016939925702,0.01580486074090004,0.9386916160583496,1.0931712408299112,1.0770847973595306,0.022238165140151978,0.7725900411605835,0.9963646299007556,1.1105052717314114,-0.49320679903030396,0.9988844990730286,0.006752341985702515,1.0114815392347043,1.0917069249938867,171.76723649487676,165.26937500277762,1.0,0.0055290789216713015,0.011251677898492747,0.05022302777814608,0.08126282039378971,86.43303534745424,0.9124426467031651,57,1.9
1.0712373200975656,0.6143401200697546,-0.19383223354816437,0.9999822378158569,1.0280148571304246,0.7338168214954469,0.0547049418091774,0.9999944567680359,0.9711466741964488,0.7202366678632967,-0.3090773820877075,0.9999986886978149,1.0360970755404582,1.0944948637142542,0.11922761052846909,0.9999921321868896,0.997368360063587,1.092638904851838,-0.11925724893808365,0.9999962449073792,1.041811338281611,1.342630864255339,0.23345859348773956,0.3790518045425415,1.0412678885535487,1.3600300056142283,-0.12925690412521362,0.9383566975593567,1.0100268603220686,1.6143401200697545,0.38857024908065796,0.5577812790870667,1.0130199723687265,1.6438727580333836,-0.08453530818223953,0.9370597004890442,1.084603511092003,1.0811203956351858,0.0607573501765728,0.7278086543083191,1.0017850124227217,1.1171054940449923,-0.4697500169277191,0.9988762140274048,0.00684550404548645,1.0167327178020225,1.093566884283046,172.008661514971,164.99317389498165,1.0,0.011711223100606096,-0.015167510555271772,0.045002364805839155,-0.19323470104650659,85.97267662601118,0.9005716270592857,58,1.9333333333333333
1.0776876227224987,0.6215789914303546,-0.15703707933425903,0.9999814033508301,1.023010468514544,0.7381080471711037,0.08392012864351273,0.9999933838844299,0.9813276291154848,0.7244075428672542,-0.28722038865089417,0.9999987483024597,1.039874585216981,1.100697734485593,0.12116024643182755,0.9999919533729553,1.0158190727887118,1.100235503523753,-0.12120131403207779,0.9999963641166687,1.0422830142548365,1.3533879971688205,0.25089991092681885,0.34654659032821655,1.0516667665570727,1.375134019627989,-0.13598360121250153,0.9395444393157959,1.0128600573466064,1.6215789914303544,0.41455402970314026,0.5228965282440186,1.0334672102607425,1.6597414075224135,-0.10990174114704132,0.9375636577606201,1.0782910083413246,1.0933788595750187,0.11723576486110687,0.6750644445419312,1.0089555316452805,1.12458153054934,-0.45059990882873535,0.9988705515861511,0.006867080926895142,1.0278468290028464,1.100466619004673,173.19309945725692,168.91149686725728,1.0,0.039116157918707886,0.004955452717219768,0.2007623562027944,0.14840979030347368,86.23626805887109,0.8912627031408589,59,1.9666666666666666
1.0779966919509751,0.6220082030908234,-0.14300537109375,0.9999791383743286,1.0089460308853941,0.7319804619432507,0.0846710056066513,0.9999919533729553,0.9923179367119273,0.7237649996898221,-0.28567829728126526,0.9999987483024597,1.0345566754541489,1.0998849635438341,0.12364117056131363,0.9999920129776001,1.02905400610994,1.100584544122616,-0.12370183318853378,0.999996542930603,1.0347280911341397,1.3553078877204694,0.2685622572898865,0.3213810324668884,1.0606357689804353,1.3803375509005538,-0.12737509608268738,0.9431920647621155,1.0093450095048864,1.6220082030908234,0.4303298890590668,0.5033212304115295,1.0501954715688775,1.6722837915649567,-0.10197385400533676,0.9408431053161621,1.0463748408888374,1.103991683544053,0.1177125796675682,0.6127603054046631,1.017578672035233,1.1275888778702536,-0.4181740880012512,0.9987419247627258,0.004116475582122803,1.0318053407820444,1.100234753833225,174.5248248271207,171.51097481014523,1.0,0.023118975965691048,-0.0037779975174147343,-0.10218461887308296,-0.05575209618868389,93.26335405094248,0.8784735783866536,60,2.0
1.078016712829316,0.6227012985436163,-0.1357143223285675,0.999973714351654,0.9969806847745033,0.7262271480898234,0.09008711576461792,0.9999901652336121,1.0006084458811404,0.7242949172836781,-0.2875352203845978,0.9999986886978149,1.0260494947482781,1.101308352075843,0.12934859097003937,0.9999921917915344,1.0327691227315037,1.1029298427914638,-0.12942197918891907,0.9999967217445374,1.0321078849598642,1.3567772973206538,0.2997296452522278,0.30327123403549194,1.065184295775524,1.3850780358774164,-0.1487235277891159,0.9478046298027039,1.0087436345448944,1.6227012985436164,0.4656907916069031,0.5000677108764648,1.0562377665804479,1.6779373285863088,-0.1500137746334076,0.9453831315040588,1.0350235209596006,1.1158653438975044,0.10570736229419708,0.5560014247894287,1.0275033846029684,1.1318052808912462,-0.4212724566459656,0.9982824921607971,0.0009675323963165283,1.029409308739891,1.1021190974336534,173.62034817602728,171.69641202949435,1.0,-0.022031917507855613,0.008280872492414883,-0.3232748534060159,0.08632868806845992,107.99806601217279,0.8789968161673225,61,2.033333333333333
1.0806052096062995,0.6223063105202912,-0.12775544822216034,0.9999690055847168,0.9997743957976084,0.7247410922492667,0.10237588733434677,0.9999880790710449,1.0078273529771453,0.7222273698781195,-0.2869862914085388,0.9999985098838806,1.0238668536485722,1.1018806797167182,0.13200552761554718,0.999992311000824,1.0368440644105652,1.1029343721481466,-0.13209448754787445,0.9999968409538269,1.0318641090255667,1.3578922342701174,0.2937197685241699,0.2915879487991333,1.0698401221392944,1.3853935710241128,-0.14074982702732086,0.9517713189125061,1.0082961764818776,1.622306310520291,0.4562343955039978,0.5051852464675903,1.0580735924359808,1.6779526493021057,-0.11857204139232635,0.9492492079734802,1.0378440783955263,1.1201888386322947,0.11181582510471344,0.5058390498161316,1.0382337529714323,1.1313434816542602,-0.42134881019592285,0.9972808957099915,0.00125885009765625,1.0303554590295687,1.1024075259324324,173.11731809321083,171.03391653784556,1.0,0.008786596063267359,0.003430100943907087,0.2542134721692658,-0.0400080963764338,98.29718828522567,0.8813149471726931,62,2.066666666666667
1.079806287830133,0.6212048234620549,-0.09716812521219254,0.9999672174453735,0.993036870428608,0.7214394278327478,0.12100014835596085,0.9999854564666748,1.013109271607078,0.7205110977907196,-0.2711394727230072,0.9999983906745911,1.0189873470423398,1.102064677862695,0.13221682608127594,0.9999923706054688,1.038871025051707,1.1025865363832457,-0.1323329657316208,0.9999969601631165,1.0276356621007119,1.3594895041249662,0.29419541358947754,0.2921256422996521,1.070224884502967,1.3876539241750394,-0.1372322142124176,0.9559133648872375,1.0074638734606691,1.6212048234620549,0.45178085565567017,0.5235528349876404,1.0584623100263095,1.6772735075137755,-0.10566972196102142,0.9535042643547058,1.0356252006633444,1.1215428359959378,0.13949953019618988,0.4625486433506012,1.0486589354205136,1.130489967695209,-0.37746721506118774,0.9969986081123352,0.00046515464782714844,1.0289291860470233,1.1023256071229703,173.66846737994584,171.39768151326646,1.0,-0.006361391353633519,0.003861033718884686,-0.11186008652164581,0.003197125576236984,95.40372262367015,0.8845793354013557,63,2.1
1.07994129786072,0.6155856337432738,-0.08895470947027206,0.9999648332595825,0.9926851130990677,0.7176699295695251,0.13448303937911987,0.999982476234436,1.0176517792796718,0.7164190888886439,-0.26804789900779724,0.9999982714653015,1.014137309373054,1.098272853508904,0.13498455286026,0.999992311000824,1.036776921082516,1.0988174807563655,-0.13509051501750946,0.9999970197677612,1.0241196131368264,1.3577808609164983,0.2827810049057007,0.2934510409832001,1.0685732413987366,1.385257744192826,-0.1357172429561615,0.9597314596176147,1.0040372836117346,1.615585633743274,0.4331393837928772,0.5374958515167236,1.0562233384275068,1.6724012572661917,-0.11903579533100128,0.957217812538147,1.0335837267180448,1.1152607423693799,0.14655748009681702,0.4220447540283203,1.053563745987464,1.12015088806606,-0.3730456531047821,0.9968419671058655,0.0006288886070251465,1.025457115227785,1.0985451671326347,173.3429322380619,171.203064330202,1.0,0.00015745887894533624,-0.0002919737498157806,0.04931178179203805,-0.03142032418079545,94.6040535458499,0.8910166057615375,64,2.1333333333333333
1.072909023995497,0.6045505650497892,-0.06403714418411255,0.9999661445617676,0.9883725116560785,0.7088187581564313,0.15439575910568237,0.9999816417694092,1.0153572687479675,0.7079658184056621,-0.25002965331077576,0.9999983310699463,1.0057640349444692,1.0835358567658906,0.1343538761138916,0.9999917149543762,1.0318010812021703,1.0835250325080699,-0.1344638168811798,0.9999970197677612,1.0171179754684667,1.347487030891961,0.26399439573287964,0.29165807366371155,1.062734692263997,1.3740157572956675,-0.13540813326835632,0.9627812504768372,0.9965778873590082,1.6045505650497893,0.38021939992904663,0.5409430861473083,1.050500104242309,1.6603273773246858,-0.11041074991226196,0.9598259925842285,1.0316649543945782,1.106513991294473,0.15043005347251892,0.39247381687164307,1.0566648720360947,1.1049687108355997,-0.37453964352607727,0.9970661401748657,0.00043210387229919434,1.0187825580733199,1.0835304446369802,172.96853721936841,171.47476732711743,1.0,0.008801334606509451,-0.05446255913817354,0.07023301009007689,-0.44010282691400093,92.63350889289637,0.8781218894824429,65,2.1666666666666665
1.0643657615760933,0.592087365280462,-0.028536248952150345,0.9999678730964661,0.9812802023994078,0.7037472159693469,0.17621341347694397,0.9999811053276062,1.0080839309520713,0.7013804543482001,-0.23394283652305603,0.9999983906745911,0.9938106455309494,1.0710341292219747,0.13527381420135498,0.9999915957450867,1.0229664875191622,1.0704434163350496,-0.13539011776447296,0.999997079372406,1.0106195260430735,1.336598730988581,0.25678640604019165,0.29721927642822266,1.0555856041133507,1.3623553768878944,-0.13274535536766052,0.9657627940177917,0.9885670619614749,1.592087365280462,0.3647976517677307,0.5526442527770996,1.0419561385468579,1.6479303339296099,-0.12085232883691788,0.9628196954727173,1.0212369511511605,1.0962609893489599,0.16077041625976562,0.3625611960887909,1.0504379632415746,1.095243203066805,-0.34079408645629883,0.99727863073349,0.0012086331844329834,1.0083885665250558,1.0707387727785123,171.4450518769183,170.89159993184742,1.0,-0.017367625839907457,-0.031669202849512135,-0.19828926940396724,0.16988180184212798,90.79327367431345,0.8772989345509409,66,2.2
1.0471502165721456,0.5667725443402004,-0.059870876371860504,0.9999694228172302,0.9664210941775244,0.6860856014787649,0.1419275552034378,0.999980092048645,0.9926244399610183,0.6866783778431556,-0.2755674421787262,0.9999983906745911,0.9796265503160938,1.050341824223458,0.135258287191391,0.9999912977218628,1.0086681697528637,1.0523448925777346,-0.13536715507507324,0.999997079372406,0.9948913601337247,1.3143522753744583,0.26639872789382935,0.2957688570022583,1.0393061099213339,1.3401967734954474,-0.11986279487609863,0.9681124091148376,0.9729540973648819,1.5667725443402005,0.3926485776901245,0.5593387484550476,1.0252288055886503,1.620982319056465,-0.08727650344371796,0.9651185870170593,1.0091420002931433,1.0772209385083975,0.13673070073127747,0.33743658661842346,1.0439794000306009,1.0773108801600433,-0.3700982928276062,0.9974457621574402,0.0003075897693634033,0.9941473600344788,1.0513433584005962,171.7239378613977,171.05436722818402,1.0,0.013424652565479055,-0.0185852305932306,0.23450054967532033,0.09668248223600472,96.02182156256151,0.898448598619792,67,2.2333333333333334
1.044928600044264,0.5608248666785971,-0.08615074306726456,0.9999695420265198,0.9642053916151981,0.6809080728360726,0.13251037895679474,0.9999784827232361,0.9920664934807989,0.6816632850425735,-0.28310102224349976,0.9999983310699463,0.9770119403904456,1.0467482767571077,0.13448116183280945,0.9999908804893494,1.006878545137955,1.049301297039181,-0.13458579778671265,0.9999970197677612,0.9917784228453296,1.309364390920096,0.27856746315956116,0.2869926393032074,1.036559667202849,1.3354539041757534,-0.10766631364822388,0.9698319435119629,0.9697331190435872,1.560824866678597,0.42093735933303833,0.5593318939208984,1.0209564517575,1.615196596186682,-0.07012039422988892,0.9669454097747803,1.0230658020425765,1.0627405478540168,0.13712292909622192,0.31320539116859436,1.052357295978495,1.0708429352107844,-0.3766711354255676,0.9974875450134277,0.00039315223693847656,0.9919452427642004,1.0480247868981445,171.77148176475282,170.88570314661158,1.0,0.008399050918647585,0.0007480669370742585,-0.040944381174834996,0.15839258302987277,96.89067916950374,0.9075439685472396,68,2.2666666666666666
1.0498439831617288,0.5654799927039903,-0.06392747908830643,0.999970555305481,0.9658990823975148,0.6832472413758436,0.1402551680803299,0.9999762773513794,1.001064700382466,0.6843155035898378,-0.2637016773223877,0.9999983310699463,0.9801499703420077,1.049521005470571,0.1337197721004486,0.9999898076057434,1.0136780650062978,1.0532181865968855,-0.13381226360797882,0.9999968409538269,0.9942185154918128,1.3119399773938596,0.2780575454235077,0.2939206659793854,1.041523889405131,1.3398649663708528,-0.07466024905443192,0.9714373350143433,0.9730029830339049,1.5654799927039902,0.3768001198768616,0.5734382271766663,1.0249992890699167,1.620533384271354,-0.03518828749656677,0.9687986969947815,1.0202698661871599,1.0662151949456462,0.15432997047901154,0.28744325041770935,1.0730918277509762,1.073610706176187,-0.3185662627220154,0.9975906014442444,0.0005541741847991943,0.9969140176741528,1.0513695960337281,172.14804287559718,171.08205670612963,1.0,0.011236380587589438,-0.0025579955497231103,0.021269505829909933,-0.02506367377655158,98.52077330807431,0.9023729722815695,69,2.3
1.052691503272416,0.5690061811692714,0.0025379047729074955,0.9999708533287048,0.965401026099787,0.6828907361022181,0.16314402222633362,0.9999737739562988,1.009214186480104,0.6854607372581744,-0.2213113009929657,0.9999983310699463,0.9815466878743646,1.0512641536243374,0.13014166057109833,0.9999886155128479,1.0228532029462312,1.0560545468504685,-0.13027983903884888,0.9999966621398926,0.9917722064693347,1.3123192738452258,0.2662995159626007,0.3064148724079132,1.0441832737222003,1.3432466035938087,-0.06306717544794083,0.9730751514434814,0.9750938372096841,1.5690061811692713,0.356484055519104,0.5876116156578064,1.0281615014276089,1.6257749788060292,-0.03607884421944618,0.9705812931060791,1.016671860886225,1.0671226982172644,0.1910044103860855,0.2631520926952362,1.0883289371094724,1.0762068900175317,-0.2737464904785156,0.9976482391357422,0.0013298094272613525,1.0021999454102979,1.053659350237403,174.03927518744376,172.50669416231005,1.0,0.020779752327471455,-0.0030950153402260856,0.07243953362431019,-0.004038681049375109,99.12479201132626,0.8961673857171636,70,2.3333333333333335
1.052872121921805,0.5675524347909037,0.012077298015356064,0.9999700784683228,0.9646101740061318,0.6791554280890018,0.17153562605381012,0.9999703168869019,1.0132064520380593,0.6841937786552048,-0.2149011194705963,0.9999982714653015,0.982059750753578,1.0477755335184962,0.12956053018569946,0.9999878406524658,1.0248136965254535,1.0539621084239907,-0.12969942390918732,0.999996542930603,0.9879697103338693,1.3095381941132203,0.2717937231063843,0.306736558675766,1.0450987819709021,1.3433012777531232,-0.054171644151210785,0.9742901921272278,0.9741028838501351,1.5675524347909038,0.3818635940551758,0.5904040336608887,1.027325354461629,1.6250309334505695,-0.016751881688833237,0.9717780947685242,1.0133667068974337,1.0667877967595107,0.21258480846881866,0.23991478979587555,1.1000536410226633,1.076108385280793,-0.2780666947364807,0.9976695775985718,0.0026066601276397705,1.0034367236395156,1.0508688209712436,175.63025250907705,172.37982610607213,1.0,0.008208601473946265,-0.021948019457168642,-0.0939886419667242,-0.14091971676090476,100.94387464160417,0.8907405329242211,71,2.3666666666666667
1.0542421791145882,0.5689116747774196,0.04431343451142311,0.9999600052833557,0.9639356632559358,0.6795416601679124,0.1630830466747284,0.9999668002128601,1.026478462743911,0.685387020426546,-0.2015305757522583,0.9999982118606567,0.9800237139157633,1.054042717349874,0.12257950007915497,0.9999875426292419,1.0299939042454322,1.0589273963790942,-0.12272094190120697,0.999996542930603,0.9750822765359133,1.3130383391122256,0.2745862305164337,0.31840890645980835,1.045960189785158,1.3478756226114195,-0.029599735513329506,0.9754118919372559,0.9742802764270111,1.5689116747774197,0.39309030771255493,0.5973386764526367,1.0281519111874862,1.6271600474739765,0.01460508443415165,0.9726448655128479,1.0016469150682807,1.0519995320896949,0.2017364501953125,0.21756498515605927,1.1205083610126427,1.0719802019489801,-0.2629930078983307,0.9976491332054138,0.0030201375484466553,1.0050088090805978,1.0564850568644841,179.08655840910268,173.18878255123929,1.0,0.0017476793174038472,0.03202908656135923,-0.04923214776471194,0.41083036780059246,98.04286684943304,0.9048809597538441,72,2.4
1.061016930665738,0.5779897748344801,0.07791551202535629,0.9999421834945679,0.9695115505661367,0.6843880861191887,0.18239113688468933,0.9999613761901855,1.0375906705720683,0.6891952668722715,-0.17700542509555817,0.9999980926513672,0.9853838683921571,1.0600479290854683,0.12031058222055435,0.999986469745636,1.0356170449130087,1.0651014504390677,-0.1204458698630333,0.9999963641166687,0.9844096452730163,1.3214382810044245,0.26889485120773315,0.3167831003665924,1.0502074169290876,1.355761544619384,-0.05019397661089897,0.9758660197257996,0.9800034787052301,1.5779897748344802,0.379031240940094,0.5888548493385315,1.033697027053025,1.6377743062924532,-0.018476732075214386,0.9721298217773438,1.0037481366358367,1.0602716430175436,0.20449812710285187,0.19733552634716034,1.1357940086670584,1.0738746800502057,-0.23722538352012634,0.9976109862327576,0.002469360828399658,1.0105004566525828,1.0625746897622679,179.2296102926255,173.77576736613418,1.0,-0.002820891717782619,-0.00048371132759398986,-0.03587858097729057,-0.2562281858826222,98.16411304423256,0.8934378707555941,73,2.433333333333333
1.0744126732727899,0.5868377181361284,0.052387017756700516,0.9999193549156189,0.9748354387436056,0.6894177466104149,0.1802709400653839,0.999957799911499,1.0502115756268666,0.6944195390396822,-0.20090122520923615,0.9999980330467224,0.9905846171867342,1.0685144031759988,0.11877139657735825,0.9999858736991882,1.044229953039113,1.0735816033453691,-0.1189260259270668,0.9999962449073792,0.9926540502793214,1.33066792408517,0.26644283533096313,0.32237640023231506,1.0563663329118362,1.3658885016057045,-0.04170984774827957,0.9761984348297119,0.9868111926379526,1.5868377181361284,0.3623517155647278,0.5923661589622498,1.0413742242183175,1.6501394342212945,-0.01731235347688198,0.9720358848571777,1.0077782603961043,1.0694588699003809,0.1971241533756256,0.17904619872570038,1.1494853275942865,1.081342737318015,-0.26534146070480347,0.9975020885467529,0.0025502145290374756,1.0174072851129237,1.071048003260684,178.24111176811564,174.60335847117656,1.0,-0.005067865797268833,0.0038656073146578823,-0.016906052822680456,0.03306231317218279,97.7749275206998,0.8905873268190849,74,2.466666666666667
1.0813509153644252,0.5968519836023508,0.06838701665401459,0.9998981952667236,0.9805394098554611,0.6941205794074506,0.1715526580810547,0.9999551773071289,1.0620907485148263,0.6984025904549097,-0.19834528863430023,0.9999980330467224,0.9952381966444893,1.0758081259027725,0.11724263429641724,0.9999856948852539,1.053922513895211,1.080489807001838,-0.11739194393157959,0.9999962449073792,1.0002240128873296,1.3392202210221271,0.2509218752384186,0.33731809258461,1.0628260849359452,1.3745380175400679,-0.05419722944498062,0.977153480052948,0.9930210102675319,1.5968519836023507,0.33947256207466125,0.6031007766723633,1.0478554589787576,1.6606782437248448,-0.02053150348365307,0.9723751544952393,1.0156676072305806,1.076492400562809,0.1908116638660431,0.16300003230571747,1.1580646227765339,1.0864553266652635,-0.2758283317089081,0.9975083470344543,0.002169311046600342,1.0245803552698503,1.0781489664523054,177.3141574207969,175.2707160769102,1.0,0.004848004950844773,0.0017275869170723234,0.0745869136042319,-0.016215491989109616,96.76661758744169,0.8801378371670571,75,2.5
1.095905649755841,0.6128237353775331,0.08166132867336273,0.9998795390129089,0.9908566810793699,0.7025228776372212,0.16445893049240112,0.9999516606330872,1.078032350627387,0.706759153137649,-0.18154174089431763,0.9999979734420776,1.004316908088371,1.0894884859044716,0.11442486941814423,0.9999852776527405,1.0671072597892723,1.0934997637554433,-0.11460895836353302,0.9999961853027344,1.009954643425439,1.3532615435517137,0.23997798562049866,0.3567962050437927,1.07489285684532,1.3903787172813191,-0.0420403778553009,0.9774261713027954,1.0045268503542477,1.612823735377533,0.3080199956893921,0.6170457601547241,1.059691799040978,1.679308071232792,-0.019724417477846146,0.9722947478294373,1.022661982240598,1.0896501081250276,0.20875243842601776,0.14842075109481812,1.1737061593775997,1.0993827887807044,-0.2550694942474365,0.9974793195724487,0.0021215975284576416,1.0357120839388216,1.0914941248299574,177.57762212365216,175.48612247831124,1.0,-0.005803369653080877,0.007024778749759339,-0.08618586597500628,0.042476991796634805,95.64747271859135,0.8699114602354883,76,2.533333333333333
1.1040880777806972,0.6211693103683354,0.08383563160896301,0.9998679161071777,0.9957017008806508,0.7075274359454526,0.1654099076986313,0.9999486207962036,1.0858710916425336,0.7116681229760086,-0.1761133074760437,0.9999979138374329,1.010535388676443,1.0977532819078215,0.11296285688877106,0.9999846816062927,1.0750330590008363,1.1010084418017212,-0.11315973103046417,0.9999960064888,1.0163506816857628,1.3607632283029378,0.23851414024829865,0.37412700057029724,1.0819410333098862,1.399570068248251,-0.025424325838685036,0.9773475527763367,1.0112542579525812,1.6211693103683353,0.3062865138053894,0.6281944513320923,1.0665761610248008,1.6903229771827297,-0.0013350225053727627,0.9719312787055969,1.0277489531166637,1.0974579464468748,0.21680553257465363,0.1353856921195984,1.1818051550355415,1.1071527373164203,-0.24333377182483673,0.9974064826965332,0.0020599365234375,1.0427842238386398,1.0993808618547714,177.6121693717303,175.64956593890287,1.0,0.001050465061978932,0.004376636679122025,0.05196266382174055,-0.020318350769247186,95.0661743214251,0.8665377749367273,77,2.566666666666667
1.1045243372888616,0.6218562246426957,0.07004402577877045,0.9998542666435242,0.9956674551593835,0.7080217522589085,0.14377138018608093,0.9999464154243469,1.092950388484135,0.7138207125656086,-0.187768816947937,0.9999978542327881,1.0096706471255674,1.1032635400116755,0.11024005711078644,0.9999844431877136,1.077217690451675,1.1048970989137354,-0.11043882369995117,0.9999959468841553,1.0165945444837963,1.361127806477027,0.23918874561786652,0.3917587995529175,1.0814368486372656,1.3995194970810427,-0.016332948580384254,0.9770362973213196,1.0119786528646582,1.6218562246426957,0.317215234041214,0.6430168747901917,1.0668184801309963,1.6903531508874934,0.02784285508096218,0.9716429710388184,1.0302981487710823,1.0967482421322876,0.20423674583435059,0.12356888502836227,1.1876976438169184,1.1102122481918815,-0.25034788250923157,0.9973129630088806,0.0028837621212005615,1.0434441687886211,1.1040803194627056,177.4476753674737,176.30207347843933,1.0,0.0018153992419194167,0.03139396297207462,0.0056293029077963954,0.1989214093828252,93.41448029902776,0.8805085781146921,78,2.6
1.1091083767421135,0.6248232388391342,0.06659307330846786,0.9998065233230591,0.9975641803119067,0.7104533738750832,0.12696602940559387,0.9999434351921082,1.1014837398947621,0.7177353121976355,-0.19322644174098969,0.9999977946281433,1.0121309993484104,1.1097644699753277,0.10987631231546402,0.9999841451644897,1.0810353206465022,1.1118928397866081,-0.11006395518779755,0.9999958872795105,1.0171449543902311,1.3858406481283598,0.24663355946540833,0.39881432056427,1.0824495900798414,1.4023257262107205,-0.013469812460243702,0.9766229391098022,1.0150217487761002,1.6248232388391342,0.33300814032554626,0.6522883176803589,1.06603584997671,1.692919423332119,0.036762580275535583,0.9711072444915771,1.0288798117782247,1.0992446400887859,0.16271483898162842,0.11260771751403809,1.188029919436723,1.1131115903139117,-0.25434547662734985,0.9971222281455994,0.0036140382289886475,1.0465831599974564,1.110828654880968,178.4505150793308,176.4881698031288,1.0,0.008402652035024561,0.036001525580864786,0.05208339997861951,0.03595625982861293,93.85845014259341,0.8940529753731432,79,2.6333333333333333
1.110323526409601,0.62375298172139,0.10023254156112671,0.9997650980949402,0.9954575761301707,0.7160870766159654,0.14892204105854034,0.9999397397041321,1.1021473194646496,0.7191464033228577,-0.17251162230968475,0.999997615814209,1.011798108440536,1.1110426620114877,0.11052735894918442,0.9999833703041077,1.082343006679308,1.1133260855698157,-0.11070920526981354,0.9999957084655762,1.0170160421126384,1.3888413125640924,0.2539574205875397,0.39598625898361206,1.0814457674003182,1.401330892928906,0.002182567026466131,0.9743738770484924,1.01699095877806,1.62375298172139,0.3539770543575287,0.6461280584335327,1.0608314669352144,1.6902052158813994,0.07168964296579361,0.9675871133804321,1.0069048179264952,1.1069023515986216,0.19555363059043884,0.10239860415458679,1.1869220294145904,1.117818882842285,-0.20448064804077148,0.9966731667518616,0.0015193819999694824,1.047070557559922,1.1121843737906518,178.91781341254227,176.0967435285867,1.0,0.009829266467741932,0.017306002792904188,0.011742455140656976,-0.15306830654033352,94.22307604390161,0.9039239800087658,80,2.6666666666666665
1.1083358571251547,0.6242766525573546,0.11687405407428741,0.9997420310974121,0.9908568165583709,0.728705596215317,0.1647399216890335,0.9999381303787231,1.1021492180551349,0.7199181358484175,-0.15948157012462616,0.9999974966049194,1.0059305519472908,1.113141228519661,0.11105760186910629,0.9999825954437256,1.0783617026671815,1.1138525550581333,-0.11123570054769516,0.9999954700469971,1.0330973169341886,1.3807604053185742,0.2562863528728485,0.3900485336780548,1.0763474536495465,1.398736620913072,0.0020102690905332565,0.9708709716796875,1.0175976468212902,1.6242766525573546,0.35850054025650024,0.637810230255127,1.0553258227202504,1.6844893017541192,0.07800211012363434,0.9627224802970886,0.9872005479140084,1.101524131038142,0.20841455459594727,0.09398507326841354,1.1833759626890272,1.123130540081881,-0.21651175618171692,0.996351420879364,0.004378974437713623,1.042146127307236,1.1134968917888972,170.5616715583596,176.19766633256094,1.0,-0.009830263095680726,0.03578893541157455,-0.13866903630885777,0.1310027799319741,92.80808749164109,0.912666217329401,81,2.7
1.108093383037199,0.6220623517790038,0.10916973650455475,0.9997144937515259,0.9866703016341072,0.7265472284436878,0.15225155651569366,0.9999379515647888,1.1035917410692853,0.7189227430851176,-0.1712520271539688,0.9999974370002747,1.0025784929012271,1.1093595779413936,0.11110708862543106,0.9999816417694092,1.0760383141154608,1.110401758334983,-0.11126859486103058,0.999995231628418,1.0360656801479546,1.3686480241186572,0.2562093138694763,0.37377309799194336,1.0733535992112018,1.396523039528601,-0.004399462603032589,0.9654765129089355,1.0150388527403398,1.6220623517790038,0.3508625626564026,0.6232562065124512,1.0512864999468294,1.6799254907220955,0.056692011654376984,0.9565194845199585,0.9787705694793589,1.098479248031717,0.1571783721446991,0.08703171461820602,1.1796316655126977,1.1282654245113743,-0.22795474529266357,0.9962074756622314,0.0038098692893981934,1.039308403508344,1.1098806681381883,167.89776590547044,176.08525263515563,1.0,0.00011618130893259537,-0.004356341678244245,0.07607522667947643,-0.30713214730770655,93.19242572842748,0.9103646536499301,82,2.7333333333333334
1.1060475974019595,0.6202842198421636,0.07638779282569885,0.9996980428695679,0.9849897940077414,0.7231961053802561,0.11586114019155502,0.99993896484375,1.1021538111648823,0.7175465967473591,-0.2042308747768402,0.9999973773956299,1.0010750450763417,1.1072822590175755,0.1113613098859787,0.9999821186065674,1.0757666550273406,1.1084128513640188,-0.11151643097400665,0.9999952912330627,1.0364258516875982,1.3661056273314003,0.2606288492679596,0.37971585988998413,1.071416702462804,1.3957573911953707,-0.004261352587491274,0.9658580422401428,1.0131664890999645,1.6202842198421636,0.3712053894996643,0.6342616677284241,1.0479153847779643,1.6768158613949746,0.07237260043621063,0.9571366906166077,0.9831996001549131,1.0998600006370374,0.1040908470749855,0.08163578808307648,1.175666723523733,1.1281824403350578,-0.23513677716255188,0.9960728287696838,0.0028280019760131836,1.038420850051841,1.1078475551907971,166.994051351687,176.08751079785216,1.0,0.007388980717662699,-0.0005303250930838874,0.05643299545875491,0.029627144994445236,93.26531340414435,0.9102546369242582,83,2.7666666666666666
1.0995077597908576,0.6158371472447007,0.1061340942978859,0.999660074710846,0.9733327142602245,0.7198523403898773,0.10703925788402557,0.9999421238899231,1.102186614844792,0.7139792104102005,-0.18085260689258575,0.9999971985816956,0.996841007497604,1.1029114759254386,0.10486279428005219,0.9999824166297913,1.0727530092200976,1.1041524684561794,-0.10499868541955948,0.999995231628418,1.0215360947196088,1.3599360433436565,0.26545265316963196,0.38480430841445923,1.067335526536207,1.3922645866284598,-0.0019523404771462083,0.9637682437896729,0.9999354242705477,1.6158371472447006,0.37500497698783875,0.6402645707130432,1.0438622192312215,1.6710301240144567,0.07439795881509781,0.9530419111251831,0.9589948268851591,1.099272938956486,0.12416784465312958,0.08527272194623947,1.170309324859859,1.1276958662223335,-0.20997770130634308,0.9951992630958557,0.0029517412185668945,1.034797008358851,1.103531972190809,169.68691876418632,176.2640206337795,1.0,0.00391990315159487,0.0008413644160551617,-0.02556448293304418,0.010179368423434554,94.44840595660195,0.9109567941541025,84,2.8
1.0831090257687073,0.6009250849796849,0.11359985917806625,0.9996528029441833,0.9557088223678301,0.7115768989504372,0.09027670323848724,0.9999463558197021,1.0950810795936043,0.7059528934458342,-0.1684466004371643,0.9999971389770508,0.9854097158214092,1.0910235061028184,0.09794645756483078,0.999983012676239,1.062803086581615,1.0924260603545428,-0.09806572645902634,0.999995231628418,0.9989887457108237,1.3454960400314706,0.2652502655982971,0.3930458724498749,1.0562445729793206,1.3776751079067295,-0.0035316396970301867,0.9619816541671753,0.9793114446701912,1.6009250849796848,0.3805268704891205,0.6473921537399292,1.0334190352029735,1.6543660163170149,0.07391886413097382,0.9492620825767517,0.9425610497470808,1.091896229995897,0.12057741731405258,0.09847334772348404,1.1563231322115677,1.1153468854512045,-0.1962757557630539,0.9941135048866272,0.0028565824031829834,1.0241064012015122,1.0917247832286805,172.5403569602995,176.60120555453366,1.0,0.0014295056151788115,-0.0014710157600841855,-0.018048956854015006,-0.016975705903005858,95.51388156231694,0.9218920373440889,85,2.8333333333333335
1.0768666758743566,0.6005758031876788,0.15066328644752502,0.9996128082275391,0.9510227720249265,0.7108740179808005,0.10722646862268448,0.9999489784240723,1.0955737695784373,0.7056824643062724,-0.1331401765346527,0.9999970197677612,0.983399297341822,1.0906578014792712,0.09547589719295502,0.9999834299087524,1.062443562578423,1.0917399689694982,-0.09563035517930984,0.999995231628418,0.9923790237092153,1.3417971358219314,0.2642274498939514,0.4105023741722107,1.0558930828841653,1.37674225476388,-1.861685268522706e-05,0.9616216421127319,0.9711842702157913,1.600575803187679,0.37028059363365173,0.6610216498374939,1.0336263079538313,1.653673091229734,0.0740031749010086,0.9475229382514954,0.9379836273196268,1.0914792212640165,0.1531551480293274,0.0974196270108223,1.150679389700231,1.1143141751801144,-0.1365698277950287,0.9929755926132202,0.0026381313800811768,1.0229214299601226,1.0911988852243846,173.26996098666763,176.71964301499833,1.0,-0.005650351515173806,-0.0002215190694885798,-0.055706177178442874,0.009826996038507932,95.65704503875467,0.9203084060816895,86,2.8666666666666667
1.0642984657126078,0.5986529075128096,0.1557387411594391,0.9996156692504883,0.9420614144026846,0.712263373638821,0.10451094061136246,0.9999522566795349,1.0920376606476652,0.7040059405724132,-0.11742725223302841,0.9999969601631165,0.9772100155207567,1.089452485153684,0.0862879753112793,0.9999836683273315,1.0587843911378005,1.0896444559460643,-0.08645449578762054,0.9999951124191284,0.982522181716489,1.3356647301427873,0.2371232509613037,0.4445548951625824,1.0524895729871608,1.372222071859391,0.002290264470502734,0.9621016979217529,0.9594820623345063,1.5986529075128098,0.30927035212516785,0.6820724606513977,1.030328754658463,1.648651945905156,0.06766559183597565,0.947414755821228,0.9375459503778885,1.0887107904479216,0.1431889832019806,0.10553396493196487,1.1437298299871823,1.109959922881989,-0.13892598450183868,0.9921998977661133,0.0042098164558410645,1.0179972033292786,1.0895484705498741,173.75716367195207,176.69265071066238,1.0,-0.012249900962897574,0.014733534605617292,-0.05107216922724659,0.11540529854970485,95.45860367385501,0.9223153873763364,87,2.9
1.0598414276124373,0.5981108081228599,0.15344586968421936,0.9996249675750732,0.9393152102468442,0.7128076508245011,0.10257942974567413,0.999955415725708,1.09062782167331,0.7038412537353667,-0.11916951090097427,0.9999969601631165,0.9741684606248664,1.0894893352965493,0.08503787219524384,0.9999839067459106,1.0567664874702023,1.0891926940122396,-0.08520476520061493,0.9999949932098389,0.9797754710216066,1.3331592617693042,0.22775280475616455,0.4766382575035095,1.0505618767520812,1.369957951506385,-0.0010862641502171755,0.9626995325088501,0.9548953543022468,1.5981108081228599,0.29336127638816833,0.7015295624732971,1.0284617509829452,1.6458697048086637,0.06492844969034195,0.947338879108429,0.9368440553150807,1.0875954755785862,0.1363329142332077,0.11509019136428833,1.139692196741322,1.1072577047818237,-0.14864860475063324,0.9916050434112549,0.004579752683639526,1.0154674740475345,1.0893410146543945,173.3172233799113,176.6864384965134,1.0,-0.004904512506721051,0.013841168743985844,0.055915371241581295,-0.006605444350762402,95.080588296792,0.9250690899849715,88,2.933333333333333
1.050628871351052,0.5936623891892684,0.15258996188640594,0.999650239944458,0.9314924067385989,0.7103175511785738,0.08000664412975311,0.9999589920043945,1.086509982220537,0.7011552059817658,-0.10944832861423492,0.9999970197677612,0.9686506937035689,1.0848419880314937,0.07638738304376602,0.9999843239784241,1.0527350467185983,1.0846222000716665,-0.07653488218784332,0.9999949336051941,0.9730688849869714,1.3312030211953,0.22808818519115448,0.5124339461326599,1.046386417452768,1.3643944899820972,0.011382141150534153,0.9636639952659607,0.9457869925742819,1.5936623891892683,0.30617356300354004,0.7216861248016357,1.0244641084866861,1.6399065430445596,0.08042062819004059,0.9476775527000427,0.9251765538898343,1.0832548888292508,0.12421230226755142,0.14159388840198517,1.133009954848742,1.1024883693116498,-0.11860911548137665,0.9911819696426392,0.004698663949966431,1.0106928702110836,1.08473209405158,173.0381606187251,176.75053853546478,1.0,-0.00560244491523904,-0.0019372228928306277,-0.0056967127762269296,-0.12482019578326126,95.5162693219262,0.9249488641874283,89,2.966666666666667
1.04720609580997,0.5929044857451757,0.15465985238552094,0.9996758699417114,0.9284865360729805,0.7111508199023797,0.07402996718883514,0.9999623894691467,1.0859907279849763,0.7009144051853023,-0.10362157970666885,0.9999970197677612,0.9648189570902836,1.0850288259840863,0.07281573861837387,0.999984860420227,1.0521689525102127,1.0849136997905018,-0.07293708622455597,0.9999948740005493,0.9596304367865712,1.3304416251241367,0.22320179641246796,0.5468127131462097,1.0451585689059022,1.3637083320288215,0.01895700767636299,0.9642869830131531,0.9375787753303039,1.5929044857451757,0.29854851961135864,0.7413879632949829,1.0240250707907015,1.6390376774574142,0.08617337048053741,0.9480754733085632,0.9193755931656398,1.0832622023454959,0.10097827762365341,0.1806601583957672,1.1295913757818286,1.1009003251705067,-0.1339271366596222,0.9907036423683167,0.005252033472061157,1.0084939548002483,1.084971262887294,176.40855784628863,177.05116315551896,1.0,-0.012136756151095059,0.005465559061420291,-0.04650685518415391,0.05265930213452001,95.47490101365705,0.9282782341885144,90,3.0
1.0408164977995993,0.589985269697764,0.1571080982685089,0.9996982216835022,0.9220799943789755,0.708293366780127,0.07290342450141907,0.9999653697013855,1.0819187348712862,0.6982566084513655,-0.0956147164106369,0.999997079372406,0.9562713577372922,1.0809561228450835,0.06714791804552078,0.9999848008155823,1.0483555696209785,1.0809277630631666,-0.06729386746883392,0.9999946355819702,0.9507299142278653,1.3255687337224258,0.20417217910289764,0.5820081233978271,1.0408917380373375,1.3583840110096146,0.02423524111509323,0.9641844630241394,0.9315226442151341,1.589985269697764,0.2633649706840515,0.7600870132446289,1.0206007192156448,1.6325776107393053,0.08919783681631088,0.9473886489868164,0.9163932214565017,1.0822754893523778,0.10827384144067764,0.21171049773693085,1.1245843483289635,1.0949797456173864,-0.1231263130903244,0.990694522857666,0.005168169736862183,1.0023134636791353,1.080941942954125,177.14307453671267,177.30862050969228,1.0,-0.01924571463324883,-0.0009779530272641102,-0.053858093539418346,-0.048370990843019164,95.22449736309939,0.9274438932327544,91,3.033333333333333
1.0196429656651445,0.5727474531712688,0.14704513549804688,0.9997225999832153,0.9048634175547183,0.6965986337935813,0.05042917653918266,0.9999681711196899,1.065377963214292,0.6873274668695912,-0.09990194439888,0.9999971389770508,0.9368414865564545,1.06448245277277,0.060727160423994064,0.999984860420227,1.0324649329672695,1.0646564467801245,-0.0608677975833416,0.9999944567680359,0.9323456341927642,1.3071289540736775,0.20162244141101837,0.61503005027771,1.0230302618450182,1.3380147146937256,0.03744596987962723,0.9634847640991211,0.915358528562553,1.5727474531712688,0.26976945996284485,0.7781104445457458,1.00533737449428,1.6079250279661732,0.1147846132516861,0.946564257144928,0.8998130875647076,1.0663850989069277,0.1008935421705246,0.24801486730575562,1.1075138160477431,1.0772216417987879,-0.12096419185400009,0.9908069968223572,0.0048465728759765625,0.984653209761862,1.0645694497764473,177.4022229946995,178.22628926244673,1.0,-0.020449925416527806,-0.0013539839441414172,-0.011558308578970446,-0.0030253598935429246,95.07216619646536,0.9367979791690509,92,3.066666666666667
0.9997787975977757,0.5601243326357296,0.12674018740653992,0.999747097492218,0.8867087975628786,0.6876931088528578,0.02998122200369835,0.9999707937240601,1.0515574956826133,0.6781546698979103,-0.11130557954311371,0.9999972581863403,0.9162826018850948,1.0508652953918869,0.058461982756853104,0.9999850392341614,1.018153118666815,1.0511721644750742,-0.05858095735311508,0.9999943971633911,0.9149761005720081,1.2913303180012488,0.20667552947998047,0.6450014710426331,1.0078722163816534,1.3208755292394116,0.05202528089284897,0.9623825550079346,0.9014759997645011,1.5601243326357297,0.28239884972572327,0.7958043813705444,0.9926058734922636,1.585649738998051,0.1502969115972519,0.946452260017395,0.8818252901775889,1.0526202803540634,0.076957106590271,0.28123727440834045,1.0935718807056007,1.06299596758715,-0.1367039680480957,0.9913445711135864,0.005050450563430786,0.9672178602759548,1.0510187299334806,177.43605019882696,178.88311312526196,1.0,-0.038663295729078624,-0.0002102574419714659,-0.14497339456775749,0.008840734245441831,94.82802661792921,0.9420078134801302,93,3.1
0.9732358989434042,0.5509970329072086,0.12398089468479156,0.9997708201408386,0.8741539611570435,0.6815309243477273,0.018266525119543076,0.9999732971191406,1.041786947425562,0.6720144870375789,-0.09871472418308258,0.9999973773956299,0.9037067566816506,1.0408847440807134,0.04862760752439499,0.9999852180480957,1.0069096008765792,1.0420491042361817,-0.048745982348918915,0.9999942779541016,0.9057247726244453,1.2806384751558153,0.17403016984462738,0.6739647388458252,0.9967513313749137,1.308005235547169,0.048946112394332886,0.9609845876693726,0.8919469757996564,1.5509970329072085,0.2326396256685257,0.811952531337738,0.9836391383042907,1.5702146114532505,0.13154402375221252,0.9459853172302246,0.8595583890960623,1.0408078492137416,0.053780246526002884,0.33542317152023315,1.0841538986590384,1.0537738415938955,-0.1377343237400055,0.991865873336792,0.005082488059997559,0.9553081787791149,1.0414669241584475,176.60041270969617,179.324584122469,1.0,-0.027275911782890704,-0.003926732365143964,0.0838564202931743,-0.028204471219194647,95.34774926855054,0.9448657442508375,94,3.1333333333333333
0.9779868421374619,0.5463635237158982,0.11627016216516495,0.99979168176651,0.8684626417124219,0.6784332942463883,0.022301293909549713,0.9999755024909973,1.0359558737978873,0.6695857851659593,-0.10477280616760254,0.9999974966049194,0.8940246583674204,1.036709248522894,0.054370105266571045,0.9999853372573853,0.9991144815907608,1.0381841856044807,-0.05448059365153313,0.999994158744812,0.8998636183743791,1.277148797570336,0.19036322832107544,0.6975740790367126,0.991108999185114,1.3024883501104645,0.04294292628765106,0.9596691131591797,0.8891321163211465,1.5463635237158981,0.25870081782341003,0.8248741030693054,0.9794983745659447,1.5651865461712036,0.13159677386283875,0.9444921016693115,0.8581866349343853,1.0373212473029008,0.051174331456422806,0.365613728761673,1.0794027817357852,1.049160565032156,-0.14663419127464294,0.9921448826789856,0.004741013050079346,0.9465695699790906,1.0374467170636872,176.32614314200154,179.20420788698598,1.0,-0.041663327974021135,-0.00414661480401417,-0.10852171923840305,-0.0017461132948927427,94.88507727238589,0.9491048039227187,95,3.1666666666666665
0.9676720249029678,0.5446853499628506,0.10456164181232452,0.9998102784156799,0.8531767707181146,0.6777928142461179,0.01849452219903469,0.9999775886535645,1.0271639161478086,0.6672998528790086,-0.12904222309589386,0.999997615814209,0.8857771345174894,1.0349251619535722,0.05813257768750191,0.99998539686203,0.9921540283157662,1.036224144032661,-0.05824444442987442,0.9999939799308777,0.89496528404323,1.2756661391749697,0.19844023883342743,0.7160581946372986,0.9861225007392693,1.2982659621944914,0.04464225471019745,0.9583310484886169,0.8876986241649976,1.5446853499628506,0.26747363805770874,0.8346645832061768,0.9777172050054228,1.561865381794463,0.13794946670532227,0.9421924352645874,0.8397137397947235,1.0414120772464601,0.04269358888268471,0.41162267327308655,1.077627337831837,1.0458396984158482,-0.1971409022808075,0.9926211833953857,0.005632311105728149,0.9389655814166278,1.0355746529931165,176.26702432303208,179.49221821597646,1.0,-0.04310190997813644,-0.0007878618450062859,-0.010850123767812029,0.024093928265725734,95.91532748938523,0.9497577288463187,96,3.2
0.9743722533765057,0.5467335107767719,0.0992371067404747,0.9998270869255066,0.8488641389791558,0.679811418100977,0.02178017422556877,0.9999794363975525,1.0230486824910887,0.6678584285438677,-0.1377706378698349,0.9999976754188538,0.8851152450808887,1.036693908288782,0.06025540083646774,0.9999851584434509,0.9894283063383613,1.0372290304495186,-0.060374099761247635,0.9999936819076538,0.8933582508279183,1.2805078443892342,0.20189562439918518,0.7336251735687256,0.9854258461779059,1.2996599010029564,0.039857424795627594,0.9572997093200684,0.8898602692706683,1.546733510776772,0.2727113366127014,0.8421461582183838,0.979541170843061,1.5637306189926323,0.12612168490886688,0.9389782547950745,0.8334786816774494,1.0469951489190694,0.05141366645693779,0.44294723868370056,1.0791357359995786,1.0443615826335229,-0.1826178878545761,0.9929431676864624,0.006405293941497803,0.9372717757096249,1.0369614693691505,177.31087285715893,179.59718325882912,1.0,-0.02507081774979842,-0.0026559137311301657,0.1390149091379837,-0.014334685978765022,96.09397107903307,0.9485817292200455,97,3.2333333333333334
0.9795671762430346,0.547727822691678,0.0893736332654953,0.9998416304588318,0.8496648655985608,0.6784636720316727,0.01155412383377552,0.999981164932251,1.0208771848821536,0.6679712867503284,-0.1460837572813034,0.9999977350234985,0.8846916257286649,1.0369339304876346,0.06091684848070145,0.999984860420227,0.9875644526675853,1.0370392910248287,-0.061039041727781296,0.9999933838844299,0.8928982325130157,1.282173987295544,0.20376572012901306,0.7491010427474976,0.9843551284269294,1.2999702387078147,0.04074954241514206,0.9554943442344666,0.8906192963317956,1.547727822691678,0.27507346868515015,0.8494406938552856,0.9798170598402236,1.5640277764643251,0.13016150891780853,0.9355855584144592,0.8328782729772474,1.0497827981956314,0.04881378635764122,0.4695059061050415,1.0790521111881877,1.0438801604550862,-0.1798054277896881,0.9931818842887878,0.005621165037155151,0.936128039198125,1.0369866107562316,177.5917039043075,179.7147321031661,1.0,-0.010698002066226566,-0.0018464059594670657,0.11130350912788549,0.006271300360307677,95.63943688359478,0.946597044317217,98,3.2666666666666666
0.9808820572939332,0.5480201996664903,0.09039260447025299,0.9998562335968018,0.8439575485561954,0.6782458734637323,0.024449070915579796,0.9999827146530151,1.0163932511691887,0.6671885553390057,-0.15188157558441162,0.9999977946281433,0.8788155149588591,1.0367666519200167,0.06515981256961823,0.9999847412109375,0.982241455586121,1.0365158383748616,-0.06527838110923767,0.9999932050704956,0.8923041673143236,1.2874726419981442,0.20794788002967834,0.7627744674682617,0.9829590826341651,1.2999400216389247,0.04044710844755173,0.9555150866508484,0.8906241058511019,1.5480201996664902,0.27690786123275757,0.854632556438446,0.9795642573458199,1.563634371688434,0.12532779574394226,0.9327816963195801,0.828142614472609,1.0492759635814284,0.05771268159151077,0.48580214381217957,1.0772291609953237,1.042330708503775,-0.17557138204574585,0.9932720065116882,0.005925506353378296,0.93052848527249,1.0366412451474392,176.5508540192482,179.10632334431102,1.0,-0.04065103390617143,-0.0003840441785087728,-0.2283302502866969,0.011142364489944281,95.4143076550047,0.9460731330759213,99,3.3
0.9365824646985669,0.5325814111271197,0.09687510132789612,0.9998694062232971,0.8289214158518081,0.670280791304506,0.022745352238416672,0.9999841451644897,0.9989030520201176,0.657037094742099,-0.14108864963054657,0.9999978542327881,0.8637682199991764,1.0244592515959292,0.06295030564069748,0.9999850392341614,0.9660588252854289,1.0239508280547098,-0.06304890662431717,0.9999932646751404,0.8796997222417542,1.2768927492964508,0.20813770592212677,0.7747065424919128,0.9693932656641099,1.286905086593908,0.048374876379966736,0.9553645849227905,0.8796036781320536,1.5325814111271197,0.289948970079422,0.8595852851867676,0.9681492552953043,1.5458199948662856,0.1520492136478424,0.9298966526985168,0.8119944524218536,1.0390967697457645,0.05729835480451584,0.521132230758667,1.063369375805098,1.0276891264928414,-0.17323580384254456,0.9934820532798767,0.007179290056228638,0.9149135226423026,1.0242050398253195,176.36723465601096,178.99820181555026,1.0,-0.03718374773895305,-0.004322931213566294,0.02245982308312631,-0.029499462044657972,95.33433561393386,0.955395748603896,100,3.3333333333333335
0.9282430577797447,0.5353412680339762,0.13097546994686127,0.9998809099197388,0.8261413044646093,0.6722104187533792,0.025638163089752197,0.99998539686203,0.994966875507347,0.657149448408146,-0.10281723737716675,0.9999979734420776,0.8620422279084327,1.024623791175996,0.053440116345882416,0.9999852776527405,0.963423192439751,1.0214703264723592,-0.05356185510754585,0.9999933838844299,0.8789209281701084,1.2790044894198818,0.1908402144908905,0.7897392511367798,0.9681593951501086,1.289822381929789,0.046168603003025055,0.9567137360572815,0.8818537814771388,1.5353412680339762,0.25801458954811096,0.8671432733535767,0.9702362497913861,1.549196038405557,0.13527189195156097,0.9307987093925476,0.8098254277334862,1.0439568207737917,0.07615096122026443,0.5510703325271606,1.063930306633863,1.0282547329932663,-0.11009267717599869,0.9938336610794067,0.008146464824676514,0.9127327101740919,1.0230470588241776,176.85938332926503,179.4476480314226,1.0,-0.031235531267526734,-0.02541593996173454,0.04487750341051907,-0.1569069003731382,94.03513157524326,0.9394646377463097,101,3.3666666666666667
0.9230731729564918,0.5365573596637377,0.13374127447605133,0.9998893141746521,0.824991751113772,0.6734399540367593,0.024929676204919815,0.9999863505363464,0.9946248089989214,0.6590463851844653,-0.10328793525695801,0.9999980330467224,0.8585990068467824,1.023812658101355,0.052582256495952606,0.99998539686203,0.9602337780957781,1.0211820589164877,-0.05270767956972122,0.9999933838844299,0.8757731245523639,1.2796795147079447,0.18895390629768372,0.8012932538986206,0.9670096942267613,1.2907740254084998,0.04536014422774315,0.9570422768592834,0.8826418561640206,1.5365573596637376,0.25118565559387207,0.8734592795372009,0.9711119950855774,1.5506559374250493,0.12906953692436218,0.9309361577033997,0.8072735902015089,1.0477115138237987,0.08311533182859421,0.566759467124939,1.0611408053857907,1.0275706096664539,-0.09847907721996307,0.9939901232719421,0.007778257131576538,0.9094163924712803,1.0224973585089212,177.69167584876075,179.46458585144106,1.0,-0.03131552759101966,-0.011270801794057119,-0.0003839848422667427,0.10659548444515946,93.99632058460683,0.9323523747148637,102,3.4
0.9000965512486532,0.5440914305852101,0.11451097577810287,0.9998993277549744,0.8243966298785822,0.6840498083482497,0.0034292913042008877,0.9999874234199524,0.9981141403165814,0.6668458984264379,-0.11620310693979263,0.999998152256012,0.8639017786937563,1.0360364991231195,0.05323158577084541,0.9999861121177673,0.9672182976561888,1.0328921930153967,-0.05334686487913132,0.9999936819076538,0.8808901092860782,1.2918741963460445,0.19372014701366425,0.8113908767700195,0.973944974197588,1.303359768486401,0.04436146467924118,0.9587041735649109,0.8892442399079943,1.5440914305852103,0.2731373906135559,0.880440354347229,0.9799387589859295,1.5655795271923725,0.12741753458976746,0.9337198734283447,0.8106165941952188,1.0576379823267275,0.02653440274298191,0.6025131344795227,1.065479144412366,1.0361152460029692,-0.22881725430488586,0.9943195581436157,0.00920647382736206,0.9155600381749726,1.0344643460692582,178.09807966151735,179.8847476984483,1.0,-0.02158220597489693,0.014807189790929777,0.07754584444308328,0.2022515962751907,94.66059451233171,0.9421873910271796,103,3.433333333333333
0.8886808928392362,0.5432799839334327,0.1356876939535141,0.9999080300331116,0.8163283339115538,0.6855847490548169,0.010435836389660835,0.9999883770942688,0.9892256116094423,0.6601233934198231,-0.10260038077831268,0.9999982118606567,0.8604113956594323,1.0356431585103059,0.05245062708854675,0.9999867677688599,0.9633246747809068,1.031508589761728,-0.052557677030563354,0.9999939203262329,0.8750672943407276,1.2912666101976045,0.19578853249549866,0.8224261999130249,0.9723170750651563,1.3018089865763207,0.04398114234209061,0.96044921875,0.8883922558655415,1.5432799839334326,0.2733438014984131,0.8871373534202576,0.9782685422947541,1.5646792084554153,0.1270155906677246,0.9361881017684937,0.8076874872252805,1.0565703413148917,0.03196685016155243,0.6305000185966492,1.0537148174273705,1.033012686831055,-0.19663840532302856,0.9944114685058594,0.013628393411636353,0.9118680352201695,1.033575874136017,179.74523991495442,179.3915503513065,1.0,-0.026696682677850605,-0.00503306500435419,-0.03918705582523987,-0.15184738580006543,94.87687271753047,0.9423937353394842,104,3.466666666666667
0.8703001987024649,0.5284226685683139,0.13276715576648712,0.9999158978462219,0.8050865845921913,0.6749982561494512,0.016057562083005905,0.9999892711639404,0.9743938775268257,0.6488472251822496,-0.10419950634241104,0.9999982714653015,0.8493658863130753,1.0256654547479742,0.05303453654050827,0.9999873638153076,0.950612001937673,1.0211386668600295,-0.053139377385377884,0.9999940991401672,0.8630505225899641,1.2791303961835452,0.20059821009635925,0.8314406871795654,0.9615770033396461,1.2888536105701882,0.052828479558229446,0.961201548576355,0.8766313825274722,1.5284226685683138,0.29076725244522095,0.8927412033081055,0.9686235380949322,1.548315853931218,0.15258267521858215,0.9372338056564331,0.7965892764633111,1.0462101923032916,0.052671849727630615,0.6561449766159058,1.035856820633736,1.0210458085414764,-0.18948866426944733,0.9942963123321533,0.014133840799331665,0.8999889441253742,1.023402060804002,179.97215546293054,179.21027421348413,1.0,-0.022585226963834144,-0.0015150042799723638,0.02820685502602243,0.025392829422448755,94.6367092259065,0.9619811070360988,105,3.5
0.8658133429366799,0.5298474429130157,0.14935702085494995,0.999923050403595,0.8028700964296185,0.6756467120304824,0.03403543680906296,0.9999900460243225,0.9699607091160272,0.6484498402426111,-0.09097920358181,0.9999983310699463,0.8471775109024351,1.0267924206058245,0.053745098412036896,0.9999879002571106,0.9473687406321969,1.021574354516172,-0.05385241657495499,0.9999942779541016,0.8622786593020156,1.2803117172107363,0.20710770785808563,0.8401175141334534,0.9619877160994479,1.288787583199671,0.05664856359362602,0.9623510241508484,0.8758678767781265,1.5298474429130156,0.2960446774959564,0.897830069065094,0.9696795197723195,1.5498357327623729,0.15069741010665894,0.9387115836143494,0.7934225981619358,1.045972249691942,0.07539205253124237,0.6796934604644775,1.029408464064206,1.0204501491424083,-0.1742856204509735,0.9940692782402039,0.01468348503112793,0.897273125767316,1.0241833875609982,179.70827813853677,178.55626167822254,1.0,-0.028605345695695235,-0.002383975895928962,-0.04670992715455792,-0.006756769139204931,94.21021958922542,0.9594138926682173,106,3.533333333333333
0.8629038157768816,0.5313475993340343,0.1591784507036209,0.9999296069145203,0.8014553690007663,0.677223814397741,0.03345515578985214,0.9999907612800598,0.9719896334602481,0.6514635576477432,-0.07346897572278976,0.9999983906745911,0.8423518037235469,1.0284350490003773,0.049461763352155685,0.9999886155128479,0.9440722041959025,1.0226049754705266,-0.049575235694646835,0.9999945759773254,0.8607897966585458,1.2817117786337977,0.20524278283119202,0.8503628969192505,0.9630704177226632,1.2885810699257407,0.06716857105493546,0.9640222787857056,0.8763595529904916,1.5313475993340342,0.29244154691696167,0.9045384526252747,0.9708910728718856,1.5506619764100662,0.16033892333507538,0.9412431120872498,0.7915375472118044,1.0436989742863223,0.07609600573778152,0.6993304491043091,1.0212451738369082,1.0225981239710318,-0.1427697390317917,0.9939016699790955,0.01389428973197937,0.8932120039597247,1.025520012235452,179.40524515331185,177.62363415816108,1.0,-0.03921322870818526,0.002669739749117065,-0.08402315670784008,0.040153800445627115,93.36153591417836,0.9587862623806631,107,3.566666666666667
0.870934500141065,0.5322378053732726,0.17473134398460388,0.9999343156814575,0.8026417044825592,0.676611796280651,0.04181176796555519,0.9999913573265076,0.9747271210095109,0.6562767157470225,-0.05444388836622238,0.9999983906745911,0.8405994820818212,1.0295933420661096,0.0469277985394001,0.9999891519546509,0.9428315702195775,1.0232376515093673,-0.04706249013543129,0.999994695186615,0.859183676515818,1.282904857648797,0.19380636513233185,0.8602372407913208,0.9632512952515653,1.285784539779127,0.06345615535974503,0.9656590223312378,0.8772597828113948,1.5322378053732726,0.2622779905796051,0.9104055762290955,0.9715340717879334,1.5491713491586663,0.15024982392787933,0.9436009526252747,0.7863960423748825,1.0394618622353566,0.08089325577020645,0.7216494083404541,1.0130145200974843,1.0234310456669509,-0.10772261768579483,0.9935523271560669,0.010961562395095825,0.8917155261506994,1.0264154967877386,179.95058077720026,177.35394080285292,1.0,-0.015405233609017244,0.002141695536250549,0.18080219350644067,-0.004018228107105117,92.58024466133264,0.9598045539052256,108,3.6
