nose_x,nose_y,nose_z,nose_visibility,left_shoulder_x,left_shoulder_y,left_shoulder_z,left_shoulder_visibility,right_shoulder_x,right_shoulder_y,right_shoulder_z,right_shoulder_visibility,left_hip_x,left_hip_y,left_hip_z,left_hip_visibility,right_hip_x,right_hip_y,right_hip_z,right_hip_visibility,left_knee_x,left_knee_y,left_knee_z,left_knee_visibility,right_knee_x,right_knee_y,right_knee_z,right_knee_visibility,left_ankle_x,left_ankle_y,left_ankle_z,left_ankle_visibility,right_ankle_x,right_ankle_y,right_ankle_z,right_ankle_visibility,left_wrist_x,left_wrist_y,left_wrist_z,left_wrist_visibility,right_wrist_x,right_wrist_y,right_wrist_z,right_wrist_visibility,trunk_lateral_inclination,center_mass_x,center_mass_y,left_knee_angle,right_knee_angle,person_height,center_mass_velocity_x,center_mass_velocity_y,center_mass_acceleration_x,center_mass_acceleration_y,body_orientation,torso_leg_ratio,frame,timestamp
0.6493028138342473,0.3074954164236812,0.286928653717041,0.9999920725822449,0.5707618067202522,0.4659493009144877,0.09110437333583832,0.9999983906745911,0.7503950143191036,0.46581014254860414,0.03646733984351158,0.9999898672103882,0.6278477784495484,0.7765849067506608,0.029511671513319016,0.999991774559021,0.709635164751584,0.7742263291397301,-0.029766464605927467,0.9999887347221375,0.6549767992809332,1.0661433137634293,0.1275421679019928,0.9931988716125488,0.7411773606617044,1.0713223256920243,0.0301780067384243,0.9292457103729248,0.6668008137503542,1.3074954164236812,0.22210593521595,0.9952558279037476,0.7561102475589638,1.3079850539849551,0.13613048195838928,0.978261411190033,0.5630335625966706,0.8527376497003214,0.14813151955604553,0.9946550726890564,0.7865440890101968,0.8332525987538973,0.06573877483606339,0.9498038291931152,9.79304313659668e-05,0.6687414716005662,0.7754056179451955,177.4522445128795,177.55015146563372,1.0,0.09791620708355811,-0.018115747373853984,0.41984420970212516,-0.11047676663677686,98.76131178311577,0.8769150278453189,0,0.0
0.6180493453948673,0.2842999738461087,0.25369471311569214,0.9999927878379822,0.5431750437053775,0.4310155239953084,0.01984317973256111,0.9999985098838806,0.7259896151959591,0.4378535088621703,0.022913020104169846,0.9999908804893494,0.5930271500610956,0.7543295009766592,0.015637192875146866,0.9999924898147583,0.6868719720259785,0.7438725399298327,-0.01587631180882454,0.9999898076057434,0.6191402464528584,1.0382811862579522,0.12012791633605957,0.9937323331832886,0.7098619197085212,1.0389729260464056,0.054180920124053955,0.9362518787384033,0.6358214143934119,1.2927454071864186,0.2046881467103958,0.9954106211662292,0.7289870736569042,1.2842999738461087,0.1448608636856079,0.980204164981842,0.5262975603353502,0.8229085674794583,0.0774989202618599,0.9950864911079407,0.7587700995557063,0.7963001273510687,0.04382474720478058,0.9546461701393127,0.005055367946624756,0.6399495610435371,0.749101020453246,178.49628342839998,179.9970230898709,1.0,0.026200542627431683,0.08516552834241331,-0.5185160886051075,0.7925022642521143,92.40732451959012,0.8599599632369774,1,0.03333333333333333
0.5960138047174336,0.277614331656822,0.2059297114610672,0.9999933242797852,0.5241719275402991,0.4144264625667866,-0.0020010240841656923,0.9999986290931702,0.7036242109517864,0.4186628238675743,-0.04084509238600731,0.999991774559021,0.5746376078470405,0.7472432731120138,0.02902921661734581,0.9999930262565613,0.6718975358906418,0.7351491285361375,-0.029214825481176376,0.999990701675415,0.6004466612733442,1.021736035384114,0.17281973361968994,0.9933988451957703,0.6876092824576805,1.0196656824817931,0.0573565848171711,0.9423115849494934,0.6173703169808366,1.2872872305934966,0.2668724060058594,0.9944067597389221,0.7102109533066115,1.277614331656822,0.1405843198299408,0.9813460111618042,0.5082064249504772,0.7946283708939347,0.09053254127502441,0.9942595362663269,0.7321148925414381,0.7707855953191329,-0.03980271890759468,0.9574707746505737,0.003238976001739502,0.6232675718688412,0.7411962008240756,178.27512821659408,178.15329794982404,1.0,0.034777863530773,0.13133937206921203,0.07363375346277269,0.38199361911225005,91.53392286664504,0.8555772734952707,2,0.06666666666666667
0.595822676850369,0.27929259774518567,0.19521696865558624,0.9999921917915344,0.5253795309701493,0.4099011580458027,-0.018610691651701927,0.9999986886978149,0.6991911132661832,0.40732272984884027,-0.05170171335339546,0.9999923706054688,0.5750210689367198,0.75482214047936,0.02971188724040985,0.999992847442627,0.6699957702469153,0.7383656673333078,-0.029848944395780563,0.9999909996986389,0.6006444863326639,1.031636777372075,0.1858050376176834,0.9907751083374023,0.6863541903800103,1.029531012984197,0.07968519628047943,0.9463125467300415,0.6196913035700253,1.2908619186941925,0.3023715615272522,0.9891275763511658,0.7100418979979195,1.2792925977451857,0.17242616415023804,0.9783058762550354,0.5068919430096263,0.7940033144877883,0.04751759022474289,0.9928919076919556,0.7263866888400952,0.7694990955213138,-0.06410905718803406,0.9562982320785522,0.0019733309745788574,0.6225084195918176,0.746593903906334,178.91378296904307,177.79784460636978,1.0,-0.0010919319418065219,0.04710444817235279,-0.27530198124498895,-0.6461283468043828,88.35969369427269,0.8665450475452375,3,0.1
0.6020536527079371,0.28254625909598113,0.2326606810092926,0.9999890327453613,0.5255019806058865,0.41115837772728375,0.015283646062016487,0.9999986886978149,0.70172723146818,0.4114370754621888,-0.037467651069164276,0.999992847442627,0.5786529306049703,0.7693790172661937,0.03299536928534508,0.9999920725822449,0.6745225187416674,0.7511014995334961,-0.033122412860393524,0.9999908804893494,0.6084691937380076,1.0417004085277977,0.19536608457565308,0.9882948994636536,0.6913375305795528,1.037457203143654,0.07233685255050659,0.9503949880599976,0.6257317385006187,1.2924006154970615,0.29224124550819397,0.9842841625213623,0.713939316560017,1.282546259095981,0.12987719476222992,0.9767376184463501,0.5132826367387492,0.7986037883038216,0.08496644347906113,0.9908391833305359,0.7337024113219944,0.7750182617053736,-0.03305899724364281,0.9570973515510559,0.0002116858959197998,0.6265877246733188,0.760240258399845,177.69063381002655,178.09175192097175,1.0,-0.004923443213904204,0.060480705351668475,-0.02899346473812149,0.098725787260062,87.64578490476791,0.9041943936642285,4,0.13333333333333333
0.5984032556201524,0.27312355582953424,0.282522588968277,0.999986469745636,0.518958920642426,0.4011300643842441,0.0637051984667778,0.9999985694885254,0.69165984447743,0.3999401066030695,-0.006249400321394205,0.9999932646751404,0.5688939695680038,0.7596709922430103,0.03855161741375923,0.9999904632568359,0.6642506473450974,0.7403776938113494,-0.03870376944541931,0.9999902844429016,0.5959574735273558,1.0261510769457478,0.19309154152870178,0.986870288848877,0.6827570973357027,1.0230498321975858,0.06664904206991196,0.9545106887817383,0.6145480798758437,1.2771607458398697,0.26265662908554077,0.9792611598968506,0.7064819360654387,1.2731235558295342,0.09477837383747101,0.9751911163330078,0.5047234154608966,0.7813689013626712,0.12510237097740173,0.9889751672744751,0.7204758148769264,0.7636942140728994,-4.0380200516665354e-05,0.9600684642791748,0.0009190738201141357,0.6165723084565506,0.7500243430271798,178.4367508700473,178.3262809001758,1.0,0.0030036816386995,0.019251872692660918,0.06325444255451602,-0.3243237668066667,86.49063620114123,0.9056697915775044,5,0.16666666666666666
0.6047784935737839,0.2763052830749147,0.27077165246009827,0.9999768137931824,0.521619406220361,0.399334412149082,0.04021167382597923,0.9999983310699463,0.6974691834130389,0.40134758598821063,-0.01168740727007389,0.9999933242797852,0.5748416479237549,0.7625615322607621,0.0330248698592186,0.9999873638153076,0.6698978820979199,0.7441401311028035,-0.033192746341228485,0.9999882578849792,0.599344140216573,1.0272525361643046,0.15774819254875183,0.9845514893531799,0.6854784078277066,1.0256763872101864,0.04736853390932083,0.9570155739784241,0.6175937850391569,1.285920219046243,0.2094765603542328,0.9724448919296265,0.7116078261681363,1.2763052830749146,0.04241165518760681,0.9703080058097839,0.5074199241933348,0.785232047626505,0.1026725322008133,0.9851328134536743,0.725377470580463,0.76910023883882,-0.015410219319164753,0.9603501558303833,0.0015443265438079834,0.6223697650108374,0.7533508316817827,178.7468641387121,177.2156872510111,1.0,0.011402083352470739,-0.013028147634764549,0.060483572150889835,-0.23399515649121239,87.36833629622085,0.901633065140008,6,0.2
0.6039960175673048,0.27905207850002633,0.29631736874580383,0.9999736547470093,0.5186755142440963,0.40376845831866226,0.058028869330883026,0.9999982118606567,0.6921903455662067,0.3990081915456864,0.015323719009757042,0.9999935626983643,0.5754138821097948,0.7657963954352107,0.027629664167761803,0.9999846816062927,0.6689653867530073,0.7465805490260166,-0.027817031368613243,0.9999864101409912,0.6001353159053515,1.0325404358503805,0.13015297055244446,0.9833222031593323,0.6864849326052469,1.0292955454278534,0.034389205276966095,0.9590581059455872,0.6197702982073899,1.2934200740190798,0.136259526014328,0.9661799073219299,0.7142969345422872,1.2790520785000263,0.02885443903505802,0.964571475982666,0.5099384540730494,0.7866484158271423,0.11563090980052948,0.9821730852127075,0.7249875638915342,0.7694036009711959,0.026285618543624878,0.9617034196853638,0.003647744655609131,0.6221896344314011,0.7561884722306137,179.00926381730793,177.19194664219785,1.0,-0.006208681664882248,0.014897755118050521,-0.12926260082535404,0.20493579226100034,87.2998185821973,0.8976216942516867,7,0.23333333333333334
0.6033068536211457,0.27920238139329506,0.2952708899974823,0.999962568283081,0.5200104419212505,0.403502017823627,0.06446848064661026,0.9999978542327881,0.6940381421281874,0.39651893919717834,0.011142527684569359,0.9999935626983643,0.5754193024398795,0.7660641218275527,0.029435744509100914,0.9999814629554749,0.6690201146723493,0.7469941670858038,-0.02963792346417904,0.9999843239784241,0.6019354610561121,1.0342608949406915,0.1327885240316391,0.9826521277427673,0.6882084002893735,1.0296496497201737,0.034697454422712326,0.9616693258285522,0.6213502490952505,1.2946801377285755,0.14383308589458466,0.9630612134933472,0.7120751150383381,1.2792023813932951,0.04210679978132248,0.9616411924362183,0.5091351727647322,0.7862593876233184,0.13296781480312347,0.9785323739051819,0.7262551242085917,0.7687118530110995,0.035547781735658646,0.9632924199104309,0.005346536636352539,0.6222197085561144,0.7565291444566783,178.61724406748988,178.4205737584487,1.0,-0.003931478504291713,-0.0023709033770003708,0.0180669073451307,-0.13679065239918708,87.17337942530831,0.897468721428649,8,0.26666666666666666
0.6018073485982987,0.2811913532908809,0.2668483555316925,0.9999411702156067,0.5184110709922566,0.40330079319016543,0.03651876002550125,0.9999972581863403,0.6924990778248566,0.3928982571555533,-0.010963717475533485,0.999993085861206,0.5756453899377527,0.7643594045760452,0.030811354517936707,0.9999765157699585,0.6700695546604993,0.7456891409938297,-0.03100159391760826,0.9999807476997375,0.6006658476767844,1.0337299857573823,0.15061818063259125,0.9806109070777893,0.6881255077988989,1.0311014585868865,0.03525305166840553,0.963056743144989,0.6197654521361993,1.2903912372631028,0.16484160721302032,0.9568626284599304,0.710524708083483,1.281191353290881,0.04389472305774689,0.9557043313980103,0.5082770090700982,0.7846216970973288,0.08155485987663269,0.9738778471946716,0.7272759221309225,0.768764074991514,-0.0068383291363716125,0.9628283977508545,0.007974684238433838,0.622857472299126,0.7550242727849374,178.9491702784897,178.50184440767677,1.0,0.010833456176129304,-0.004184251383725352,0.11234333503701668,-0.013824813069934766,87.82278289893146,0.8907879595951396,9,0.3
0.5991978316144103,0.2781252632376077,0.26340624690055847,0.9998965859413147,0.516126250090985,0.3999425586049584,0.030681822448968887,0.999996542930603,0.689705621745861,0.38971464869280603,-0.012908811680972576,0.9999921321868896,0.5717763337584842,0.7615251564458086,0.028686340898275375,0.9999644160270691,0.6667270525842478,0.7424458880168169,-0.028874292969703674,0.9999710917472839,0.597031054940691,1.0292720606555141,0.1443808525800705,0.9787351489067078,0.684853038287018,1.0272460641312369,0.03550364822149277,0.9634301066398621,0.618360369181245,1.285928273751487,0.16364429891109467,0.9483749270439148,0.7062452008085731,1.2781252632376077,0.04662950336933136,0.9449385404586792,0.5053311586152153,0.780768874653764,0.07634289562702179,0.9719926714897156,0.7230845178268279,0.7640477510796562,-0.014872211031615734,0.963731586933136,0.0078812837600708,0.6192516931713661,0.7519855222313128,179.3622527827582,178.76790184011818,1.0,-0.0030949972319530067,0.006366843055205497,-0.10537315274398977,0.07997924664015471,87.38793158360232,0.8918674208161889,10,0.3333333333333333
0.602038412535277,0.2774950555995851,0.2603941261768341,0.999889075756073,0.5167191858173898,0.3999839586167909,0.027421582490205765,0.9999963045120239,0.6916464845159737,0.3908966272334052,-0.013596637174487114,0.9999920129776001,0.5695702427930671,0.763147874217835,0.0270259790122509,0.9999614357948303,0.6661879658943788,0.7437384969769479,-0.02721448242664337,0.9999686479568481,0.5969254828031709,1.03056686344316,0.140621155500412,0.9783695340156555,0.6855233655069597,1.0262434282223452,0.0433453693985939,0.9648805260658264,0.6196069772123949,1.284979641546277,0.15823282301425934,0.9466241598129272,0.7072054654919416,1.2774950555995852,0.05976172164082527,0.942223072052002,0.506076776590445,0.7817753791193849,0.06489844620227814,0.9711335301399231,0.7233144809679106,0.7640594395540774,-0.019094150513410568,0.9654441475868225,0.006999611854553223,0.617879104343723,0.7534431855973915,179.25391030447764,178.98317384009295,1.0,-0.01300633814214456,0.009313026861802838,-0.07963464625399838,0.023654315530066784,86.92123098631127,0.8989274574744998,11,0.36666666666666664
0.6044204207140822,0.27841543747830877,0.26040521264076233,0.9998742938041687,0.5166590874733806,0.4004140034402678,0.023018768057227135,0.9999960064888,0.6922490615236051,0.39094792885326934,-0.017239252105355263,0.999991774559021,0.5694804428188163,0.7627181519538768,0.02638605609536171,0.9999592304229736,0.6670228036495865,0.7441992093604249,-0.026574095711112022,0.9999669790267944,0.5963860245349241,1.0296724256673004,0.15144625306129456,0.977155864238739,0.6857755433384152,1.026898967006758,0.05757005885243416,0.9651163816452026,0.6196082188885462,1.2815105798988033,0.1779528111219406,0.9432576894760132,0.7069657453988314,1.2784154374783088,0.07559368759393692,0.9373956322669983,0.5054993378327799,0.7828055156309064,0.07202137261629105,0.9666139483451843,0.7236853323191295,0.7657332989420024,-0.015466539189219475,0.9652590155601501,0.007292985916137695,0.6182516232342014,0.7534586806571508,179.513142536652,178.9793424562441,1.0,0.004067246478872576,0.0014723745851780762,0.13567785999137144,-0.06230096503935642,87.54490407110222,0.8993550168642128,12,0.4
0.6053590517620712,0.27780644628970413,0.24984674155712128,0.9998604655265808,0.5161786900651261,0.40009505630582604,0.017744235694408417,0.9999957084655762,0.6939071624744547,0.3901117060590597,-0.026278654113411903,0.9999916553497314,0.5694529080410545,0.7635813215945775,0.02638917788863182,0.9999570250511169,0.667156564105807,0.7449946829306011,-0.026580944657325745,0.9999654293060303,0.5964392701972978,1.0285938284532836,0.15086084604263306,0.9749886393547058,0.6863986353874324,1.027197202785728,0.05971264839172363,0.9644474387168884,0.6196673439521984,1.2808242382511497,0.17696990072727203,0.9385420680046082,0.7070010312150171,1.277806446289704,0.0762728601694107,0.93095862865448,0.5058551619304797,0.7836707028508609,0.0707971602678299,0.9600552320480347,0.7242929040750214,0.765690192296097,-0.018278326839208603,0.9644431471824646,0.007687926292419434,0.6183047360734307,0.7542880022625893,179.4471507128379,179.20101966248444,1.0,-0.0017997515051189454,0.003654857209490727,-0.04488984705604394,0.016688060119897097,87.56721383708238,0.9045485749239031,13,0.43333333333333335
0.605750573546016,0.2790207393279328,0.24502459168434143,0.9998482465744019,0.5163245856613458,0.4005953063491782,0.01639620028436184,0.9999954700469971,0.6941759964595036,0.3907896457513772,-0.02637597918510437,0.9999913573265076,0.5702003599804053,0.7645998827938363,0.02605450712144375,0.9999557733535767,0.6677012470788466,0.7463741617471383,-0.026243481785058975,0.9999644756317139,0.5966707735537121,1.0275976460592195,0.1527082473039627,0.9747862219810486,0.6869551738685846,1.0273027337342768,0.058179520070552826,0.9656033515930176,0.6193518850657994,1.279161265941157,0.17661325633525848,0.9384350180625916,0.7083430147007871,1.279020739327933,0.06393777579069138,0.9310900568962097,0.50630174757038,0.7840216672681309,0.06509344279766083,0.9551498889923096,0.7246078668733711,0.7671138768056218,-0.02007909119129181,0.9630801677703857,0.0075487494468688965,0.618950803529626,0.7554870222704874,179.40449157370244,179.06412216428234,1.0,0.003579381321343954,0.007604488286027649,0.04239579734119945,0.031116966442746204,87.83110533285361,0.9069932988592868,14,0.4666666666666667
0.6066838614815071,0.27929747766238544,0.24142050743103027,0.9998274445533752,0.5177187150178183,0.4009512413106108,0.013976944610476494,0.9999951124191284,0.6948477082190682,0.39104619598661083,-0.033733636140823364,0.9999908208847046,0.5707434694585527,0.7647896939717127,0.026558544486761093,0.9999530911445618,0.667792067756306,0.7464716599773232,-0.02674790658056736,0.9999619722366333,0.5969459085307919,1.0270642197304216,0.14598438143730164,0.9732328057289124,0.6877269547943669,1.0270204519089539,0.04292295128107071,0.9650070071220398,0.6185437016565287,1.2792974776623856,0.15002860128879547,0.9346022009849548,0.7097681198248303,1.280220939962769,0.04169479385018349,0.9258548021316528,0.5074423791304646,0.7843439171607605,0.05997819826006889,0.9506911039352417,0.7254346759551538,0.7685912972257456,-0.04343768581748009,0.9604783058166504,0.007621318101882935,0.6192677686074294,0.755630676974518,179.18890347779902,179.08935045480376,1.0,-2.3995433357211505e-05,-0.001901153713693105,-0.027745269045420167,-0.07318419816760212,87.60285469498221,0.9058088515043046,15,0.5
0.6060556879810624,0.2788816160471659,0.2602549195289612,0.9997457265853882,0.5181930008322829,0.40063072787075943,0.01587238535284996,0.999994158744812,0.6954181290631598,0.3914345769786262,-0.023634402081370354,0.9999892711639404,0.5699443793523015,0.7638478656823225,0.026246745139360428,0.9999452829360962,0.6671638887300686,0.7458452460661982,-0.026435013860464096,0.9999555349349976,0.5961003340644228,1.026804773587211,0.15316560864448547,0.9718685746192932,0.6873358809724137,1.0263780967663636,0.05284228175878525,0.9644416570663452,0.6175909767101054,1.2788816160471659,0.17150799930095673,0.929776132106781,0.7093617851622613,1.2798736609391708,0.05854482203722,0.9188605546951294,0.5065368990219151,0.7839042302862954,0.07549063861370087,0.9425072073936462,0.7245018080846279,0.7678750199895924,-0.023576080799102783,0.9563344717025757,0.007082313299179077,0.618554134041185,0.7548465558742603,179.19248432691327,179.14694614482713,1.0,-0.0011511959693871357,-0.0007398530898034151,-0.008648205321248657,0.008896383944097369,87.61804468610626,0.9044102047147072,16,0.5333333333333333
0.6051012676754673,0.27947062331919287,0.2448979914188385,0.9997202754020691,0.5186122736794816,0.4009789577486109,0.0036098782438784838,0.9999936819076538,0.695123975556107,0.39187005322992724,-0.04144446551799774,0.9999886155128479,0.5703706430245146,0.7656956314500342,0.026405876502394676,0.9999421834945679,0.6676860819301077,0.7476523181964307,-0.02658815309405327,0.999953031539917,0.596282686035363,1.0279250760955163,0.17630165815353394,0.9694778919219971,0.6879747601491362,1.0278146318045054,0.09106427431106567,0.962174117565155,0.6170870291138237,1.2794706233191928,0.23616540431976318,0.9238238334655762,0.7096166520094984,1.2807264817895585,0.13819187879562378,0.9114463925361633,0.5069740322507785,0.7841496642514852,0.07327067852020264,0.9353340864181519,0.7246898967696342,0.7689467674975541,-0.031535740941762924,0.9533053636550903,0.007010072469711304,0.6190283624773112,0.7566739748232325,179.08462054539726,179.2510552145359,1.0,0.00021322183535597735,0.009532439436346121,0.010137666210966149,0.07628105282696207,87.57316977761349,0.9088278829313612,17,0.5666666666666667
0.6048426171955481,0.2792167633644469,0.24643906950950623,0.9997218251228333,0.517971571798888,0.4008334674525975,0.004152315203100443,0.9999935626983643,0.695530861012005,0.39176732126349617,-0.03134428709745407,0.9999885559082031,0.5694572304164572,0.7669375891928584,0.02508794143795967,0.9999406933784485,0.6669917006799377,0.7480683294385048,-0.025271346792578697,0.9999520182609558,0.5952360721264344,1.0299146560274823,0.1678411215543747,0.9688714742660522,0.6878193693812502,1.028146894139389,0.08089865744113922,0.9622593522071838,0.6167440094744544,1.279216763364447,0.2131248265504837,0.920899510383606,0.7089102130724707,1.2800509506780462,0.11732801049947739,0.9079619646072388,0.5061106233235777,0.783615375325367,0.07036475837230682,0.9316331148147583,0.7240930104534847,0.769022322134973,-0.016421880573034286,0.9526426196098328,0.006981313228607178,0.6182244655481974,0.7575029593156816,179.3322021866463,179.46692934014845,1.0,-0.003308941264989732,0.009698261550632697,-0.02671800449035599,0.0013008726508767466,87.05575892954252,0.9130581961718197,18,0.6
0.6040467330111897,0.27879952122147555,0.26021134853363037,0.9997232556343079,0.5169781436125915,0.4003443265971079,0.012709470465779305,0.9999935626983643,0.6944874903192717,0.39088012244030057,-0.017815329134464264,0.9999885559082031,0.5691023838777757,0.7642471444438355,0.024116043001413345,0.9999403357505798,0.666385575309616,0.7460643760841439,-0.024312905967235565,0.9999515414237976,0.5939837655815676,1.028992110706877,0.13659968972206116,0.9687840342521667,0.6871317421164221,1.0271960142999168,0.052010856568813324,0.9627233147621155,0.6159901242548871,1.2787995212214756,0.14148744940757751,0.9203251004219055,0.7082389694819501,1.2790491767652927,0.050022415816783905,0.9065144658088684,0.5055378930039159,0.7831804267268522,0.062227796763181686,0.9313622713088989,0.7233072713937181,0.768652903324933,-0.01655723713338375,0.9520342946052551,0.007291585206985474,0.6177439795936959,0.7551557602639897,179.66535067433693,179.429872799526,1.0,-0.0012779162057726238,-0.015395840378366717,0.015960273001343006,-0.1973215185375172,87.56466456229074,0.9066047992844418,19,0.6333333333333333
0.6013179002643869,0.27897328044239994,0.25829562544822693,0.999703049659729,0.5153043245894176,0.4004366878557413,0.012358385138213634,0.9999933242797852,0.6942660434847683,0.39054813052686693,-0.019698454067111015,0.9999881386756897,0.5690664278118771,0.7633986381755318,0.024083876982331276,0.9999377131462097,0.6664828042063133,0.7450036459991678,-0.02427956648170948,0.9999491572380066,0.5936378209454017,1.0296157686730836,0.13523034751415253,0.9676676988601685,0.6872377838710517,1.027285425184842,0.05283321812748909,0.9615851640701294,0.6163259299764986,1.2799978173347162,0.14880654215812683,0.9166586995124817,0.708773956468792,1.2789732804423999,0.061135806143283844,0.8995400667190552,0.5054637549369982,0.7833996695235782,0.0533289834856987,0.9291658997535706,0.7231745937760952,0.7690727165194771,-0.03555189445614815,0.9500686526298523,0.007615089416503906,0.6177746160090952,0.7542011420873498,179.90429399463642,179.31443378519083,1.0,-0.0019039296177454945,-0.009946442177251125,-0.004803298960326515,0.04190418228286688,87.73224644381997,0.9019749886129443,20,0.6666666666666666
0.5997618957986797,0.27929741328627483,0.25330865383148193,0.9997178912162781,0.5153962147171773,0.4009759104141366,0.01126671489328146,0.9999933242797852,0.694707640511998,0.3910843497243277,-0.0350964330136776,0.9999887347221375,0.56732774103335,0.7644267257345413,0.024831784889101982,0.9999399781227112,0.6659572882627851,0.7456237828133988,-0.02502584084868431,0.9999514222145081,0.5929336445365082,1.0312114104112706,0.152550607919693,0.9656714797019958,0.6875980546393332,1.027809600915391,0.07188450545072556,0.9605550765991211,0.6165445665161929,1.2807474639218572,0.18707938492298126,0.914460301399231,0.7087352537518898,1.2792974132862749,0.11034570634365082,0.8966050744056702,0.5056891249455651,0.7839386597597161,0.05343452841043472,0.9231579303741455,0.7238534259072925,0.7704253807196249,-0.04115883633494377,0.9524581432342529,0.007611453533172607,0.6166425146480676,0.75502525427397,179.9227575170944,179.58107789670683,1.0,-0.012102658810424976,0.0017586399436977462,-0.07642075841556618,0.08777916563125196,87.33817428006788,0.9032609528958923,21,0.7
0.5994459348633446,0.28012698666101454,0.29163962602615356,0.9997236132621765,0.5137325735781181,0.40212586024143815,0.05473936349153519,0.9999931454658508,0.6945730174269547,0.3913974015627667,-0.0013580190716311336,0.9999893307685852,0.5656176601820367,0.7650878128725307,0.02620490826666355,0.9999403357505798,0.6655833871130549,0.7460718200007092,-0.026410531252622604,0.999953031539917,0.5924862350714049,1.032168132943084,0.159282848238945,0.9651814103126526,0.687772884054537,1.0281758725731558,0.07016590237617493,0.9626463055610657,0.6162081586178557,1.281117011434883,0.18747439980506897,0.9132083058357239,0.7089289578758989,1.2801269866610145,0.0971394032239914,0.8992109298706055,0.5048364550758337,0.783492741529718,0.1216883659362793,0.9167510867118835,0.7246414066333985,0.7713579439413487,0.027055811136960983,0.9560832977294922,0.008251488208770752,0.6156005236475458,0.7555798164366199,179.69849374214232,179.69765448793214,1.0,-0.010316361337056433,0.0014902722884282515,0.013826276962067742,-0.002076995716666306,87.36485014901675,0.9024682735572498,22,0.7333333333333333
0.5992853719986596,0.28098865786768024,0.27330273389816284,0.9997314810752869,0.5120781928398092,0.4034160018135715,0.03903697803616524,0.9999930262565613,0.6938534472178999,0.39184686280223213,-0.024633919820189476,0.999989926815033,0.5625256066049465,0.7667366534482339,0.02995624765753746,0.9999416470527649,0.6641374627027541,0.7482923936935536,-0.030156534165143967,0.9999549388885498,0.591948675506994,1.0329113552927744,0.16460886597633362,0.9633485674858093,0.6882873137231895,1.0289668255907414,0.06336119771003723,0.963988721370697,0.616795621475853,1.2809886578676801,0.19031782448291779,0.9122059941291809,0.7094586011598303,1.2810319378655908,0.07745428383350372,0.9012307524681091,0.5034586477362438,0.7837808285393271,0.09778551757335663,0.9125486612319946,0.725661298298718,0.773311490120051,-0.004539061337709427,0.9593906998634338,0.008890539407730103,0.6133315346538503,0.7575145235708938,179.41166908151854,179.8833367387796,1.0,-0.022520311747075576,0.0104456766378374,-0.09841367606960227,0.07225870811909396,87.61689881060074,0.9065773926476207,23,0.7666666666666667
0.5983138210996366,0.28162147923969877,0.2636571526527405,0.999734103679657,0.5123264728913811,0.4049982390017465,0.02235347218811512,0.9999926686286926,0.6929658597161998,0.3927179793210017,-0.02710844948887825,0.9999902248382568,0.5635578728027085,0.7709727489333317,0.025704383850097656,0.9999418258666992,0.664420726002253,0.7519789542104898,-0.025897622108459473,0.9999558329582214,0.5928592050274688,1.0350979668577156,0.162460058927536,0.9634536504745483,0.6895699610594683,1.030992656072854,0.0800849124789238,0.9636045098304749,0.6180705758204904,1.2832871366378238,0.20666614174842834,0.9127480387687683,0.7108205381417144,1.2816214792396987,0.13018222153186798,0.9000574946403503,0.5042126105350149,0.7840300356141908,0.05584672838449478,0.9074841737747192,0.727178596349065,0.774877313494819,-0.027510086074471474,0.9620930552482605,0.009418129920959473,0.6139892994024808,0.7614758515719108,179.469929017364,179.69595674619293,1.0,-0.0041108511958383364,0.01755175125412859,0.13261922688389696,0.05091541230207357,87.30418520035454,0.9172609881066838,24,0.8
0.5971187040077077,0.28402716349845125,0.23494693636894226,0.9997482895851135,0.5119214642599844,0.40649115548929976,-0.0012072278186678886,0.9999927282333374,0.6933509151078853,0.3942730494884076,-0.051869265735149384,0.999990701675415,0.562576624974048,0.7752765344194322,0.025608781725168228,0.9999432563781738,0.6642210120797603,0.7572691267811814,-0.025799820199608803,0.9999573230743408,0.5940802859867425,1.0393445900530491,0.16488292813301086,0.9628768563270569,0.6914989470398056,1.033902420293158,0.0821579098701477,0.9627863764762878,0.6204560681011898,1.2884795003609977,0.2058780938386917,0.913272500038147,0.7114800919283218,1.2840271634984513,0.1306978017091751,0.8983091115951538,0.504120084851512,0.7880753257452385,0.044192999601364136,0.9065782427787781,0.7302717055809952,0.7777403906778163,-0.04876628890633583,0.9650300741195679,0.009335756301879883,0.6133988185269041,0.7662728306003068,179.24005687966934,178.93580767807725,1.0,-0.02173088075784511,0.014871758064118544,-0.1331591212713805,-0.020764515916780815,87.77469016990587,0.9232500631312212,25,0.8333333333333334
0.5966896923924478,0.28603177863713136,0.23350457847118378,0.999732255935669,0.512907669332682,0.40817154901376096,-0.0013422465417534113,0.9999918341636658,0.6935323114270626,0.39524055851476114,-0.05149027705192566,0.9999907612800598,0.5625165012401661,0.7776898580450576,0.02545352652668953,0.9999399185180664,0.6642804923663157,0.7601024536173671,-0.02564278244972229,0.9999558925628662,0.595483716371924,1.0420479651295196,0.16379950940608978,0.9621662497520447,0.6923079599695405,1.0349419881589466,0.08283012360334396,0.9614469408988953,0.6216765334292401,1.2934364542006112,0.2015160620212555,0.9126207232475281,0.7114646267168767,1.2860317786371314,0.12738701701164246,0.8941710591316223,0.5047085493440888,0.7908742731879346,0.04856758564710617,0.9008498191833496,0.7323884631499964,0.7796974722787962,-0.05784187465906143,0.9677249193191528,0.009856939315795898,0.6133984968032409,0.7688961558312123,178.8398653722521,178.54012171010353,1.0,-0.010880417941962341,0.005902528692103398,0.08100564089099983,-0.06690620663049748,87.84108398848167,0.9228473143002598,26,0.8666666666666667
0.599303548457645,0.28835781818221873,0.22104184329509735,0.9997458457946777,0.5157093010011262,0.41060826737778733,-0.011051440611481667,0.9999918341636658,0.6966786798981563,0.3976569035484262,-0.06665580719709396,0.999991238117218,0.5655404613728395,0.7823359688015137,0.02544752135872841,0.999941885471344,0.6674286041577775,0.7647842239562014,-0.025637060403823853,0.9999576210975647,0.5992268787188781,1.0480719458758063,0.16832886636257172,0.9612796306610107,0.6947065092037812,1.0348692516406055,0.10091779381036758,0.9597434401512146,0.6246453164063545,1.3008154509231946,0.2134089171886444,0.913786768913269,0.711191958544212,1.2883578181822186,0.15977053344249725,0.8928512334823608,0.5066028321266504,0.7966287973623721,0.04281514137983322,0.8993146419525146,0.736851892140508,0.7847019127565641,-0.07135704159736633,0.9700943231582642,0.00981190800666809,0.6164845327653086,0.7735600963788576,178.5182818489237,177.9537778420836,1.0,-0.005473355869701966,-0.0006400884298434792,0.042803361832624454,-0.0514421208579815,87.86102616930174,0.9273168150013741,27,0.9
0.6042623118920841,0.29270977781408136,0.18878920376300812,0.9997614026069641,0.5206726640830613,0.41661786381728083,-0.027799587696790695,0.9999918341636658,0.7022764260264243,0.40244286523837525,-0.0876641720533371,0.9999914169311523,0.5727283865873529,0.7926636818111541,0.025651955977082253,0.9999422430992126,0.6748535237806811,0.7752116077219005,-0.025839507579803467,0.9999575614929199,0.6064236093695738,1.060436238559792,0.1739519089460373,0.9620223641395569,0.7010517372301732,1.039091798876213,0.11878453195095062,0.957500159740448,0.6308832312613379,1.3168081153167543,0.22996342182159424,0.9161081910133362,0.7160580163178258,1.2927097778140815,0.2076960802078247,0.8897161483764648,0.5104449641589645,0.8068032923532702,0.005476390477269888,0.9038912653923035,0.7456508540657869,0.7937412455410675,-0.11021514981985092,0.9724240303039551,0.010612517595291138,0.623790955184017,0.7839376447665273,178.27778066472874,177.71639015639911,1.0,-0.0002993838024452175,0.009442626524613217,0.042529524063087056,0.081909437303766,88.18377185937723,0.939656754754268,28,0.9333333333333333
0.6103918677781606,0.2965935778608834,0.1773911714553833,0.9997743368148804,0.5263386577359793,0.42167906096648755,-0.03462916612625122,0.9999917149543762,0.7090480404538225,0.4067212960254112,-0.10314106941223145,0.9999916553497314,0.5790443694674965,0.8013944475310478,0.02666858769953251,0.9999428391456604,0.6809630731297466,0.7836270427622111,-0.026859795674681664,0.9999579787254333,0.6130839780837226,1.0708601790517995,0.17253246903419495,0.9622818231582642,0.7066422272343554,1.0440488775497945,0.10951938480138779,0.9552872180938721,0.6370207167719035,1.3314432546838786,0.21664348244667053,0.9184515476226807,0.7207994631798824,1.2965935778608835,0.18503883481025696,0.8878377676010132,0.5156690701118541,0.8170525998747867,0.005741978995501995,0.9053944945335388,0.7539524484005651,0.8014027389973399,-0.13057665526866913,0.9747085571289062,0.011075228452682495,0.6300037212986215,0.7925107451466294,178.04875154947118,177.57704548210853,1.0,-0.004790478704312693,-0.001022259687841755,-0.029308183385492723,-0.06902964302751363,88.01339748752314,0.9475133016128363,29,0.9666666666666667
0.6114370645388595,0.2980171578350573,0.18311309814453125,0.9997827410697937,0.5267700842749231,0.42453091007729593,-0.026922229677438736,0.9999915361404419,0.7108159262001631,0.40838513526316456,-0.09628421068191528,0.9999917149543762,0.5814511941927054,0.8051016401395779,0.0277399979531765,0.9999431371688843,0.683497652727264,0.7868853637948517,-0.027938704937696457,0.9999578595161438,0.6160683814966945,1.0748782770298566,0.1725943684577942,0.9629294872283936,0.7067390808901168,1.045711630058973,0.12201805412769318,0.9529023766517639,0.6395004648406838,1.3366794751879796,0.22252270579338074,0.9211295247077942,0.7202266724053109,1.2980171578350572,0.21879248321056366,0.8852364420890808,0.5175253482709385,0.8200864343889425,0.013968294486403465,0.908552348613739,0.7567675822034317,0.8029756268016339,-0.126761794090271,0.9766998887062073,0.011909961700439453,0.6324744234599847,0.7959935019672149,177.8024161951098,177.9288292183172,1.0,0.0007479235933762468,0.003886661968466458,0.04367836068319359,0.03861843551700457,88.05516401894944,0.9520826983391838,30,1.0
0.6116764848656486,0.30225525296408184,0.19208018481731415,0.999770998954773,0.5283059410188302,0.42675670030378204,-0.022753922268748283,0.9999904036521912,0.7127490473527661,0.4100415133970412,-0.08764774352312088,0.9999914169311523,0.5838300386392243,0.8078959183099476,0.027720019221305847,0.9999375343322754,0.685766028234492,0.7892343020603182,-0.027919257059693336,0.9999538660049438,0.6183309323805064,1.0782220785586145,0.1720520555973053,0.964312732219696,0.7070779462519968,1.0501254593428162,0.11934836208820343,0.9522228837013245,0.6414090157757717,1.3407933219333668,0.21982979774475098,0.9234766364097595,0.72089488738487,1.3022552529640818,0.20756535232067108,0.8814670443534851,0.518845162899374,0.8224026284820469,0.020632077008485794,0.9096392393112183,0.7595133618637803,0.8040725228517402,-0.11695100367069244,0.9785685539245605,0.01229184865951538,0.6347980334368581,0.7985651101851329,177.74980662532417,178.46666201262295,1.0,0.002671784866211755,0.000752400048187361,0.014218492587033614,-0.023281297643925607,87.91413784040205,0.9463578253784399,31,1.0333333333333334
0.6142317687420732,0.30388257229963395,0.1786755621433258,0.9997847080230713,0.5297685168750597,0.42864874107230316,-0.030220303684473038,0.9999905228614807,0.7138157218194909,0.413344829897604,-0.08727781474590302,0.9999915957450867,0.5874990629459271,0.8114285911904406,0.023819636553525925,0.9999393224716187,0.6884835978156799,0.7923553882719787,-0.024029569700360298,0.9999548196792603,0.6210063060560496,1.08254475507568,0.16686490178108215,0.9662505388259888,0.7090835911227998,1.053578132712896,0.13062521815299988,0.9511330723762512,0.6439737887285593,1.3457716204184922,0.21698343753814697,0.9279289841651917,0.7189188292993134,1.303882572299634,0.2403392344713211,0.8825278282165527,0.5210021865781714,0.8256338528723899,0.009770030155777931,0.9133126139640808,0.7633886845367922,0.8045307340004311,-0.12439538538455963,0.9803169369697571,0.011209994554519653,0.6379913303808035,0.8018919897312097,177.94117427670264,177.74116486098026,1.0,0.0053273965668951895,0.001442484577716158,0.020154657255946593,0.005235628794434698,87.88105845114261,0.9501408912809731,32,1.0666666666666667
0.6263989377298785,0.3119416888287582,0.17626860737800598,0.9997871518135071,0.5401527641888869,0.43884326972439286,-0.030608585104346275,0.9999899864196777,0.7276214254901263,0.42368987175991824,-0.0978318601846695,0.9999914169311523,0.5998418942550308,0.826577133434884,0.023869900032877922,0.9999380111694336,0.7023607694612359,0.8070833995979767,-0.024078303948044777,0.9999529123306274,0.634322937435956,1.1003882689736126,0.16101163625717163,0.9680613279342651,0.7221131584217821,1.0706299845516423,0.140874981880188,0.9491164088249207,0.6567413744594703,1.3695797094888882,0.20504994690418243,0.9316288828849792,0.7280102794873583,1.3119416888287583,0.2552715241909027,0.8789727091789246,0.5314208925045654,0.841685513624391,0.004354775417596102,0.9171532988548279,0.780374042526902,0.8188608793502471,-0.16725924611091614,0.9818974137306213,0.01088443398475647,0.6511013318581333,0.8168302665164304,177.58316667441662,177.11369060479328,1.0,0.0036955109089626603,-0.00697790385123986,-0.01311421370985093,-0.06377880113044124,87.98547635426782,0.9618259484178523,33,1.1
0.6292190680560596,0.3144157526317772,0.1818799376487732,0.9997905492782593,0.5424897063788953,0.4426587057552616,-0.027872854843735695,0.9999895691871643,0.7305285319878047,0.4268380442503214,-0.09224026650190353,0.999991238117218,0.6024861932317587,0.8298956821955104,0.023593192920088768,0.9999364018440247,0.7054406949764995,0.8101759773398677,-0.02380199357867241,0.9999508857727051,0.6369904478395978,1.1034957647244696,0.16000159084796906,0.9697177410125732,0.7243831076952921,1.072720812463606,0.14180800318717957,0.9477421641349792,0.6587597523997895,1.3741454202927246,0.20391806960105896,0.9347432851791382,0.7283898953355472,1.3144157526317772,0.25238198041915894,0.8757137656211853,0.5337116299502793,0.8448164747268395,0.009513605386018753,0.9198670387268066,0.7846929946046193,0.8213737171929888,-0.1491505354642868,0.9832630157470703,0.011316418647766113,0.6539634441041291,0.820035829767689,177.41086067868827,176.82305820911006,1.0,0.001041837119662109,-0.0015446280530219216,-0.019766757736615927,0.04045331706288358,87.96408881336177,0.9628803040017085,34,1.1333333333333333
0.6321588081000988,0.31725599332814763,0.15820316970348358,0.9997965097427368,0.5455678640477614,0.44474957524028425,-0.03861137479543686,0.9999889731407166,0.733623431037293,0.42875218819970834,-0.10613878071308136,0.9999910593032837,0.6052535961622075,0.8336136604808867,0.023447636514902115,0.9999363422393799,0.7085898801938099,0.8138120553013074,-0.02365400269627571,0.999950647354126,0.6405650022519992,1.1082686258058747,0.16484321653842926,0.9710341691970825,0.7270569642272287,1.0780669968036323,0.15111717581748962,0.9454168081283569,0.6617653727588643,1.3793569718298055,0.23786094784736633,0.9374716281890869,0.7297434173204279,1.3172559933281476,0.28974440693855286,0.8724515438079834,0.5371970355851449,0.846640790003371,0.0065469080582261086,0.9207394123077393,0.7893489593039061,0.8248406257768288,-0.16471917927265167,0.9844471216201782,0.011391311883926392,0.6569217381780087,0.823712857891097,177.14557077584408,176.6459553226301,1.0,5.6687720464634315e-06,-0.0002445670225759938,-0.008056125476973057,0.010116181470917545,87.87839116472493,0.9639403753341707,35,1.1666666666666667
0.6402213384261733,0.3237096289400983,0.16128773987293243,0.9998068809509277,0.553433503613367,0.450591045047367,-0.029444247484207153,0.9999889731407166,0.7422690199266108,0.4338459772435044,-0.09233997762203217,0.9999909996986389,0.6147692062884946,0.8428973659322346,0.021972831338644028,0.9999376535415649,0.7171255255103431,0.822793782810886,-0.02218833565711975,0.9999507069587708,0.648900287044937,1.1199524166928505,0.16004455089569092,0.9725374579429626,0.735553683009413,1.0896352072774989,0.1570793092250824,0.942409873008728,0.669564702464281,1.3919093769530022,0.2302301675081253,0.9403129816055298,0.7394919155780773,1.3237096289400982,0.302533358335495,0.8668733239173889,0.5471732686621076,0.851997542161452,0.008723142556846142,0.9234223365783691,0.7992026654205985,0.834224006582126,-0.15763318538665771,0.9852567315101624,0.011785715818405151,0.6659473658994188,0.8328455743715603,177.32220068839757,177.01330052463248,1.0,0.009988287096129811,-0.0038358066740149604,0.07476106120406616,-0.026873969643246107,87.77415725074435,0.96847215608503,36,1.2
0.6505184571744673,0.332375504610643,0.1649111956357956,0.9998142719268799,0.5620667461735668,0.4555270161497608,-0.03552301228046417,0.9999887347221375,0.7489275022428563,0.4395170442561274,-0.0907476618885994,0.9999905824661255,0.6221622722965021,0.8499926647113867,0.017940804362297058,0.9999370574951172,0.7237918847968586,0.8297035467444042,-0.01815519854426384,0.999949038028717,0.6561432743259604,1.1293400101823028,0.15255527198314667,0.9741655588150024,0.7417912655242972,1.0988701264521779,0.15684452652931213,0.9391903877258301,0.675220361804785,1.4015674290641726,0.22713696956634521,0.9430636167526245,0.7462109690488393,1.3323755046106431,0.2967376112937927,0.8623700737953186,0.5584341558363707,0.856081210440464,0.003949906677007675,0.9243321418762207,0.8064312121568703,0.8412474465254044,-0.15731069445610046,0.9856080412864685,0.011174976825714111,0.6729770785466803,0.8398481057278955,177.07297920212216,177.25862576794933,1.0,0.011243130345970387,0.0003450309177229269,0.008981094426778023,0.03230000672147214,87.37223567238634,0.9612002382935411,37,1.2333333333333334
0.6544290444388434,0.3342761408516169,0.17044614255428314,0.9998244643211365,0.5658974369705302,0.45848280359912413,-0.03336544334888458,0.9999885559082031,0.75007603584912,0.4435246453090984,-0.09302211552858353,0.9999905228614807,0.6263971613966272,0.8501353698613453,0.018349194899201393,0.9999337792396545,0.7253210181877068,0.8297132639232722,-0.018561679869890213,0.9999452829360962,0.6588752092213613,1.1295938699176729,0.1461915671825409,0.9753077030181885,0.742016449366274,1.1001268075542694,0.15125888586044312,0.9321932792663574,0.676161290121455,1.4019687583834808,0.18478427827358246,0.9444409608840942,0.7456203906068972,1.3342761408516168,0.28601890802383423,0.8482127785682678,0.5626737817374403,0.8557811971394976,0.01927085965871811,0.9244258403778076,0.8069558047445515,0.842723956429857,-0.172218456864357,0.9861660599708557,0.01043882966041565,0.675859089792167,0.8399243168923087,177.00231617389377,177.34882826755708,1.0,0.020901486373271157,-0.0006306336289373335,0.07327657580039201,-0.007404359978764174,87.11681158843928,0.9560640975802753,38,1.2666666666666666
0.659720422510844,0.3369272715957911,0.18180833756923676,0.9998207688331604,0.5710882794550426,0.46184599364457957,-0.030429279431700706,0.9999877214431763,0.7562765370057163,0.4497261052905755,-0.08080349117517471,0.9999898076057434,0.6350812573575437,0.852953939623356,0.016817903146147728,0.9999293684959412,0.7302900740387407,0.8328655031201445,-0.01702779531478882,0.9999403357505798,0.6631463078631923,1.133518037081945,0.13134083151817322,0.9762843251228333,0.7451453163209901,1.104952732062159,0.14801539480686188,0.926566481590271,0.6812497722093644,1.4080340317225288,0.16228607296943665,0.9455357193946838,0.749303864309524,1.3369272715957912,0.2729344367980957,0.8367430567741394,0.5680102554749606,0.8559925353102568,0.01917121559381485,0.9253058433532715,0.8108587664594622,0.8477319861127459,-0.16309066116809845,0.9866084456443787,0.008418917655944824,0.6826856656981422,0.8429097213717502,178.06067250466702,177.9019215629714,1.0,0.02831285298963587,-0.007095245333354025,0.05624410829994406,-0.04968903737619605,87.37809618914184,0.9546322813189887,39,1.3
0.6642798135539799,0.3448481813365272,0.1679893285036087,0.9998270869255066,0.5759949004979998,0.4683110281080247,-0.029364272952079773,0.9999871850013733,0.7623079380723327,0.45652966951466667,-0.0959353893995285,0.9999898672103882,0.6403220244905806,0.8537548041993376,0.02364378795027733,0.9999286532402039,0.7347237044116489,0.8356608223102007,-0.023850228637456894,0.9999402761459351,0.6655515022959085,1.1321261348142515,0.13215525448322296,0.9755591750144958,0.747898106940798,1.109350460751392,0.11041302978992462,0.9229155778884888,0.6847987461054263,1.4028418389127366,0.17328616976737976,0.9431084990501404,0.7514770085522683,1.3448481813365272,0.21573898196220398,0.8275361061096191,0.5714252616296108,0.8556797783532221,0.01686451956629753,0.9247115850448608,0.8144798192298545,0.8529528608281153,-0.1747688502073288,0.9873173236846924,0.008153200149536133,0.6875228644511148,0.8447078132547691,178.8880422884485,178.11478858456198,1.0,0.01732159092708654,-0.010352483702419523,-0.08437766177090024,-0.024563786860045473,88.62453577381622,0.9441084516738111,40,1.3333333333333333
0.6638446176839838,0.3433332100265831,0.17114873230457306,0.9998302459716797,0.5784079053461295,0.46884796737415096,-0.02117038145661354,0.9999867081642151,0.7631486563409509,0.45699857535591293,-0.09103131294250488,0.999989926815033,0.6402147479427429,0.8504974396234083,0.02427002415060997,0.9999300241470337,0.7337246582609271,0.8334935676625599,-0.024472977966070175,0.999941885471344,0.6640454315343136,1.127050506401919,0.15351992845535278,0.9748189449310303,0.7459894264676521,1.1065418871097057,0.11718766391277313,0.9196687340736389,0.6829649404537955,1.3947378608048957,0.22228693962097168,0.9420367479324341,0.7485203512205886,1.3433332100265831,0.23332400619983673,0.8233493566513062,0.5720924085705151,0.8542277480831922,0.03717678040266037,0.9208918809890747,0.8125767042099201,0.8545207627300149,-0.14260631799697876,0.9878028631210327,0.008219420909881592,0.686969703101835,0.841995503642984,179.11777409175488,178.04049828973868,1.0,0.0077811916781356455,-0.005536113984075021,-0.07055490724465893,0.0355910942467488,88.89291872017394,0.945762295614684,41,1.3666666666666667
0.6686269943024451,0.342199186020677,0.15749771893024445,0.999838650226593,0.5829042456970099,0.4705997736168955,-0.021302012726664543,0.999986469745636,0.76555054639518,0.4590783733759222,-0.10293011367321014,0.9999900460243225,0.6446148081070083,0.8484775248093976,0.02934345044195652,0.9999315142631531,0.7351521724227787,0.8324443399771729,-0.02954188361763954,0.9999434947967529,0.6646058244461355,1.1239905906504915,0.15732361376285553,0.9738430976867676,0.745114402211607,1.1052222705103232,0.11211657524108887,0.9170198440551758,0.6821231263611871,1.3908340268117327,0.21779021620750427,0.9402576684951782,0.7462296892719705,1.342199186020677,0.22780494391918182,0.8179391026496887,0.5770024933038255,0.8523070060432123,0.032873161137104034,0.9144312739372253,0.8117562155851175,0.8550188829599779,-0.16150835156440735,0.987898588180542,0.008001565933227539,0.6898834902648936,0.8404609323932852,179.60580588276278,178.17805772940864,1.0,0.029444117930298663,-0.004076052140512649,0.170481633045147,0.011432759847257334,89.23265284684942,0.947015122850942,42,1.4
0.6768036425988707,0.3441977220356181,0.16285215318202972,0.9998418092727661,0.587431991891954,0.4726926530143372,-0.015376672148704529,0.9999859929084778,0.7717725646982633,0.4610422656570509,-0.10012394189834595,0.9999899864196777,0.6475757287526788,0.849190547304913,0.03050258196890354,0.9999310970306396,0.7381300068462588,0.833540384755927,-0.030699947848916054,0.9999434351921082,0.6659005688865527,1.122909299450476,0.15707999467849731,0.9730542898178101,0.7462103920063597,1.106113104217138,0.11275657266378403,0.9135605096817017,0.6820783050605255,1.3924764427509706,0.2150692194700241,0.9380232095718384,0.7472346141557886,1.344197722035618,0.22977378964424133,0.8093340992927551,0.5817013560033791,0.8532013610394459,0.03188827261328697,0.9118559956550598,0.8135849327927769,0.8570475845166354,-0.17111757397651672,0.9882892966270447,0.008083730936050415,0.6928528677994689,0.84136546603042,179.60431041987283,178.54845150024738,1.0,0.017867925224246236,0.0010208741423757728,-0.08873409557769878,0.03900671946983022,89.27068349883618,0.9431250532774531,43,1.4333333333333333
0.6851358684285879,0.35110738074692355,0.178729847073555,0.9998447299003601,0.5971504087042717,0.4777535553932547,-0.015379443764686584,0.9999860525131226,0.782194898950807,0.46749866409365115,-0.08416582643985748,0.9999900460243225,0.6546183932529218,0.8544584592315001,0.029054412618279457,0.9999308586120605,0.747009240947641,0.8401243990966633,-0.029271909967064857,0.9999428391456604,0.6723481649751252,1.131761966518263,0.1186532974243164,0.9732151627540588,0.7530242365871136,1.1138725077134255,0.11506015062332153,0.9092935919761658,0.6878544045442628,1.40535359392437,0.13113990426063538,0.9376646876335144,0.7537880139248349,1.3511073807469236,0.22448372840881348,0.8005964159965515,0.591275215076644,0.8591187573468351,0.03201661258935928,0.9103110432624817,0.8213450075594678,0.8643982219800778,-0.16653510928153992,0.9883940815925598,0.007054507732391357,0.7008138171002815,0.8472914291640816,179.58555576245743,178.92572040425438,1.0,0.014157972164312527,-0.009624235143727917,-0.027697904165445826,-0.07636316686013611,89.85495110244699,0.934341175200664,44,1.4666666666666666
0.6905395758048939,0.3511044191729963,0.19594213366508484,0.9998480081558228,0.6007591018899192,0.47862631359068014,-0.012997688725590706,0.9999862313270569,0.7865338171398423,0.47069737749106166,-0.06871428340673447,0.9999901652336121,0.6569314516499448,0.8545287517696948,0.025126025080680847,0.9999310374259949,0.7503714646037271,0.8419088039223066,-0.025355827063322067,0.9999426603317261,0.6744521544534392,1.1342116994362017,0.11295105516910553,0.9736649394035339,0.7555451593654219,1.1157947776720907,0.11632473766803741,0.9056596755981445,0.6894022976588832,1.4095707836962248,0.12453208863735199,0.9379284977912903,0.755853107045502,1.3511044191729964,0.22769510746002197,0.7930843830108643,0.5943665163318792,0.8588963098681617,0.03997202590107918,0.9092559814453125,0.8242236596636946,0.8667941037270726,-0.15084503591060638,0.9886043071746826,0.005440443754196167,0.7036514581268359,0.8482187778460006,179.52312099410094,178.99279623725363,1.0,0.007806314972620308,-0.009460699607477214,-0.04822506728954877,0.001421547041711536,90.80722148302269,0.9339454899478071,45,1.5
0.6926677998084153,0.35256203285577514,0.1851809173822403,0.9998530149459839,0.6067015401283242,0.4788074843726872,-0.016158925369381905,0.9999862313270569,0.791261745087299,0.4718492627147982,-0.07239591330289841,0.9999902844429016,0.661103044202402,0.8544244006302294,0.023718636482954025,0.9999321699142456,0.7557927873847283,0.8426167544940689,-0.023943476378917694,0.9999436736106873,0.6754886407375057,1.1328555707073187,0.12221815437078476,0.972926676273346,0.7572395678762187,1.1164929713792613,0.11679542064666748,0.8988583087921143,0.6874078553891094,1.410898317063976,0.13978147506713867,0.9365867972373962,0.7570492272042578,1.352562032855775,0.24129390716552734,0.7836803197860718,0.5991072691911656,0.8558554353897158,0.0353316031396389,0.905215322971344,0.8266190907779292,0.8676015774787664,-0.15062172710895538,0.9885191321372986,0.0047675371170043945,0.7084479157935651,0.8485205775621492,179.497019494265,179.65113457745625,1.0,0.029757551992804474,-0.007208626136707408,0.1724739192448962,0.01781076468113829,91.13298944457404,0.9302955717214808,46,1.5333333333333334
0.6962441936728416,0.3525560797800268,0.1636558324098587,0.999856173992157,0.6111164601922555,0.47740101299086246,-0.021528037264943123,0.9999862909317017,0.7959865412230308,0.47293965427028906,-0.08104006946086884,0.9999902248382568,0.6648884970665777,0.8552880059142132,0.02414412796497345,0.9999343156814575,0.7609756883717521,0.8435486977939632,-0.024363655596971512,0.9999454021453857,0.6770675599111909,1.129641465525305,0.161842942237854,0.971601128578186,0.7589956596217416,1.1139888804690166,0.11777237802743912,0.8945854306221008,0.685214042314414,1.4058103072087043,0.23868036270141602,0.9357227683067322,0.7582794901310542,1.352556079780027,0.2603842616081238,0.7795379161834717,0.6006181001798808,0.8573304958641779,0.034595705568790436,0.9039356112480164,0.8300935796398267,0.8672166141565,-0.14791223406791687,0.9882100224494934,0.0030525028705596924,0.7129320927191649,0.8494183518540882,179.14783416682212,179.752515437667,1.0,0.028776065763494396,-0.00237873580674361,-0.00842731202631491,0.039867063569628755,91.13311983652144,0.938288509493996,47,1.5666666666666667
0.7036743950797649,0.35424258360425837,0.14377453923225403,0.9998638033866882,0.6163858182592339,0.4771790833181423,-0.044703952968120575,0.9999867677688599,0.8048863994530352,0.47468709741017945,-0.10578664392232895,0.9999905228614807,0.6727061860965503,0.8565040154611977,0.02433745004236698,0.9999374151229858,0.7696994972312968,0.8455678672176532,-0.024560213088989258,0.9999480247497559,0.6800683968274993,1.1297998323958605,0.15857431292533875,0.9712398648262024,0.7630083587865181,1.115900054775166,0.1182761937379837,0.8927724361419678,0.6867680597394661,1.4068546333539231,0.21922285854816437,0.9370814561843872,0.7612317723941031,1.3542425836042584,0.25636959075927734,0.7812728881835938,0.6039811884681008,0.8574761544423621,0.006425025407224894,0.9026873111724854,0.8358744551444722,0.8694204630053425,-0.17920373380184174,0.9882797598838806,0.0016988813877105713,0.7212028416639236,0.8510359413394255,179.84214506180885,179.00920092498887,1.0,0.044154561379759275,-0.011348725000457357,0.11860338504342609,-0.06958463017817368,92.01228758798456,0.9387767465334586,48,1.6
0.7101536293837734,0.346791472038292,0.13802048563957214,0.9998701214790344,0.617129917509652,0.46870799255136847,-0.058653753250837326,0.9999870657920837,0.8085070292541043,0.4718930823827507,-0.10943536460399628,0.999990701675415,0.6738635202704226,0.8477531626257081,0.023188287392258644,0.9999400973320007,0.7710402849074812,0.8394484485383948,-0.023406004533171654,0.9999502897262573,0.6776146647014626,1.116244277736094,0.16101422905921936,0.9720824956893921,0.760280290514109,1.1066691802424509,0.13067451119422913,0.8936018943786621,0.6803163165977553,1.3889275363364941,0.22891497611999512,0.9399622082710266,0.7573246141154963,1.346791472038292,0.2794818580150604,0.787122368812561,0.6022970520004288,0.8493086170072535,-0.011781299486756325,0.9035589694976807,0.8361117788687574,0.862716518982494,-0.1914633810520172,0.9886133074760437,0.0021830201148986816,0.7224519025889519,0.8436008055820514,179.76720928675357,178.39937650420748,1.0,0.039316478470232695,-0.02243368605684145,-0.03556091843341362,-0.08610509022622805,93.62793412123848,0.9479064927607562,49,1.6333333333333333
0.7197554265893709,0.3483485364131492,0.13090890645980835,0.9998778700828552,0.6228855787878692,0.4708165676710866,-0.07216456532478333,0.9999876022338867,0.8169001893266449,0.47422647365760284,-0.11153596639633179,0.9999909400939941,0.6789658237281243,0.8514020792740254,0.01829729601740837,0.9999434947967529,0.7770606261020617,0.8430659771389561,-0.018523581326007843,0.9999529719352722,0.6805263972491562,1.1137741684947746,0.16021095216274261,0.9728456139564514,0.7664741956412597,1.108199531207802,0.13198179006576538,0.8917291760444641,0.6805083607331158,1.3864060219778223,0.21899601817131042,0.943280816078186,0.7609172018227625,1.3483485364131493,0.27841538190841675,0.7935577034950256,0.6055190341581044,0.8523003239760063,-0.056112807244062424,0.9050330519676208,0.8424303755543281,0.864449074835907,-0.20884184539318085,0.9887190461158752,0.00232696533203125,0.728013224915093,0.8472340282064907,179.65542162413098,179.03904514597184,1.0,0.01838756635750832,-0.00032914575796517156,-0.1607966665312503,0.16919497509711895,93.52502976033384,0.9591651649404918,50,1.6666666666666667
0.7250105083144576,0.3497905174015076,0.1336507946252823,0.9998847246170044,0.6324466505643432,0.4732405780568309,-0.07978721708059311,0.9999881982803345,0.8255437189887849,0.4772740237210151,-0.10810261964797974,0.9999910593032837,0.6851191007784394,0.8525414010908894,0.011001931503415108,0.9999471306800842,0.7833309237718715,0.8456921156376164,-0.011235969141125679,0.9999556541442871,0.6830130262714336,1.1089335191713554,0.12480176985263824,0.9738331437110901,0.7732895601577655,1.1093085723329683,0.13221539556980133,0.8883822560310364,0.6828837505737569,1.3830967657568913,0.16232576966285706,0.9466286301612854,0.764928912303471,1.3497905174015075,0.2712337374687195,0.7992416024208069,0.6094732397220718,0.8550213874460479,-0.06221233680844307,0.9084045886993408,0.8502899408077528,0.8641299467899911,-0.19761410355567932,0.9885677099227905,0.002738386392593384,0.7342250122751555,0.8491167583642528,179.55638406048587,179.80976772269548,1.0,0.019314528330148982,-0.019401695667660535,0.006520010199524684,-0.14938755474286444,93.91660027005955,0.9651741185871932,51,1.7
0.7285187354813177,0.3497060546598361,0.1398557424545288,0.9998893141746521,0.6367010345834143,0.47387434249501725,-0.07010664790868759,0.9999886751174927,0.8260861675449052,0.477840804751715,-0.09271439164876938,0.9999909996986389,0.6902302602367962,0.8504315732379237,0.009869257919490337,0.9999502897262573,0.7881521079447538,0.8451946827384244,-0.010095772333443165,0.9999579787254333,0.6793972801232397,1.1027414572324084,0.1275569498538971,0.9747558832168579,0.7751781957843189,1.10601835373626,0.12802377343177795,0.8901880979537964,0.6801366554051052,1.3655748000997683,0.18162210285663605,0.9498719573020935,0.7650906909742434,1.349706054659836,0.24679052829742432,0.8096535801887512,0.6116804135481129,0.8516390264374278,-0.047261446714401245,0.9126346111297607,0.8547227409617703,0.862038817246183,-0.17688944935798645,0.9883818030357361,0.0026936233043670654,0.739191184090775,0.847813127988174,177.38032503931132,179.52275356770343,1.0,0.04060325854099643,-0.008487793130188099,0.1675386768874283,0.08582949972391625,95.02935381768108,0.9767165954908505,52,1.7333333333333334
0.7330919233951252,0.3530613967701534,0.14019635319709778,0.9998961091041565,0.6425269045740977,0.47588652210840027,-0.08018608391284943,0.9999893307685852,0.8289301467995719,0.47887641045531404,-0.088185615837574,0.999991238117218,0.6956717553319646,0.8489553206855078,0.00445540389046073,0.9999537467956543,0.7940831470234385,0.8454732249333294,-0.004701978527009487,0.9999606609344482,0.6796271752155866,1.0957399050962184,0.10313576459884644,0.976393461227417,0.7789187247196026,1.106159094331336,0.10915233194828033,0.8954882025718689,0.6820613341719644,1.3530613967701535,0.12139459699392319,0.9538082480430603,0.7681713678874458,1.353868442713221,0.18509912490844727,0.8239229917526245,0.6148552937062601,0.8526420592877435,-0.0716872438788414,0.9185217618942261,0.8604857927405193,0.8562266524261285,-0.1763174682855606,0.9887925386428833,0.0020255744457244873,0.7448774511777015,0.8472142728094186,175.73819874856784,179.15511677091098,1.0,0.029028788638852217,-0.019523942980981795,-0.08657693041260815,-0.08171060628428586,96.08096636787485,0.9756349387260285,53,1.7666666666666666
0.7661296857710611,0.3739375167447189,0.16208145022392273,0.9999032616615295,0.668958435250328,0.4923027939539647,-0.07229458540678024,0.9999900460243225,0.8569511396911792,0.49542520019191405,-0.06164320558309555,0.9999916553497314,0.7188067900055838,0.8718590664860523,0.0022131595760583878,0.9999572038650513,0.8187177232669176,0.8696128860928132,-0.002461833879351616,0.9999635219573975,0.6973230270522224,1.1129707048568038,0.09942308068275452,0.9782048463821411,0.8042118960821047,1.130960429541256,0.0675104558467865,0.9036290645599365,0.7027567590717103,1.373937516744719,0.09020698815584183,0.9577054977416992,0.7920163534391287,1.3938283640394922,0.08076952397823334,0.8394935131072998,0.6368992080874084,0.8779185382950306,-0.0706872045993805,0.9242404699325562,0.8880186539450716,0.8793777225588746,-0.15412993729114532,0.9891515374183655,0.0020554959774017334,0.7687622566362508,0.8707359762894328,173.7154083603938,179.479402283697,1.0,0.016270890599645493,-0.008522383818199475,-0.10088340739202853,0.08580549787651712,96.19412185418561,0.9673125349232082,54,1.8
0.7632118952732192,0.37411751226147333,0.14863599836826324,0.9999105334281921,0.6726191045431754,0.4955392861398408,-0.08492149412631989,0.999990701675415,0.8593886742343879,0.4990567504762704,-0.0629490315914154,0.9999920129776001,0.7213139221345399,0.8713429223607494,-0.0037335690576583147,0.9999604821205139,0.8222362956651585,0.8701036878760744,0.0035023328382521868,0.9999662637710571,0.6978130199027621,1.10863842340294,0.10684305429458618,0.9798060059547424,0.8064428771687113,1.1303779193814107,0.08415128290653229,0.9106546640396118,0.7060082748883332,1.3741175122614733,0.12538976967334747,0.9612512588500977,0.7931965473844932,1.3970346027970657,0.13099853694438934,0.8535638451576233,0.642328292350562,0.8786130798747858,-0.0913027971982956,0.9296119213104248,0.8904145878865486,0.8767562677041996,-0.15260322391986847,0.9893777370452881,0.002312898635864258,0.7717751088998492,0.8707233051184119,172.5759322509847,179.37141896699939,1.0,0.01665845776104093,-0.007961338702996278,0.0028889159401917137,0.004471640431343949,96.67946958360746,0.9638060535889668,55,1.8333333333333333
0.7684059819293073,0.3809337722265379,0.13355886936187744,0.9999175071716309,0.6794244095707512,0.5024849619129975,-0.0844167098402977,0.9999912977218628,0.8657493125042065,0.5065004991264148,-0.06874468177556992,0.9999923706054688,0.7262197681054846,0.8769925613474973,-0.0018340811366215348,0.9999632239341736,0.8279151107535341,0.8765681260589223,0.00161249958910048,0.9999685287475586,0.7016202593706357,1.1139091657411595,0.12479634582996368,0.9805953502655029,0.8126980021628507,1.1388738766919728,0.08868594467639923,0.914432942867279,0.7109724273922912,1.380933772226538,0.1798408329486847,0.9636155962944031,0.7986485010065518,1.4059058702118108,0.15785053372383118,0.8636608719825745,0.6469932307404964,0.8838615002173247,-0.08595861494541168,0.9344164729118347,0.8968996160383644,0.8824719169573297,-0.15428823232650757,0.9896775484085083,0.0026244521141052246,0.7770674394295094,0.8767803437032098,172.06622498688776,179.69158628165175,1.0,0.004577078567920099,0.0058202271357946115,-0.09277399660062456,0.10531877580546245,96.88316306315855,0.9590076183061337,56,1.8666666666666667
0.7688640939400927,0.3792152363099204,0.13648322224617004,0.9999228119850159,0.6809293507220203,0.5011141022073062,-0.08796209841966629,0.999991774559021,0.8620208070141426,0.5056668766330588,-0.0579160675406456,0.9999925494194031,0.7233754413868191,0.8734414938667503,-0.007194451987743378,0.999965488910675,0.8242158562088934,0.8737493183099975,0.006986393593251705,0.9999701976776123,0.699360907454822,1.1107109565069562,0.10895387083292007,0.9818732738494873,0.810851038901814,1.134303618221325,0.09159534424543381,0.9187173843383789,0.7106471824824618,1.3792152363099204,0.1452750861644745,0.9664062857627869,0.7961464670701824,1.4008396761706858,0.17473216354846954,0.8734411597251892,0.6459925491666251,0.8790642446022482,-0.09415994584560394,0.9392781257629395,0.8938449088907604,0.8777871277154388,-0.13641589879989624,0.9899898767471313,0.002984970808029175,0.7737956487978562,0.8735954060883738,171.81370945972938,179.77858497443583,1.0,-0.006311120273034972,-0.0032506097431383055,-0.08305984998705651,-0.06914798292303578,96.67865871826282,0.9565983950409773,57,1.9
0.7679592662573209,0.374575149210185,0.1384427696466446,0.9999274611473083,0.6815112381233578,0.5003363851318317,-0.08357923477888107,0.9999922513961792,0.8599124345467621,0.5047610980082823,-0.05690578371286392,0.9999927282333374,0.7233540076270902,0.8695848916680989,-0.005994771607220173,0.999967634677887,0.8231727319039552,0.8706664084536262,0.005779757164418697,0.999971866607666,0.698808651880066,1.1036541049291,0.10111027956008911,0.9829156994819641,0.8097008932409832,1.127336707716548,0.09626589715480804,0.9226657748222351,0.7112431895629635,1.374575149210185,0.12230394780635834,0.9688740372657776,0.7961179249150253,1.3985011659081432,0.162595734000206,0.8827892541885376,0.6470654460199011,0.877301775414396,-0.0833999291062355,0.9432776570320129,0.8917842221481963,0.874750151191725,-0.1268167644739151,0.9902775883674622,0.0029048025608062744,0.7732633697655228,0.8701256500608625,171.385757427851,179.8630976062935,1.0,0.0033771276243831556,-0.016442523336103628,0.0683452157471142,-0.09317084976929484,97.08587016674628,0.9589649432307831,58,1.9333333333333333
0.7734561399979111,0.37257125850540446,0.12957969307899475,0.9999314546585083,0.6888157279960763,0.5043580695356212,-0.08744396269321442,0.9999926090240479,0.8678148406031375,0.5089874256745971,-0.0596875324845314,0.9999929070472717,0.7304131599414979,0.876173831857851,-0.005279709585011005,0.9999697804450989,0.8304847590732525,0.8776373450585485,0.005076023284345865,0.9999736547470093,0.7065600120842725,1.1101550098516977,0.15199759602546692,0.983199417591095,0.8176629095645175,1.13557973642372,0.12932409346103668,0.9246900677680969,0.7182137641276297,1.3725712585054044,0.23183616995811462,0.9705659747123718,0.80420549917812,1.4110661377903133,0.22926989197731018,0.8904436230659485,0.6549749068484892,0.884548313419505,-0.09433331340551376,0.9461117386817932,0.8997017749279483,0.8785709797715381,-0.13605014979839325,0.9903006553649902,0.0030104219913482666,0.7804489595073753,0.8769055884581998,171.63630538588816,179.95092761685615,1.0,-0.0015037213336296098,-0.011838533639751122,-0.03817753493551629,0.03699501562869928,97.2213763068066,0.9788633863662587,59,1.9666666666666666
0.774461387601233,0.3737827030100933,0.13594293594360352,0.9999358654022217,0.6912094814702747,0.5050766164660457,-0.081496462225914,0.9999930262565613,0.8686399885026129,0.5093621105233154,-0.046422041952610016,0.9999930262565613,0.730814326263926,0.8779980023244018,-0.004756606183946133,0.9999718070030212,0.8315248366030022,0.8791128559566006,0.004561129957437515,0.999975323677063,0.7079119516252304,1.1125467187497813,0.15948554873466492,0.9841748476028442,0.8189114942405541,1.1375089195061034,0.13124966621398926,0.9293740391731262,0.7204428550415558,1.3737827030100933,0.2350023239850998,0.9726279377937317,0.8054884508705307,1.4125033028938847,0.21884498000144958,0.8989728689193726,0.6586057963070887,0.8830175977543557,-0.07307924330234528,0.9487161040306091,0.900507231320814,0.8781055034445686,-0.09648437798023224,0.9897834658622742,0.0027824342250823975,0.781169581433464,0.8785554291405012,171.67682113315004,179.99989000890082,1.0,-0.003887847095438224,0.0020701180870078217,-0.018252422779214888,0.10673056487828923,96.6964115146681,0.9803971877061768,60,2.0
0.7693853659043421,0.3746093496514027,0.15047407150268555,0.9999409914016724,0.6921912134482817,0.5021864696131927,-0.07300759851932526,0.9999935030937195,0.8698234597759127,0.5099849142963908,-0.019623756408691406,0.9999932646751404,0.7314788203061152,0.8787669807837785,-0.006677751429378986,0.9999740123748779,0.8320853631941704,0.8805331209085802,0.006501191761344671,0.9999772310256958,0.7100599118074692,1.1167415818075246,0.1835881769657135,0.9851556420326233,0.820361238088318,1.139872335046565,0.1403028964996338,0.9345667958259583,0.7223757232785392,1.3746093496514027,0.2912883758544922,0.9745187759399414,0.806766611703892,1.4146913885520458,0.24787351489067078,0.9071431159973145,0.6624418022785075,0.8859412354296371,-0.04545732960104942,0.9510036110877991,0.8964380365878711,0.876425888857624,-0.06514838337898254,0.988017737865448,0.005055278539657593,0.7817820917501428,0.8796500508461793,172.12257114512036,179.75647346607332,1.0,-0.004739307488369615,-0.002248582917088468,-0.006419838073324801,-0.03282408004739361,96.9616842448274,0.9804060668124845,61,2.033333333333333
0.7631913593446344,0.3771056256876037,0.1689041554927826,0.999944269657135,0.6963145445837163,0.5039860045254964,-0.06695602834224701,0.9999938607215881,0.871448063061688,0.511577677691654,0.016157664358615875,0.9999927282333374,0.7353547782963449,0.8785220382413045,-0.013373387046158314,0.9999759793281555,0.8349500319684737,0.8822088712012589,0.013205316849052906,0.9999787211418152,0.7169893753079427,1.12298919869623,0.1671953946352005,0.9861108660697937,0.8233657434516661,1.14509201380248,0.1390235722064972,0.9390511512756348,0.7255848786223659,1.3771056256876038,0.26453977823257446,0.9762939810752869,0.809801853149276,1.4191022019493327,0.23425576090812683,0.9146062135696411,0.6683602839253645,0.8912045774876275,-0.0165732279419899,0.9492383599281311,0.8936286851571792,0.8772774956043782,0.0027732611633837223,0.9640405178070068,0.00490260124206543,0.7851524051324092,0.8803654547212817,173.7664751290798,179.68927230676786,1.0,0.003116652623689501,-0.020585084059561713,0.06165417439250537,-0.1435100113112489,98.07082363393825,0.9724042715753093,62,2.066666666666667
0.7621744908242986,0.37831900747068437,0.2034587562084198,0.9999409914016724,0.6999610972992312,0.5058236336048497,-0.04300249367952347,0.999994158744812,0.8701155147466237,0.5072311682743788,0.03629249706864357,0.9999896287918091,0.7398167695526005,0.8797695885978626,-0.011891876347362995,0.9999778866767883,0.8377000389952987,0.8838525086454626,0.0117174182087183,0.9999800324440002,0.7238243681378431,1.127705239525931,0.16759440302848816,0.9868488907814026,0.8256625873039225,1.149409358385546,0.1416996270418167,0.9427570104598999,0.7278189960695656,1.3783190074706844,0.2655957341194153,0.9778957962989807,0.8124243257974446,1.4224990488457496,0.2297254353761673,0.9216424226760864,0.6743022139120735,0.8947635992487067,0.018630262464284897,0.9369032382965088,0.8642651782168488,0.8633922576333384,0.03915916383266449,0.8790429830551147,0.0009060204029083252,0.7887584042739496,0.8818110486216626,175.39622545384395,179.82009873360195,1.0,0.00832107233046434,-0.011209222619775987,0.04106999998345803,0.07466213450218985,98.47224055540566,0.9715938189461287,63,2.1
0.7759186694500744,0.39531142377711626,0.1958627849817276,0.999943196773529,0.7128876817715781,0.5174105542803376,-0.05674325302243233,0.9999945163726807,0.8844474386734843,0.5191459189451516,0.004116876982152462,0.9999879002571106,0.7536478734807842,0.8957102956157088,-0.010680931620299816,0.999979555606842,0.852928386634459,0.8990881818518144,0.010498046875,0.9999811053276062,0.739705432899775,1.1484570962403495,0.17518511414527893,0.9879188537597656,0.840384200744677,1.1700463673490162,0.13968099653720856,0.9474486112594604,0.7398976699446876,1.3953114237771163,0.27267882227897644,0.9798468947410583,0.8268135566940223,1.4459496493523722,0.21929244697093964,0.9288268089294434,0.6892616122792297,0.9150760453272236,-0.010815526358783245,0.9328325390815735,0.8600967217669219,0.8624526741756464,-0.002034601755440235,0.7969264388084412,0.0010973811149597168,0.8032881300576217,0.8973992387337616,176.79793588164227,179.83475845184384,1.0,0.003000525203521076,-0.001589098615602351,-0.0412404828267772,0.07404902523310351,98.09831322446077,0.960315736965228,64,2.1333333333333333
0.7952741336624456,0.4106948790155736,0.14918825030326843,0.9999420642852783,0.725658322565014,0.5309859060965431,-0.07334832847118378,0.9999947547912598,0.8990914678961214,0.5309288387632813,-0.027286047115921974,0.9999854564666748,0.768672405045405,0.912367566229904,-0.004865224007517099,0.9999809861183167,0.868477363395131,0.9157041573768263,0.004706428386271,0.9999819397926331,0.7573172536242676,1.1698500943386854,0.20582835376262665,0.988677978515625,0.8556429249441697,1.1913193146717234,0.14667512476444244,0.9511818885803223,0.7531435149359226,1.4106948790155736,0.325974702835083,0.9814486503601074,0.8420387254411883,1.468595808109196,0.2387407273054123,0.9350314140319824,0.7042187638063709,0.9353804363294387,-0.0180959515273571,0.9166925549507141,0.8715222343977599,0.8668542321283135,-0.025247419252991676,0.7207605242729187,3.5434961318969727e-05,0.818574884220268,0.9140358618033652,178.4676663944977,179.85725081675727,1.0,0.003833826931185563,0.0008927458430088103,0.005980289288211251,0.01930058691067781,98.34965303731359,0.9578925470982177,65,2.1666666666666665
0.7999225702996351,0.41665794417395746,0.13739898800849915,0.9999406933784485,0.7286257264759675,0.5353169832598048,-0.08064369857311249,0.9999949932098389,0.9020075072096163,0.5356485424437459,-0.034524813294410706,0.999983012676239,0.7728478243628262,0.9168715990414338,-0.0033870625775307417,0.9999822378158569,0.8722875197160075,0.9198658045902891,0.003233968745917082,0.9999825954437256,0.7620850477993404,1.1773404826435252,0.20086140930652618,0.9893637299537659,0.8592727731186837,1.19662558858746,0.14634059369564056,0.954428493976593,0.7560561379791475,1.4166579441739575,0.31704002618789673,0.9828815460205078,0.8458325970842366,1.4730905033147481,0.23899011313915253,0.940542995929718,0.7084851814451246,0.9411326480210227,-0.02702457085251808,0.9028491973876953,0.8749278435707917,0.8676535980342691,-0.034983158111572266,0.652397632598877,0.00020495057106018066,0.8225676720394168,0.9183687018158615,179.0769358157553,179.90916618130404,1.0,0.0022991385686397126,0.0015955566539140112,-0.012008861747199433,0.0054069405155095914,98.33577095154963,0.9530707169116235,66,2.2
0.8007781799147407,0.4151991359949675,0.17652630805969238,0.9999362230300903,0.7292063551520606,0.5377897937233359,-0.0472862608730793,0.9999951124191284,0.901932687041556,0.5342891136389242,-0.009261325001716614,0.9999799728393555,0.773869447155911,0.9186911756428895,0.0006045933114364743,0.999983549118042,0.8732489479665191,0.9213163236767364,-0.000759853923227638,0.9999836087226868,0.7643431487082837,1.180859203073717,0.20576927065849304,0.9895228743553162,0.8599321527826116,1.198109279413663,0.14426492154598236,0.9564605951309204,0.7569227997755996,1.4151991359949676,0.322656512260437,0.9836698770523071,0.846845318712878,1.4739706126687335,0.23392102122306824,0.9449593424797058,0.7101707977768109,0.944072916402184,0.00811045803129673,0.8832591772079468,0.8800434203655377,0.8698680754986859,0.003267591120675206,0.5947406888008118,0.0021613240242004395,0.8235591975612151,0.920003749659813,179.73263967056477,179.9616344511582,1.0,3.821578424784516e-05,0.004181790569378066,-0.017744096464705032,0.020257462979820375,98.20089175852338,0.9624555745965286,67,2.2333333333333334
0.8071022645813817,0.42271895324164066,0.1866699755191803,0.9999242424964905,0.7350389982001879,0.5433488129861813,-0.04423791915178299,0.9999951124191284,0.9094269192125303,0.5397838988989605,0.004899149760603905,0.9999744296073914,0.7808047858420301,0.9266402905831677,0.00040780898416414857,0.9999845027923584,0.880630412768944,0.9292735824867298,-0.0005665391799993813,0.999984085559845,0.770806727756066,1.191314654382385,0.20042304694652557,0.9894304275512695,0.8669605842079695,1.2083693233274213,0.14103278517723083,0.9574927091598511,0.7634072515032795,1.4227189532416407,0.30701944231987,0.984093964099884,0.8539387094153232,1.486378585415179,0.20986244082450867,0.9485304355621338,0.7175629402379728,0.9545867167335497,0.00811128318309784,0.8670981526374817,0.8878905132412103,0.8748286220700843,0.00777463149279356,0.5406978130340576,0.00218239426612854,0.830717599305487,0.9279569365349487,179.6681726469791,179.8777091335827,1.0,0.0011016109092786112,0.0008976778669015902,0.008133907382260757,-0.025400382607123306,98.32004745563023,0.9596529446131031,68,2.2666666666666666
0.811572274520965,0.43814080184986215,0.17892371118068695,0.9999105334281921,0.7422709855065899,0.5524590640193732,-0.049460988491773605,0.9999951720237732,0.9155205642552345,0.5484710865478267,-0.0008318039472214878,0.999969482421875,0.7902327789196072,0.9380535479162954,0.00033022527350112796,0.9999852776527405,0.8904409671990207,0.9399714602822261,-0.0004952187882736325,0.9999843239784241,0.7798835366796432,1.2052404554931078,0.19410911202430725,0.9890445470809937,0.8768964189449364,1.2224159885447206,0.14024190604686737,0.9569956660270691,0.7731963991503082,1.4381408018498623,0.2980465292930603,0.984370768070221,0.8636734102993125,1.5032854158890792,0.20923380553722382,0.9511814117431641,0.7266678451528273,0.9654541389976827,-0.002856251085177064,0.8616464734077454,0.8942017496087853,0.8886900781641615,-0.011254479177296162,0.4929722249507904,0.0024136900901794434,0.8403368730593139,0.9390125040992607,179.42645875986517,179.94992920099511,1.0,0.0006568588706528027,0.003091782881346687,-0.003475681022113015,0.016594476352316458,98.18672981976272,0.9427680230577782,69,2.3
0.8029917471607829,0.43510234664032277,0.15087613463401794,0.999908983707428,0.7396909926083077,0.5554931876172302,-0.06759081780910492,0.9999952912330627,0.9113134318495076,0.5478404134293431,-0.01785070262849331,0.9999666810035706,0.7901696289194117,0.938768696696279,0.0002008475421462208,0.9999862313270569,0.8892349190574518,0.9400475157352108,-0.00036873636418022215,0.9999849796295166,0.7794957001494844,1.2054959771859077,0.20588548481464386,0.989392876625061,0.8757104598090615,1.2216225894298047,0.1536819040775299,0.9589136838912964,0.7741514479240217,1.4351023466403228,0.3238643705844879,0.9854263663291931,0.8637202879543963,1.5018200643014046,0.2484617680311203,0.9549886584281921,0.7263395703296058,0.9671930473607702,-0.023829493671655655,0.8612966537475586,0.8900507632560279,0.8810391515102154,-0.015174156054854393,0.4483516216278076,0.004631608724594116,0.8397022739884318,0.939408106215745,179.04171189728646,179.70041221707507,1.0,-0.005146966718805212,0.002795591545713741,-0.04490296445893983,-0.0022924327352890975,98.24244082122617,0.9550071605150184,70,2.3333333333333335
0.793233351780241,0.43240560644057896,0.16487738490104675,0.9999073147773743,0.731501439785972,0.5559494417042804,-0.05311772972345352,0.9999954700469971,0.8979297977833982,0.5353678043753266,-0.016799911856651306,0.9999635219573975,0.7846470774275144,0.9361006213162497,0.004836329258978367,0.9999871850013733,0.8828538290153654,0.9362526967012936,-0.005007122177630663,0.9999857544898987,0.7763150633072659,1.2010347797877292,0.2131684273481369,0.9886491894721985,0.8715907335464123,1.2164371710112725,0.13835930824279785,0.9597572684288025,0.7733419895296588,1.432405606440579,0.33393993973731995,0.9854617714881897,0.8618579089036066,1.4958309514321748,0.23270952701568604,0.9574809670448303,0.7229981691595339,0.9634786057159643,-0.028902579098939896,0.8635004758834839,0.8906338094879048,0.8665722458399656,-0.03887266665697098,0.4092598855495453,0.01250353455543518,0.8337504532214398,0.9361766590087717,178.93487718095295,179.69313549944377,1.0,-0.022605119376489787,0.002507082132456694,-0.14175632092086216,-0.002254574306117128,98.04716927508993,0.956847993041131,71,2.3666666666666667
0.7838402986727483,0.43932987627533343,0.16503337025642395,0.9999027848243713,0.7323150233610864,0.5650284834279786,-0.05404437705874443,0.9999955296516418,0.8997524440234222,0.5404386768332762,-0.015332506969571114,0.99996018409729,0.7872865606693338,0.9440301121597772,0.004597292747348547,0.9999880790710449,0.8836944094493204,0.9430727897318554,-0.004769890569150448,0.999986469745636,0.7798505006983911,1.2079777790603516,0.21191895008087158,0.9875040054321289,0.8753199365135759,1.2243582125748522,0.13820025324821472,0.9596943855285645,0.7798584989569431,1.4393298762753335,0.33154693245887756,0.9853004813194275,0.8682939107233393,1.5054990743003165,0.22537434101104736,0.9595202803611755,0.7273998466210493,0.9720509741854231,-0.043882716447114944,0.865906834602356,0.8890793110774055,0.8692411612701215,-0.06230723112821579,0.3738306164741516,0.014843106269836426,0.8354904850593271,0.9435514509458163,178.38428190986102,179.72627283473815,1.0,-0.02748670242694906,0.010295424299104764,-0.035959945796907665,0.05901053084303971,97.6838768743134,0.9581696160034832,72,2.4
0.7837197954292711,0.44978660483113664,0.11901985108852386,0.9999068379402161,0.731510386507278,0.5741185676221793,-0.0729592815041542,0.9999955296516418,0.8980115409401587,0.5500890616612472,-0.05200737714767456,0.9999622702598572,0.7889664701183974,0.9572734254793294,0.005025860853493214,0.9999887347221375,0.8839148619952882,0.9524708132697092,-0.005206896457821131,0.9999871253967285,0.7845133372229705,1.2180561554903384,0.20695646107196808,0.9865156412124634,0.8805523258189716,1.2340737995861464,0.14147533476352692,0.9582143425941467,0.7917564243297801,1.4497866048311367,0.3201356530189514,0.9849576354026794,0.8781827633792323,1.517145366451461,0.23059169948101044,0.9604620337486267,0.7293415516702151,0.9822474674335909,-0.04956233128905296,0.8722419738769531,0.8997691532903082,0.9227363178823577,-0.09179755300283432,0.3932534456253052,0.01437067985534668,0.8364406660568428,0.9548721193745192,177.23142707711983,179.7954866884052,1.0,-0.05500660041062273,0.020135492995065445,-0.21883931132767132,0.07821358722248968,95.6326314842327,0.9607110950995326,73,2.433333333333333
0.7976112675757516,0.4710873166535714,0.10701709985733032,0.9999123811721802,0.740022289368679,0.595730502641992,-0.07676645368337631,0.9999955892562866,0.914807323748796,0.566754119356244,-0.08285549283027649,0.999965488910675,0.7952143342305725,0.9865090770628504,0.010711846873164177,0.9999894499778748,0.8962813005640581,0.9775509989670308,-0.010887539014220238,0.9999880790710449,0.8015925392835843,1.2416139208388768,0.2269863784313202,0.9859316349029541,0.8985469579734423,1.2561577033014928,0.14176414906978607,0.9594424366950989,0.8139516025303309,1.4710873166535714,0.35562172532081604,0.9854313135147095,0.8997344594843396,1.5430997665491575,0.2478834092617035,0.9628711342811584,0.7358791412738173,1.005124249562184,-0.07983912527561188,0.8814729452133179,0.9272533432778,0.9605078736491048,-0.1593809872865677,0.4497314989566803,0.016932368278503418,0.8457478173973153,0.9820300380149406,178.3493484757273,179.77119088600355,1.0,-0.07145700864374065,0.033210669455063034,-0.10526340554637412,0.08750275510814085,92.97388182137234,0.9771941817168356,74,2.466666666666667
0.8034923246076322,0.47516991341244696,0.09819486737251282,0.9999188184738159,0.7352703168506016,0.6019060657791487,-0.06912723183631897,0.9999955892562866,0.9185412653429276,0.5839564024119924,-0.11701694875955582,0.9999687075614929,0.7878830062568815,0.9903617911948837,0.02750474214553833,0.9999901056289673,0.8931473260883619,0.9815171717373035,-0.027666950598359108,0.9999889731407166,0.8020766499276499,1.2427612248636872,0.22776415944099426,0.9846678972244263,0.9003167662805527,1.2561734929710695,0.11451675742864609,0.9611775279045105,0.816549115382188,1.475169913412447,0.34192195534706116,0.9855857491493225,0.9019543332232048,1.531524926723683,0.22002704441547394,0.9649573564529419,0.728666390195653,1.0050285529144312,-0.07398222386837006,0.8893276453018188,0.945741618162868,0.9732204861443817,-0.1873893141746521,0.5041701197624207,0.010467767715454102,0.8405151661726217,0.9859394814660936,179.65532958773412,178.8454746294342,1.0,-0.05098940729484368,0.014159614860903615,0.15144251945867343,-0.1404674166767633,92.91036136849216,0.9891082515175564,75,2.5
0.8036786698092973,0.4737145302067003,0.09486681967973709,0.9999253749847412,0.7297969840606932,0.6036944320593324,-0.07068759202957153,0.9999957084655762,0.9185428193643077,0.5890175883593789,-0.11410444974899292,0.9999716281890869,0.7802306095940243,0.9908232200752762,0.026828527450561523,0.9999905824661255,0.8885451402303253,0.9816678178939486,-0.02697310782968998,0.9999897480010986,0.7998023939594885,1.240585124179629,0.22151124477386475,0.9830041527748108,0.8996890816909038,1.2563497267893708,0.1106945276260376,0.9623323082923889,0.8167337201579744,1.4737145302067003,0.3354487717151642,0.9850006699562073,0.9028353945467116,1.5272920648782804,0.22031612694263458,0.9659702777862549,0.7204552170541613,1.0053385032695161,-0.06970261037349701,0.8966346979141235,0.9548593093884196,0.9793642381857026,-0.16701534390449524,0.5531787276268005,0.008552581071853638,0.8343878749121748,0.9862455189846124,179.67324506467696,178.3420804684462,1.0,-0.05197218908142423,-0.0034592525784037692,-0.007241540424511495,-0.1352911749184161,92.59096483692765,0.9972109197524663,76,2.533333333333333
0.8082969012778025,0.47015584119411,0.09575553983449936,0.9999313354492188,0.7354084084248903,0.6034694912749521,-0.06958900392055511,0.9999958276748657,0.9231452941544279,0.5940266594882296,-0.10968996584415436,0.999974250793457,0.7809392491765887,0.98945203702428,0.02806314453482628,0.9999910593032837,0.8901972529654781,0.9795349400728571,-0.02819664217531681,0.9999904632568359,0.7990620670297843,1.2404907551890514,0.23113851249217987,0.9804613590240479,0.9007986130898519,1.255172457658395,0.11202526092529297,0.9628745913505554,0.818834810611701,1.47015584119411,0.3592265844345093,0.9838729500770569,0.9054680167750143,1.5194551049238583,0.23040930926799774,0.9665111899375916,0.7200489058380524,1.0063884225543607,-0.06139996647834778,0.9036307334899902,0.9615000402915084,0.9814073795680145,-0.15929991006851196,0.5972265601158142,0.0054863691329956055,0.8355682510710335,0.9844934885485686,179.2084165484844,178.80962809877622,1.0,-0.009593497007856446,-0.03482062838095717,0.3173283429809697,-0.23390710506823825,91.54117760890476,1.0079343803583825,77,2.566666666666667
0.8034010650333795,0.4756868205926208,0.09151847660541534,0.9999371767044067,0.7350341059263317,0.6093814756297167,-0.07186524569988251,0.9999960064888,0.9218582482468599,0.6013268468830344,-0.10154376178979874,0.999976634979248,0.7827122833602836,0.9923081608522243,0.024637944996356964,0.9999915361404419,0.891387317303644,0.9818585651475873,-0.024779997766017914,0.9999911785125732,0.7999943822143788,1.2434607329131862,0.22732169926166534,0.979841947555542,0.9032208843341154,1.2570452793521067,0.11019198596477509,0.9646275043487549,0.8216102528497401,1.4756868205926208,0.35209307074546814,0.983952522277832,0.9092144236748714,1.521574045912742,0.22198554873466492,0.968229353427887,0.7148904861051378,1.0070004193790145,-0.06654319912195206,0.9111809134483337,0.9643325144673414,0.9817967283498156,-0.15278181433677673,0.6370207667350769,0.00466609001159668,0.8370498003319639,0.9870833629999057,178.6185496387248,178.83563885591752,1.0,-0.007499738680941363,-0.0023454605583937077,0.01631435196687278,0.25046639260976167,91.60500531520034,1.0003276840714395,78,2.6
0.8095164289260299,0.4865928336307862,0.12290235608816147,0.999941885471344,0.737225004009365,0.6124758189622806,-0.05092800408601761,0.9999961853027344,0.923995015605085,0.605406709516372,-0.08915067464113235,0.99997878074646,0.7829274693328215,0.9981498701917959,0.023392565548419952,0.9999918937683105,0.8932888948896394,0.9868152828764175,-0.02353266254067421,0.9999916553497314,0.7992121927751321,1.2514337846195533,0.19468402862548828,0.9804628491401672,0.9087350542802552,1.2616840968169911,0.08355863392353058,0.9669931530952454,0.8264334909358336,1.4865928336307863,0.26685452461242676,0.9845994710922241,0.9158748548206229,1.534293900760985,0.1380424201488495,0.9702945351600647,0.7126135320453444,1.0045399104272417,-0.027790412306785583,0.918653130531311,0.9691060769552776,0.9875991984685597,-0.1378566175699234,0.672941267490387,0.00407099723815918,0.8381081821112304,0.9924825765341068,177.07573359783876,178.28393086658858,1.0,-0.030216856155884434,-0.0035734737697709477,-0.17510212973812925,-0.009376470244269646,90.89408833692758,0.9762655373150739,79,2.6333333333333333
0.8175438099559775,0.49943686893378547,0.10780849307775497,0.9999417066574097,0.7386737909326988,0.6183165519352336,-0.06714674830436707,0.9999962449073792,0.9289160891073974,0.6094623996673735,-0.0913996547460556,0.999980628490448,0.7875740326209956,1.0076353893709933,0.02091551385819912,0.9999920725822449,0.8988439338077072,0.99474841281492,-0.02107810601592064,0.9999920129776001,0.8062465400402624,1.2630303135457126,0.19149866700172424,0.9811773896217346,0.9180099876785847,1.265411189153768,0.07695174217224121,0.9690495133399963,0.8344677916257751,1.4994368689337856,0.26872342824935913,0.9855983257293701,0.9236662265128408,1.5273255881101921,0.14495715498924255,0.9724473357200623,0.7129694485653157,1.0110680561570573,-0.05411985516548157,0.925445020198822,0.9779621893457201,0.9956097673908885,-0.1384020447731018,0.7053686380386353,0.005049228668212891,0.8432089832143514,1.0011919010929566,177.3740637770729,177.1867105989461,1.0,-0.023984861718504464,-0.008124593222319426,0.04961072869194621,-0.03431048510457707,90.55271537751572,0.9785103570994087,80,2.6666666666666665
0.8197938569825872,0.4981008281493524,0.1097198948264122,0.999943196773529,0.7397484817541785,0.6208430882866663,-0.06665840744972229,0.9999963045120239,0.9294100716464234,0.6108627528450314,-0.08991877734661102,0.9999822378158569,0.7889047342733917,1.0069737069718385,0.02061605267226696,0.9999923706054688,0.8985512844628366,0.9939028742543129,-0.020759020000696182,0.9999923706054688,0.8081974987571882,1.266090424638577,0.1567380130290985,0.9819851517677307,0.9223644621311872,1.2538183924396733,0.057110853493213654,0.970886766910553,0.8369924730108292,1.5051228200408449,0.19893433153629303,0.9865409731864929,0.9244221344789595,1.4981008281493524,0.11537201702594757,0.9742540717124939,0.7097120602293492,1.010755150951255,-0.046365220099687576,0.9319984912872314,0.9815821372668888,0.9985590100499812,-0.1352420449256897,0.7345396876335144,0.005667239427566528,0.8437280093681141,1.0004382906130758,177.38912960016313,175.2478471646385,1.0,-0.02481567216795385,-0.04048905059749123,-0.0058611537367657994,-0.260169328359893,90.45691891332497,1.0007354840095013,81,2.7
0.839228524778821,0.5049589157896712,0.11070885509252548,0.9999420046806335,0.7587238233132907,0.6351103747399077,-0.0642068088054657,0.9999963045120239,0.9515025989998969,0.6216680507239934,-0.0892588347196579,0.9999834895133972,0.8080446671628514,1.0251937155891537,0.01996278390288353,0.9999926090240479,0.9179522104124244,1.010687116832993,-0.020114343613386154,0.9999926090240479,0.8276391757439799,1.2961263658591378,0.13033482432365417,0.9822601675987244,0.9454268374174453,1.2705469858017284,0.037190087139606476,0.9717491865158081,0.8573140962541284,1.5402832211001865,0.14514955878257751,0.9872069954872131,0.9462912077052437,1.5049589157896712,0.07984770834445953,0.9752535820007324,0.7221800309273754,1.030879994243268,-0.03815474733710289,0.9377734661102295,1.005689666865173,1.0225620974381737,-0.14119409024715424,0.7603721618652344,0.007448941469192505,0.8629984387876378,1.0179404162110732,177.20680535806582,174.17588964392462,1.0,-0.012178022669020242,-0.05543500896978189,0.10158606128837766,-0.10690503486970097,89.68709443222518,1.0145402249101978,82,2.7333333333333334
0.8531266317040431,0.5145551430762623,0.11817318201065063,0.9999416470527649,0.7733778563636142,0.647727219092802,-0.05456402897834778,0.9999963045120239,0.969125923070447,0.6362820071936848,-0.08784475177526474,0.9999846816062927,0.8195750371741765,1.0419776497227207,0.020203962922096252,0.999992847442627,0.9294340996550021,1.0259459122455639,-0.020377401262521744,0.9999927878379822,0.8450370567294342,1.3140638632978179,0.10332632064819336,0.9823569655418396,0.9647666629603169,1.277388013445159,-0.0002868297160603106,0.9726957082748413,0.8746606522085363,1.5702141629907762,0.09447433799505234,0.9876677393913269,0.9623655849064556,1.5145551430762623,0.023242179304361343,0.9758709073066711,0.7330928706257435,1.047536515869452,-0.040824294090270996,0.9433758854866028,1.0251240026470583,1.041569219485536,-0.14630694687366486,0.7838144898414612,0.0062150657176971436,0.8745045684145893,1.0339617809841424,178.749300850333,171.42114648733795,1.0,-0.046880658177878384,-0.03664265138928215,-0.2623974724104871,0.15176316489290523,88.38071427398602,1.0186558581299656,83,2.7666666666666666
0.8625982887082921,0.5198818687201545,0.145010843873024,0.999941885471344,0.7810488968874535,0.6550084516660944,-0.02360946498811245,0.9999962449073792,0.9793286911612347,0.6436470745867997,-0.06706345826387405,0.9999858736991882,0.8285165996672174,1.042113574806653,0.020699042826890945,0.999992847442627,0.937396615981092,1.0267992246691184,-0.02090703323483467,0.999992847442627,0.854016131597997,1.3225676857620925,0.06986577808856964,0.9825015664100647,0.975752870996615,1.2773813833335388,-0.01636066846549511,0.9737691283226013,0.8843462178086545,1.5839100525594056,0.03121798112988472,0.9876512289047241,0.9681166766186187,1.5198818687201545,-0.014240209944546223,0.9759929180145264,0.7402881325997418,1.0541957884760058,0.014944192953407764,0.9477027654647827,1.0361657154865138,1.050668368211789,-0.12097643315792084,0.8051518201828003,0.006100326776504517,0.8829566078241547,1.0344563997378857,178.57533251309394,169.49375082224734,1.0,-0.011784692795950687,-0.0900768595658774,0.2856036865385407,-0.42501183290257527,88.98451103109157,0.9917750860731355,84,2.8
0.871335986888369,0.5399021714220156,0.14013859629631042,0.9999432563781738,0.7828540451551763,0.6674505620714916,-0.024657268077135086,0.9999961256980896,0.9832155818986488,0.6552337818660344,-0.06806989014148712,0.9999869465827942,0.836024505264993,1.0521574088115184,0.02059597335755825,0.9999923706054688,0.9448871299854501,1.0366047970029277,-0.02080947533249855,0.9999925494194031,0.8620692340230848,1.3299192242281268,0.08033505827188492,0.9830700159072876,0.9841862826781729,1.2870789855661477,0.0008406733395531774,0.97481769323349,0.8948308895048637,1.5941173336808019,0.054334670305252075,0.9879873394966125,0.9754182687925805,1.5399021714220156,0.023697972297668457,0.9763258695602417,0.7482030299555414,1.0564045608371644,0.011832499876618385,0.9511315226554871,1.0442319237650328,1.055988674261265,-0.11619167029857635,0.8244794607162476,0.006499350070953369,0.8904558176252215,1.044381102907223,178.28792927125747,169.09679946195405,1.0,-0.005244034704568677,0.002522576590133154,0.050608557361697816,0.7110733933872218,89.73849712876351,0.9624528348216833,85,2.8333333333333335
0.8681567324231252,0.5417144582557046,0.15774235129356384,0.9999474883079529,0.7794663083824733,0.6701869660602983,0.00342806545086205,0.9999961256980896,0.9765335847848865,0.6572217188522509,-0.065829798579216,0.9999880790710449,0.8346515691435151,1.045949768991178,0.0254457239061594,0.9999920725822449,0.9411016903695069,1.0315109353711698,-0.025646105408668518,0.9999924898147583,0.8598829579141978,1.3215988778549794,0.08263127505779266,0.9838664531707764,0.9805116478867699,1.2808264689264526,0.0011323940707370639,0.9762282967567444,0.8923617567756031,1.5906691746262198,0.055152375251054764,0.9882935881614685,0.973330505322858,1.5417144582557045,0.013799354434013367,0.9769600033760071,0.745873086399445,1.0459345710423646,0.0656389370560646,0.9536357522010803,1.0401992451089426,1.0508998303193715,-0.11773709952831268,0.841922402381897,0.006915360689163208,0.8878766297565109,1.038730352181174,178.34723293244565,169.44071781044556,1.0,-0.002177901806420656,-0.0226913157417018,0.02341084134848295,-0.19331818949834856,90.63041945959523,0.9396084469801907,86,2.8666666666666667
0.8629973473327809,0.5371250108306136,0.15478487312793732,0.9999513030052185,0.7754951534392475,0.6644747541172994,-0.004925705026835203,0.9999961853027344,0.9704647499627871,0.6491166107177531,-0.06342731416225433,0.9999890923500061,0.8304905657023903,1.0367411072330726,0.024607496336102486,0.9999915361404419,0.9357540217678672,1.0214507245958238,-0.02480630949139595,0.9999921917915344,0.855835479090806,1.306372288736384,0.07716767489910126,0.9844879508018494,0.9716413433959916,1.2732343878092836,0.010937224142253399,0.9766861200332642,0.8879704651942957,1.5759040507605868,0.05225224047899246,0.9882934093475342,0.9679073921437505,1.5371250108306136,0.026437338441610336,0.9764621257781982,0.7432339212597725,1.035426437361285,0.059979915618896484,0.9567214250564575,1.031786462510525,1.0427465991873153,-0.11696071922779083,0.8575952053070068,0.008240818977355957,0.8831222937351287,1.0290959159144482,178.57092741307818,171.0774753247558,1.0,0.003951090211483424,-0.025150942901197203,0.04471502085560017,-0.018972025631237045,90.13872275886477,0.9302147468449381,87,2.9
0.8538133391170035,0.5217139641282368,0.1577645242214203,0.9999552369117737,0.7674084615746954,0.6528535371454147,0.0006985209765844047,0.9999963045120239,0.9604103122648746,0.6306365157315261,-0.06529606133699417,0.9999900460243225,0.8224439454575425,1.0228323974718136,0.028248902410268784,0.9999912977218628,0.925864608582957,1.0076154161266233,-0.02843836322426796,0.9999921917915344,0.8490819348817146,1.2936921810469781,0.08065866678953171,0.9848413467407227,0.960226073202159,1.2605310185314706,0.0035194139927625656,0.9774338603019714,0.8792477286022296,1.5588160397692548,0.0519072487950325,0.9881129264831543,0.9581145792184823,1.5217139641282367,0.015421926975250244,0.9761127829551697,0.735619968018693,1.0249249838667152,0.07195490598678589,0.958936870098114,1.0195176333327158,1.0317283080626631,-0.1181425228714943,0.8717033863067627,0.01204642653465271,0.8741542770202497,1.0152239067992184,179.1255530471328,171.79989832796406,1.0,0.0017259511647694345,-0.025162482269381403,-0.01734504686831053,-0.002169151674611561,90.09062301354027,0.9373753094243477,88,2.933333333333333
0.8517101513988452,0.5163512521769101,0.152198925614357,0.9999573826789856,0.7676417140293356,0.6478740650088098,-0.008128275163471699,0.9999961853027344,0.9601332836784573,0.6288244358244879,-0.0663941502571106,0.9999908208847046,0.8224563133320101,1.022362438587662,0.027249008417129517,0.9999907612800598,0.9260206255250858,1.0078353658486339,-0.027440320700407028,0.9999918341636658,0.8486697699316139,1.295322815018355,0.09314939379692078,0.984400749206543,0.9590905972038972,1.261168185712899,0.05148369073867798,0.9755316972732544,0.8792194398510266,1.5605359979814293,0.0734989270567894,0.9875189065933228,0.9577480696978226,1.5163512521769102,0.11554261296987534,0.9728516936302185,0.7375421352735725,1.0196060765658193,0.053292177617549896,0.959851861000061,1.016085773652763,1.0308885155556131,-0.13008686900138855,0.8842765092849731,0.010334253311157227,0.8742384694285479,1.015098902218148,178.9146266804807,172.2612530639009,1.0,0.004066563602911412,0.003004532691663957,0.018059416250151616,0.21714811224745234,90.3425211366884,0.9505775004646861,89,2.966666666666667
0.8514359497938604,0.5172191870502191,0.14979715645313263,0.9999603629112244,0.767921673748816,0.6474715859366061,-0.00784587673842907,0.9999961853027344,0.9592758660598616,0.6313542516065231,-0.06667228043079376,0.9999915957450867,0.8222016322946889,1.0203280269737323,0.026579227298498154,0.9999904632568359,0.9259973773829919,1.0073874478501765,-0.02677191235125065,0.9999916553497314,0.8495993272818272,1.2946513063562337,0.0970279648900032,0.9848749041557312,0.9570218692701628,1.2599363298339485,0.048456594347953796,0.9755153656005859,0.8790774150773466,1.5600203097991048,0.0917435735464096,0.9876781105995178,0.9573285586565138,1.5172191870502192,0.10639113187789917,0.9718292951583862,0.743432751351882,1.01458789533338,0.048816584050655365,0.9613401889801025,1.0112246338888589,1.0303093225447775,-0.13710351288318634,0.8956562876701355,0.008748739957809448,0.8740995048388404,1.0138577374119544,179.36480849357628,173.06485909790382,1.0,0.0028790867002788417,-0.004759546204238601,-0.00889217647924376,-0.058245504609969766,91.17626273895462,0.9440604803366437,90,3.0
0.8568779219503934,0.5267028028381173,0.1484338939189911,0.9999629259109497,0.7746426907554862,0.6512378215576324,-0.005876066628843546,0.9999961256980896,0.9640845146179925,0.6402026722304345,-0.0603647455573082,0.9999921917915344,0.8280998775018543,1.025564185194247,0.025122588500380516,0.9999898076057434,0.9308728151486155,1.0132148495005049,-0.025300685316324234,0.9999910593032837,0.85362627335595,1.2967326564168369,0.09895344823598862,0.9848895072937012,0.9591587706713897,1.2664015528384622,0.059224933385849,0.9734129905700684,0.8833706767408818,1.56772040080974,0.09997917711734772,0.9872667193412781,0.9593778936773469,1.5267028028381173,0.12676508724689484,0.968374490737915,0.7544392406714807,1.0160408301407777,0.03543747216463089,0.9637264013290405,1.0120993743795446,1.0338939487681365,-0.14672471582889557,0.9058483839035034,0.005961418151855469,0.8794863463252349,1.019389517347376,179.11380456620262,173.67359520818025,1.0,0.009047048337456806,0.005040765310999628,0.046844505558975125,0.07477277263720136,91.27551398517771,0.9314836558605691,91,3.033333333333333
0.8637442322348496,0.5365691129260328,0.15613499283790588,0.9999656677246094,0.7819221772773379,0.6589275846388363,-0.0012163289356976748,0.9999961256980896,0.971451738050296,0.6554949782590104,-0.05140911787748337,0.9999927878379822,0.8376023312274987,1.0342170780452538,0.021141868084669113,0.9999890327453613,0.9383171776782498,1.0219695260265207,-0.021314959973096848,0.9999904632568359,0.8588196331383859,1.306704814645817,0.10068751871585846,0.985252320766449,0.9625210228513097,1.2777900046941721,0.09251121431589127,0.9715901017189026,0.8905362666218565,1.580340349161438,0.11779634654521942,0.9869739413261414,0.9672461112938043,1.5365691129260328,0.18586085736751556,0.9641181826591492,0.7696358685903171,1.024145015108428,0.042716167867183685,0.9646292328834534,1.0176253316697808,1.0424517301543894,-0.14309096336364746,0.9150223135948181,0.001839756965637207,0.8879597544528742,1.0280933020358873,177.8408071137673,175.64124155668455,1.0,0.01102779718707423,0.004509902912336376,0.014130169826007526,-0.0042258439991171145,91.50569608110872,0.9251418210443607,92,3.066666666666667
0.8762280092779515,0.5476948531048212,0.17966589331626892,0.9999656677246094,0.7915017349031129,0.6724575739222463,0.02041238360106945,0.999995768070221,0.9817674937775499,0.6675042048068586,-0.03362404555082321,0.9999932646751404,0.8484713601853114,1.0471069482615039,0.01900247484445572,0.9999870657920837,0.9496621214217782,1.0347409980218598,-0.019185759127140045,0.9999890923500061,0.8698555090552539,1.323020609223041,0.10184719413518906,0.9850553274154663,0.9713762510527844,1.294146504817781,0.1000727191567421,0.9663259387016296,0.9013950071727486,1.5989929059200878,0.11760355532169342,0.9857794642448425,0.9791367638014706,1.5476948531048214,0.1952734887599945,0.954136848449707,0.7856400746103157,1.0362119559165062,0.09126637876033783,0.9567282199859619,1.0281419455235752,1.0560388251852075,-0.09402211755514145,0.9230316281318665,0.00262334942817688,0.8990667408035448,1.040923973141682,177.91197592568267,176.96822151662178,1.0,0.0033972405575577154,0.003713410977967522,-0.05854562550354676,-0.006415105463416788,91.67898137562878,0.9246164567575659,93,3.1
0.8826841850033614,0.5554358210390608,0.1759173423051834,0.9999623894691467,0.7986497205152934,0.684600760111304,0.032024577260017395,0.9999945163726807,0.9886140942672293,0.6714001997809849,-0.04129508510231972,0.9999936819076538,0.8550907406684951,1.0554876488717637,0.02163352444767952,0.9999856352806091,0.9557701048895534,1.04282691454509,-0.021831858903169632,0.9999886751174927,0.8766003119196304,1.3338256788425404,0.1253722906112671,0.98299640417099,0.9772751397877169,1.3045000848298005,0.11665447801351547,0.9577797055244446,0.9086000293048402,1.6072649012390594,0.16154344379901886,0.9826546311378479,0.9866361309626958,1.5554358210390606,0.23467297852039337,0.9402117133140564,0.8073257790959412,1.0449001412620316,0.16065534949302673,0.8932583332061768,1.033834615457895,1.0671539012181923,-0.04984638839960098,0.9293076395988464,0.006937861442565918,0.9054304227790243,1.049157281708427,177.7441732567919,177.4382207624845,1.0,-0.00397110902684747,0.0017648447170853562,-0.05435555062906905,-0.014533270238107075,91.48530649775246,0.9257876377086669,94,3.1333333333333333
0.88985670435625,0.5662404730664932,0.18604488670825958,0.9999542832374573,0.8079220894067365,0.6936600522256793,0.04230208322405815,0.9999929070472717,0.9963249040668543,0.6793016203039576,-0.036572232842445374,0.9999939799308777,0.8624764936711762,1.0654753115880107,0.022037141025066376,0.9999831914901733,0.9633824030180477,1.0541193331791063,-0.022244799882173538,0.9999876618385315,0.8835997064770715,1.344985990093687,0.12113872915506363,0.9804977774620056,0.9826937056686659,1.3163186298056104,0.1167021244764328,0.9450951218605042,0.9159554246207476,1.6170990310622233,0.14462308585643768,0.9789674282073975,0.9924302432882525,1.5662404730664932,0.22423657774925232,0.9236540198326111,0.8202593929137776,1.054405722107962,0.1769489347934723,0.8280819654464722,1.0415078165599454,1.0798651834121018,-0.046626780182123184,0.9352072477340698,0.007485806941986084,0.912929448344612,1.0597973223835584,177.540806832505,178.0187201246701,1.0,0.0013058205769340223,0.016569515163238163,0.040979412228592915,0.11416318917831438,91.92606956264673,0.9261879119589908,95,3.1666666666666665
0.8989499912199721,0.5690483693828532,0.21666571497917175,0.9999507665634155,0.8163895229701639,0.7012356305513324,0.07776797562837601,0.9999911785125732,0.9994300864696588,0.6898346654534195,-0.013954189606010914,0.9999942779541016,0.8648196178672736,1.0686245030025516,0.023890921846032143,0.9999813437461853,0.9654465915461661,1.057274159939373,-0.02411579340696335,0.999987006187439,0.8863619021433071,1.3493160607663923,0.11628006398677826,0.9796401262283325,0.9826700079120577,1.320870031680909,0.1197056993842125,0.9370730519294739,0.9186982030668239,1.6187281348497624,0.11693509668111801,0.9767450094223022,0.9912963924720046,1.5690483693828532,0.21483199298381805,0.9115787148475647,0.8285335943129498,1.061694386578178,0.2073715478181839,0.7628118395805359,1.0439867644304475,1.0870466812555204,-0.01766810566186905,0.9407374858856201,0.005926698446273804,0.9151331047067198,1.0629493314709622,177.54447616022006,178.25232626254376,1.0,-0.0034050324460726034,0.0005439543131164623,-0.035701112941460354,-0.12171631889160671,91.07402380315514,0.9281240855397623,96,3.2
0.9144199743974061,0.5701694902767813,0.20060625672340393,0.9999485611915588,0.8277454902795439,0.7039995621245065,0.06749413907527924,0.9999902844429016,1.004261688852627,0.6968181277691683,-0.021675726398825645,0.9999945759773254,0.8717070847771388,1.0736997175564935,0.02557200752198696,0.9999802112579346,0.9699015850655449,1.0617163867536448,-0.025794202461838722,0.9999867081642151,0.8943563212979347,1.3502113002496374,0.13373076915740967,0.9779134392738342,0.9867907559464563,1.3251241654437271,0.11513657867908478,0.928975522518158,0.9234645666753497,1.6149967061495147,0.1666974127292633,0.973849356174469,0.9941203358749067,1.5701694902767813,0.22746320068836212,0.9004526138305664,0.8404057208824596,1.0731387903010348,0.20835945010185242,0.70412278175354,1.0480995409328981,1.0908781579208788,0.0019433606648817658,0.9455817341804504,0.0037186145782470703,0.9208043349213418,1.0677080521550693,178.40926102587457,178.04460319272403,1.0,0.01610871451577581,0.004545164155493332,0.1512734856403832,0.030980208867234498,89.82350135932484,0.9455194845711556,97,3.2333333333333334
0.9143263604265728,0.5690349863539054,0.2014676332473755,0.9999482035636902,0.8292239754615892,0.704477371915911,0.07744093239307404,0.9999894499778748,1.004818450948687,0.699270799128946,-0.018730828538537025,0.9999948740005493,0.8726128105628957,1.07388642305752,0.02837786078453064,0.9999794960021973,0.969956620425067,1.0614191305760232,-0.028598908334970474,0.9999866485595703,0.8962787524632192,1.3487680208771358,0.14496536552906036,0.9766219258308411,0.9862753377042478,1.3239685998619717,0.11594593524932861,0.9238354563713074,0.9234348575627939,1.6087883713911872,0.18707707524299622,0.9713813066482544,0.9931407459888085,1.5690349863539053,0.23673555254936218,0.8916410803794861,0.8425996847056472,1.0768174676453457,0.22521419823169708,0.6511775851249695,1.047551424561866,1.0898098864433035,0.019701290875673294,0.9497966766357422,0.0026977956295013428,0.9212847154939814,1.0676527768167716,178.95848446152104,178.0480579299732,1.0,0.008367379816807323,0.004997535042965045,-0.05940119652274199,0.003499017564524417,89.4005516335399,0.9542528098990622,98,3.2666666666666666
0.9147885579314956,0.5684338419818108,0.2105804979801178,0.9999440908432007,0.8321280563011864,0.7037525208720237,0.08158859610557556,0.9999877214431763,1.00939969409882,0.7006510020245202,-0.010663575492799282,0.9999951124191284,0.875042686795028,1.0745651238718017,0.02816603146493435,0.9999786019325256,0.9732542100238056,1.062146164072711,-0.02838711068034172,0.9999865889549255,0.8973607265840389,1.3492477259449376,0.1394941210746765,0.9758186340332031,0.9865531059392352,1.3240320170663202,0.11575372517108917,0.9195089936256409,0.9231584196190897,1.609464817884342,0.17370770871639252,0.9697052836418152,0.9935009084946391,1.5684338419818107,0.23377938568592072,0.8845539689064026,0.8466263526544442,1.07677894144571,0.22794055938720703,0.5959965586662292,1.048373190926868,1.0895190911567916,0.029279325157403946,0.9535502195358276,0.001606971025466919,0.9241484484094168,1.0683556439722564,178.98334220816955,178.72129829899893,1.0,0.02169366366652535,0.004973654088913725,0.10273428564253946,-0.00018619119709204824,89.39468021588992,0.9583928641149212,99,3.3
0.9146010383224122,0.5677656027029754,0.22935228049755096,0.9999436140060425,0.8339848225385234,0.7030569238693035,0.09795922785997391,0.9999860525131226,1.0125532715383871,0.6982208575985099,0.012957167811691761,0.9999953508377075,0.8771174452552564,1.072775764601567,0.02743375301361084,0.9999773502349854,0.9766502714168075,1.0600241504535564,-0.02766232192516327,0.9999863505363464,0.8968865496360999,1.3459002031000744,0.12620458006858826,0.976471483707428,0.9857427746867026,1.32275306896692,0.11651589721441269,0.9182718396186829,0.9204394472423597,1.6069620554269917,0.13965100049972534,0.9695903658866882,0.9922186723823659,1.5677656027029754,0.2252109944820404,0.881697952747345,0.8427757324254773,1.075439370249574,0.25100311636924744,0.5470412373542786,1.0497304448091578,1.0880750355603248,0.052620839327573776,0.9571453332901001,0.002508401870727539,0.9268838583360319,1.0663999575275618,178.98467809064732,179.53192847734587,1.0,0.028720879687143135,-0.0061246720729896485,0.05417930203097967,-0.0852402830589047,89.35357532134742,0.9558992443299515,100,3.3333333333333335
0.914893899804786,0.570701176168964,0.19011230766773224,0.9999433755874634,0.8364675035590355,0.7075073195910039,0.04403019696474075,0.9999857544898987,1.0190190554181946,0.6990217895307539,-0.013838699087500572,0.9999955296516418,0.8844267836934351,1.0725250398278845,0.02524673566222191,0.999976634979248,0.9863683891019608,1.06032797498287,-0.025453532114624977,0.9999860525131226,0.8990716617691031,1.3459445809423034,0.127097025513649,0.9752259850502014,0.9874120928440645,1.3247003192272035,0.11087901890277863,0.9141549468040466,0.9189889698235559,1.6080823405154228,0.15186971426010132,0.9684838056564331,0.9920347683377568,1.570701176168964,0.21895770728588104,0.876799464225769,0.8405306410763244,1.084983548432773,0.1502968966960907,0.5366306900978088,1.0542827784682423,1.0889678040409976,-0.02762601338326931,0.9604758620262146,0.00439530611038208,0.935397586397698,1.0664265074053771,178.720940140196,179.1496588824276,1.0,0.053574636437491836,-0.01061181771408843,0.18353098183072877,-0.03312552035519643,90.66228811021975,0.9480185737806608,101,3.3666666666666667
0.9129145349363258,0.5658405459978445,0.16446474194526672,0.999946653842926,0.8380243999372363,0.7042920364624672,0.011949727311730385,0.9999865293502808,1.014089864244998,0.6947228721923866,-0.028122752904891968,0.9999956488609314,0.8880789172585117,1.0670926118721775,0.020670626312494278,0.9999769330024719,0.9868309745429307,1.0545196119191358,-0.0208427831530571,0.9999857544898987,0.8958315437679029,1.3372679721045404,0.12153595685958862,0.976093590259552,0.9829117976170433,1.3191718864711144,0.10136236995458603,0.9155345559120178,0.9097702255253305,1.601432797666292,0.15226784348487854,0.9695503115653992,0.9832993745397238,1.5658405459978446,0.19931457936763763,0.8795134425163269,0.8344578676168257,1.0810185805567867,0.05916907265782356,0.5776490569114685,1.0521290961005225,1.0774386479704323,-0.101645827293396,0.9638420343399048,0.004979968070983887,0.9374549459007212,1.0608061118956567,178.62322346589963,179.06155586649476,1.0,0.04904820029510488,-0.004694683486769217,-0.03252937670010466,0.04464506915412022,90.59954107774033,0.9477200656229559,102,3.4
0.9128249287719186,0.5554344089290555,0.14256303012371063,0.9999499320983887,0.8339461481848569,0.6978303014108375,-0.004423178732395172,0.9999873042106628,1.0074994268352009,0.6839959550129823,-0.05566105991601944,0.9999958276748657,0.8869150963996162,1.0577212739914061,0.019937315955758095,0.9999770522117615,0.9848466360963626,1.0449884946681471,-0.020100440829992294,0.9999854564666748,0.8899157760174214,1.3228100503453417,0.11891545355319977,0.9770409464836121,0.9753069925196597,1.309656344246982,0.09316150844097137,0.9174912571907043,0.901010519647453,1.5867176186882854,0.1526656448841095,0.9707304835319519,0.9728730019043387,1.5554344089290555,0.19657455384731293,0.8821139335632324,0.826743926327703,1.075080498695411,0.038612790405750275,0.6149401664733887,1.0487993305162482,1.066391911116625,-0.14653830230236053,0.9671546220779419,0.007258057594299316,0.9358808662479894,1.0513548843297766,178.24122133386072,178.50312747486498,1.0,0.04534304920002114,-0.0069428995992040065,-0.025141971488164,-0.01736166186618137,90.96483409151026,0.9552301262978798,103,3.433333333333333
0.917357933789143,0.555078506346747,0.1284831464290619,0.9999520778656006,0.8371113985586559,0.6981007235149465,-0.019416335970163345,0.9999879598617554,1.0107191653281404,0.6793706414976333,-0.06302865594625473,0.9999958872795105,0.8914850393029239,1.0583309405694303,0.01556076854467392,0.9999761581420898,0.9907699393043453,1.045685434464329,-0.015722261741757393,0.9999841451644897,0.8916329831843186,1.3212392716521442,0.0801156610250473,0.9778395295143127,0.9764068741027135,1.3099138889283735,0.0845833495259285,0.915124773979187,0.9007277224204346,1.5833253258660147,0.089865542948246,0.9716558456420898,0.9706733379767167,1.555078506346747,0.18441064655780792,0.8802579641342163,0.8267023922900882,1.0760755639578683,4.066394831170328e-05,0.6506685614585876,1.0552756321871757,1.0652603090219044,-0.17469993233680725,0.9701659083366394,0.00981748104095459,0.9411274893036347,1.0520081875168796,178.04479823955432,178.2282510756849,1.0,0.032771089992122894,-0.0023845659912251067,-0.09434913388568811,0.034143368954188784,91.32506242007678,0.9618612723076932,104,3.466666666666667
0.9299789372921596,0.5593088939647477,0.14548853039741516,0.9999529123306274,0.8487576632986912,0.702749364542554,-0.012885239906609058,0.9999886155128479,1.0215650953118882,0.6841650939260707,-0.05404428765177727,0.9999956488609314,0.8997542579099113,1.0658474614658273,0.013138783164322376,0.9999759197235107,1.0001620032094847,1.053193687979299,-0.01327959168702364,0.9999829530715942,0.8987707856159246,1.3177400615268604,0.10348878055810928,0.9778485298156738,0.9858634590680194,1.309906069634351,0.10710523277521133,0.9087077379226685,0.9043855225136073,1.5915912259886362,0.14364728331565857,0.9721304178237915,0.9781173119699069,1.5593088939647477,0.22308537364006042,0.8768336772918701,0.8320858780788698,1.0836236057860056,-0.008849567733705044,0.6830642819404602,1.064702844940137,1.065429082021326,-0.17290765047073364,0.9723014235496521,0.00967174768447876,0.9499581305596979,1.0595205747225631,178.60173561335426,178.5909590581834,1.0,0.01534166636744581,-0.0001915603237428058,-0.1298669928074401,0.016248528073837247,90.81204336004284,0.9701662759657089,105,3.5
0.9452618924304937,0.5666406466890227,0.13192474842071533,0.9999483227729797,0.8609895240028381,0.7077094753845301,-0.04700516164302826,0.9999890923500061,1.0328004573424934,0.6926847985130254,-0.04559633508324623,0.999995231628418,0.9058905687761768,1.0735115993091873,0.00022014786372892559,0.9999751448631287,1.007741563421691,1.0612429289369665,-0.00035252212546765804,0.9999812841415405,0.9053661892222842,1.32049165817744,0.10116805881261826,0.9782887697219849,0.995464240873353,1.3178364783705114,0.11839418113231659,0.9034998416900635,0.9090581881339558,1.5940957319449705,0.13906000554561615,0.9732033610343933,0.985435791941467,1.5666406466890228,0.22885163128376007,0.876318633556366,0.8377374928612337,1.0909165475117812,-0.05540475994348526,0.711952805519104,1.0761781999885907,1.0718143884419848,-0.13293226063251495,0.9742781519889832,0.0077628493309021,0.956816066098934,1.0673772641230768,179.10525245793326,179.56878610120125,1.0,-0.0003446641184409346,0.0012890066424172419,-0.12721960221136364,0.011934222223696103,90.12928197653093,0.9761983530498924,106,3.533333333333333
0.9556010400437767,0.5721196933311492,0.12225461006164551,0.9999467134475708,0.8714499153628361,0.7125267649782221,-0.05879868194460869,0.9999896287918091,1.0443607948109344,0.6998091742735553,-0.04523121193051338,0.9999950528144836,0.9150002381690954,1.0799874060829548,-0.0035388569813221693,0.9999750852584839,1.0208034314938546,1.0687818405940053,0.0034058496821671724,0.9999805688858032,0.9118456013653479,1.324478322546016,0.10630937665700912,0.978207528591156,1.0038345224361096,1.326989902792155,0.1318461000919342,0.8977240920066833,0.915188682204586,1.5921636558607606,0.1660904735326767,0.9737717509269714,0.9928156582819527,1.5721196933311492,0.2552952766418457,0.8748489618301392,0.8434156701323174,1.0939629362415522,-0.05638181418180466,0.7384048700332642,1.0917585360384696,1.082175192539382,-0.11940660327672958,0.9761766791343689,0.006524592638015747,0.9679018348314751,1.0743846233384802,178.54523953607966,178.81382265113425,1.0,0.032382619462413796,-0.004200806549687655,0.24626626977151211,-0.04137540981091055,90.71336229483475,0.9891058414382948,107,3.566666666666667
0.9807928450994301,0.5935543500509469,0.10390214622020721,0.9999456405639648,0.888583932635393,0.7270149061809296,-0.0831364095211029,0.9999902844429016,1.0693485748208338,0.7217360023807378,-0.051483381539583206,0.9999949336051941,0.9355098298043495,1.1011905286732684,-0.009530839510262012,0.9999740123748779,1.0454640323196163,1.091649469852085,0.009341413155198097,0.9999787211418152,0.9283381471395612,1.3370631085469564,0.08470524847507477,0.9766454100608826,1.0226129260120873,1.3482036737993923,0.12288949638605118,0.8835430145263672,0.9327456365221937,1.601631887116387,0.10012302547693253,0.9727891087532043,1.0109812063615975,1.5935543500509468,0.19504255056381226,0.8676981329917908,0.8589753110886154,1.1125705169009483,-0.0958094671368599,0.7635251879692078,1.119981977592353,1.104314270644891,-0.12019076198339462,0.9782294631004333,0.0026586055755615234,0.9904869310619829,1.0964199992626766,177.30405361126782,177.62441338720677,1.0,0.03509647229634651,0.015308963060632876,0.0164357261753538,0.1526612179838905,92.18891939516466,1.002867420263815,108,3.6
