nose_x,nose_y,nose_z,nose_visibility,left_shoulder_x,left_shoulder_y,left_shoulder_z,left_shoulder_visibility,right_shoulder_x,right_shoulder_y,right_shoulder_z,right_shoulder_visibility,left_hip_x,left_hip_y,left_hip_z,left_hip_visibility,right_hip_x,right_hip_y,right_hip_z,right_hip_visibility,left_knee_x,left_knee_y,left_knee_z,left_knee_visibility,right_knee_x,right_knee_y,right_knee_z,right_knee_visibility,left_ankle_x,left_ankle_y,left_ankle_z,left_ankle_visibility,right_ankle_x,right_ankle_y,right_ankle_z,right_ankle_visibility,left_wrist_x,left_wrist_y,left_wrist_z,left_wrist_visibility,right_wrist_x,right_wrist_y,right_wrist_z,right_wrist_visibility,trunk_lateral_inclination,center_mass_x,center_mass_y,left_knee_angle,right_knee_angle,person_height,center_mass_velocity_x,center_mass_velocity_y,center_mass_acceleration_x,center_mass_acceleration_y,body_orientation,torso_leg_ratio,frame,timestamp
1.02616409148219,1.0526311164248308,-0.2036770135164261,0.999888002872467,0.9671929492522866,1.2090570245804069,0.027860799804329872,0.9999868869781494,0.9265323485423792,1.2438643649725185,-0.3616763949394226,0.9999943375587463,1.063080606092692,1.6399441487866264,0.1256789267063141,0.9999895691871643,1.031958051146171,1.6784749986657352,-0.12576255202293396,0.9999927282333374,1.2868699135846582,1.7073971421228762,0.2059498280286789,0.22125361859798431,1.3283114967606482,1.7107837095816925,-0.16238939762115479,0.9496976137161255,1.2560578654350993,2.0526311164248305,0.3309396505355835,0.3650428056716919,1.2901683159750317,2.0828371547603455,-0.01612866297364235,0.9211309552192688,1.2077564112044512,1.5862301881338248,0.01614600047469139,0.2385912984609604,1.2104230830152711,1.5926985319801639,-0.4523863196372986,0.9881399869918823,0.014519095420837402,1.0475193286194315,1.659209573726181,101.67336516149994,90.36831051836172,1.0,0.02415737729711804,-0.011665077788373892,0.12040368386710396,-0.05246406157568124,128.5252127927771,1.3005884282424585,0,0.0
1.0274092119961513,1.0542628545697623,-0.20655643939971924,0.9998952746391296,0.965733782547353,1.2084717757072978,0.02097218669950962,0.9999877214431763,0.9279272404313216,1.2447461391751469,-0.36579424142837524,0.9999946355819702,1.062920025109335,1.6348708783854387,0.12556448578834534,0.9999901652336121,1.0325165456770256,1.6778080697889028,-0.12564995884895325,0.999993085861206,1.2947584013246698,1.702708565431495,0.19449377059936523,0.22933745384216309,1.32805222924734,1.7130147787331058,-0.15969127416610718,0.9503918886184692,1.2605847310956024,2.0542628545697625,0.30804571509361267,0.3750140368938446,1.2921572092677962,2.085154888935822,-0.015788953751325607,0.9225407242774963,1.211137192962606,1.586664645980765,0.003296810667961836,0.24532383680343628,1.2113737820009383,1.596226333318338,-0.45558494329452515,0.9884961247444153,0.015115439891815186,1.0477182853931801,1.6563394740871709,100.75775225260912,91.28408297022533,1.0,-0.00689784425902802,-0.03584998623902284,-0.243199497677558,-0.18915074255619904,131.85829803827116,1.2752399426844254,1,0.03333333333333333
1.0287618543487846,1.0559462907590613,-0.2088618278503418,0.9999021887779236,0.9628202863936356,1.2084665119412055,0.019888831302523613,0.9999883770942688,0.9279628149171304,1.2438022773837256,-0.3694037199020386,0.9999949336051941,1.0631765405865827,1.6321102557437335,0.1256229430437088,0.9999905228614807,1.0335254646614067,1.6777465588929066,-0.1257137805223465,0.9999933242797852,1.2957677248148087,1.7045861454252769,0.19475315511226654,0.23440098762512207,1.3281395137895924,1.7170867924214925,-0.15866851806640625,0.9510467052459717,1.262211834328592,2.0559462907590613,0.3142605423927307,0.38349559903144836,1.2950768796161793,2.0860688595835297,-0.012903141789138317,0.9234055876731873,1.2126303397591005,1.584464416353573,-0.0020313989371061325,0.2554178237915039,1.2119469399387774,1.599422610912333,-0.46218234300613403,0.9891653656959534,0.014709949493408203,1.0483510026239948,1.6549284073183201,101.85177731480253,92.48548142248997,1.0,-0.0030536967173174375,-0.023639829402318766,0.030043104492695233,0.09553215184863846,133.6601464382957,1.2601982298035022,2,0.06666666666666667
1.0283421656070824,1.054679514416802,-0.22384750843048096,0.9999072551727295,0.9614960274621697,1.2056186382284408,0.013423552736639977,0.9999890327453613,0.9269667748584727,1.2425292457354358,-0.37972158193588257,0.9999951124191284,1.0619337574818437,1.6259205884497168,0.1262257844209671,0.9999908208847046,1.0327404998534413,1.6743753119782403,-0.12630991637706757,0.9999935030937195,1.2949313592424652,1.702526740251022,0.18883547186851501,0.23078827559947968,1.3248383436701856,1.717674117752187,-0.16039320826530457,0.9488452076911926,1.2640435012763875,2.054679514416802,0.311941534280777,0.37932682037353516,1.2957136255640112,2.086159187547671,-0.013645397499203682,0.9204311966896057,1.2124681546992822,1.581628746591715,-0.014902673661708832,0.25916844606399536,1.2102541421159123,1.5986992372009061,-0.48109012842178345,0.9891067147254944,0.015375375747680664,1.0473371286676425,1.6501479502139784,103.18742527174838,93.91256715140028,1.0,-0.002564457266459374,-0.02779970001521484,0.0036395973611573615,-0.03118348695434558,135.49197121169004,1.2403671789955708,3,0.1
1.0288358254498884,1.0556948082403939,-0.21530742943286896,0.9999110698699951,0.9666443582482014,1.2050577802827835,0.01730062998831272,0.9999896287918091,0.9273463091422962,1.2420123720122476,-0.37230077385902405,0.9999952912330627,1.0618458202988192,1.6274825212157782,0.126241073012352,0.999991238117218,1.0304996537090345,1.6749821344204345,-0.12632545828819275,0.9999937415122986,1.2966388951665109,1.701690120323766,0.18685784935951233,0.22955873608589172,1.3234190160756583,1.7181055572722606,-0.1617233008146286,0.9478662014007568,1.265199196381685,2.055694808240394,0.3008204698562622,0.3793494403362274,1.295924987608952,2.0890476590544673,-0.020806992426514626,0.9201359152793884,1.214273027275763,1.5818476837864694,0.002132065361365676,0.26882633566856384,1.2102122844483654,1.6003345690269746,-0.47027769684791565,0.9888471364974976,0.015389800071716309,1.0461727370039269,1.6512323278181065,102.46420730043003,94.1359123899632,1.0,-0.011199265998388719,0.005220811625228089,-0.06763678197133036,0.25872552026533013,133.87768741903378,1.2361458677511372,4,0.13333333333333333
1.0295612955953324,1.0581770779155093,-0.20023493468761444,0.999912679195404,0.9665181699310444,1.2066365604006604,0.02202664501965046,0.9999899864196777,0.928440090794492,1.242826550253479,-0.36645540595054626,0.9999954700469971,1.0626961700049775,1.6298140008178497,0.12619233131408691,0.9999912977218628,1.0312146184748623,1.6772767899487597,-0.12627704441547394,0.9999938011169434,1.2979517365549846,1.7036745061595195,0.18802152574062347,0.2219449132680893,1.3241106028445921,1.720448447532825,-0.16060426831245422,0.9459709525108337,1.2665182558998223,2.0581770779155093,0.3029152750968933,0.3722260296344757,1.297167987863501,2.092846709931887,-0.023824533447623253,0.9183529615402222,1.2156725953601504,1.5823459102789716,0.017955146729946136,0.2707426846027374,1.2120290952731787,1.6020635658874742,-0.4559599459171295,0.9893335103988647,0.015054941177368164,1.04695539423992,1.6535453953833046,102.36300630485823,94.24670940225143,1.0,-0.0026835489507173165,0.0038048565983183785,0.06362154886209181,-0.010606064837072948,133.63968170105463,1.2333277693115403,5,0.16666666666666666
1.0298913240153826,1.0587104709961495,-0.19760248064994812,0.9999150633811951,0.9674401289593498,1.2073318220237719,0.027707701548933983,0.9999904036521912,0.9287099012990885,1.2427317224880212,-0.3661198318004608,0.9999956488609314,1.064174976540305,1.6306368030750742,0.12637588381767273,0.9999913573265076,1.0316826808868786,1.6787010333731405,-0.1264599859714508,0.9999938011169434,1.2980627075229034,1.704654424987558,0.19217994809150696,0.2199426293373108,1.3243584906539227,1.7208771041617625,-0.16119101643562317,0.9462795853614807,1.267085089451396,2.0587104709961492,0.3117796778678894,0.3717825412750244,1.2976086697143667,2.093164889319327,-0.022730374708771706,0.9188356399536133,1.2161458596459924,1.5823254890705947,0.0243037398904562,0.2791186273097992,1.2127183614795929,1.6030464102456612,-0.4508326053619385,0.9898600578308105,0.014722287654876709,1.0479288287135917,1.6546689182241074,102.56055507426197,94.09037750212642,1.0,0.0052175265293063775,0.005113024389398104,0.059705878603440114,0.009876725823136907,133.06823523618448,1.2367349881870224,6,0.2
1.0300272381382094,1.059016061672511,-0.1957133561372757,0.9999181032180786,0.9622345306322991,1.2078071865457012,0.028822174295783043,0.9999907612800598,0.9288347741186662,1.242194834385412,-0.36585554480552673,0.999995768070221,1.0640069015514158,1.6309454431729937,0.12643620371818542,0.9999914169311523,1.0322933325612709,1.6789676395897253,-0.12652529776096344,0.9999938607215881,1.297256750841553,1.7059770255964541,0.1937905251979828,0.21651923656463623,1.3242116720381392,1.7206548619446058,-0.15934044122695923,0.945249617099762,1.267379649252356,2.0590160616725113,0.31180182099342346,0.3687988519668579,1.297726438164811,2.093183270359591,-0.02154659479856491,0.9180473685264587,1.2163802343190795,1.5823692823057305,0.022710110992193222,0.28006771206855774,1.2128559311174947,1.6031692499708328,-0.4505022168159485,0.9901600480079651,0.01430046558380127,1.0481501170563432,1.6549565413813594,102.99457428174806,94.06048954044276,1.0,0.0012315267546544467,0.0014678803742345932,-0.030753493135900173,-0.02812381734996271,133.03567475874743,1.2370036613978546,7,0.23333333333333334
1.0336416245634898,1.062060811337066,-0.19615516066551208,0.9999203681945801,0.963956550799212,1.2098849020710363,0.028478706255555153,0.9999910593032837,0.9307093799367281,1.243822133611913,-0.36602917313575745,0.9999958872795105,1.0656938770807611,1.6338941323594238,0.1266045868396759,0.9999914169311523,1.034433618682361,1.6818199340031221,-0.12669795751571655,0.9999938607215881,1.2986037487530202,1.7095054871417066,0.20074327290058136,0.2140587866306305,1.3265395413095675,1.7233391471286463,-0.15915511548519135,0.9445390701293945,1.2693949367363022,2.0620608113370658,0.32134145498275757,0.3631538152694702,1.3004147183561094,2.0960567622823874,-0.020429112017154694,0.9159720540046692,1.2183679178422213,1.5850572467533661,0.01981082558631897,0.28555840253829956,1.2151328950051825,1.6058739216859734,-0.4497588574886322,0.9905222058296204,0.014089584350585938,1.050063747881561,1.657857033181273,103.24931648188277,94.08022760399258,1.0,0.0012580214202570527,0.0010358517924752156,0.00019193844310496876,-0.003412983243998968,133.3924976513954,1.2359241296833674,8,0.26666666666666666
1.0362363189887616,1.0618863421970193,-0.19013193249702454,0.9999182820320129,0.9639296234620806,1.2108797670145022,0.03560057282447815,0.999991238117218,0.9308846103521246,1.2434195600070368,-0.3641854524612427,0.9999959468841553,1.0654636508875157,1.6345163455826184,0.12740518152713776,0.9999911189079285,1.0344972966524915,1.681955933235725,-0.12749959528446198,0.999993622303009,1.2958423018457295,1.7109773443336718,0.20917358994483948,0.2060554474592209,1.3260136826441062,1.7230812383756846,-0.15661659836769104,0.9418748617172241,1.2688589970774176,2.061886342197019,0.3268135190010071,0.3538327217102051,1.300312986697832,2.0957427650849905,-0.015607866458594799,0.911943256855011,1.218566950565586,1.5849140512129123,0.030604660511016846,0.28563711047172546,1.2151661351651504,1.6059529988104826,-0.45086055994033813,0.9908936619758606,0.013511240482330322,1.0499804737700036,1.6582361394091716,103.96349848771226,94.08476821172374,1.0,0.0004608131888991214,0.004744794623934336,-0.006271107732963133,0.029183111504944525,133.38737986525553,1.238624146050988,9,0.3
1.0374741415993576,1.0606024875560873,-0.20487387478351593,0.9999186992645264,0.963518990248775,1.2095254304366259,0.024525916203856468,0.9999915361404419,0.930238924700782,1.2423882185171216,-0.3718383014202118,0.9999960064888,1.064609441415513,1.6338246061881143,0.12740162014961243,0.9999911189079285,1.0335280795532535,1.6810166938958504,-0.12749536335468292,0.9999935626983643,1.2951592586289042,1.7097946382355689,0.2072477787733078,0.20451664924621582,1.3250916371585226,1.7204038712275136,-0.1567491590976715,0.9407933950424194,1.267914296171325,2.0606024875560873,0.3260635733604431,0.35212334990501404,1.2993529760712388,2.0932836760237086,-0.011050339788198471,0.909801185131073,1.2181571497926416,1.5836207764014603,0.01854005455970764,0.29046809673309326,1.2144534357291215,1.6054494515110744,-0.461561381816864,0.9910800457000732,0.013655364513397217,1.0490687604843834,1.6574206500419824,103.79704249429182,93.74480937634112,1.0,-0.0010800028956122751,0.0030404725637706506,-0.01170967428875166,-0.012928666878743623,133.22950808936488,1.2419303528703771,10,0.3333333333333333
1.0366502378889215,1.05915477998455,-0.21949359774589539,0.9999195337295532,0.9704142965985041,1.205102053906582,0.01753072254359722,0.9999918341636658,0.9292575459059649,1.2413796217269804,-0.38241472840309143,0.9999961256980896,1.064642490078197,1.6328249516371003,0.12782816588878632,0.9999912977218628,1.0321181398517534,1.6797588767322797,-0.127914696931839,0.999993622303009,1.2963830004828227,1.7067972368807773,0.19870583713054657,0.20785003900527954,1.323399430431134,1.7190522054148818,-0.1651366800069809,0.9408843517303467,1.266961988584686,2.0591547799845498,0.31409773230552673,0.35581111907958984,1.298329484917648,2.0918145814474376,-0.014028497040271759,0.9088063836097717,1.2175972513002422,1.5817376186282288,0.0002733877336140722,0.2942674160003662,1.2136304650900955,1.6041919935992481,-0.47736477851867676,0.9913050532341003,0.015085756778717041,1.048380314964975,1.65629191418469,102.93025443503983,93.83511610955036,1.0,0.0008784885586477775,0.0010554628059315108,0.015849982000073783,-0.016052625337485416,132.85482997414636,1.243722049344816,11,0.36666666666666664
1.0328630853330327,1.0565597047895363,-0.21150004863739014,0.9999194741249084,0.9658727766527733,1.204630607736173,0.028828393667936325,0.9999919533729553,0.9268999291736765,1.2390283706278826,-0.38186320662498474,0.9999961853027344,1.0615863795597618,1.6287591326752373,0.12839989364147186,0.9999910593032837,1.0293532904077256,1.6753346774300186,-0.1284886598587036,0.9999934434890747,1.2877838136726611,1.7080294349883467,0.20856337249279022,0.20405566692352295,1.3196628784221018,1.714459198598255,-0.1634511500597,0.939937174320221,1.2596835823810066,2.0565597047895365,0.3283078074455261,0.35449475049972534,1.2949272012752027,2.085985401157252,-0.013596484437584877,0.9077239632606506,1.2146861015794863,1.5758308762600728,0.028760243207216263,0.3045428395271301,1.2099217465261043,1.6001951601511906,-0.4659326672554016,0.9917747378349304,0.014342188835144043,1.0454698349837437,1.652046905052628,104.7033815167589,93.86635927768886,1.0,-0.0010009610919456302,0.0012946423195621295,-0.015287650645777414,0.0019707895240608977,132.5974431722739,1.243306571289662,12,0.4
1.0334616476553902,1.056499043217739,-0.20970125496387482,0.9999210834503174,0.9703100157505259,1.204543693628399,0.030346494168043137,0.9999922513961792,0.9269195185010783,1.24027700225951,-0.3754890561103821,0.9999963045120239,1.0614971691081554,1.627645875343551,0.12852755188941956,0.9999911785125732,1.0283140647421234,1.6760902500270896,-0.12861250340938568,0.9999935030937195,1.2879421419056907,1.7056085481125816,0.207564115524292,0.20278310775756836,1.3196952191764726,1.7139466918034651,-0.1643141359090805,0.94032222032547,1.2590431148130137,2.056499043217739,0.32350391149520874,0.3556725084781647,1.2948950741652778,2.086017770161259,-0.018209684640169144,0.90837562084198,1.2147219241658926,1.5743479714014594,0.025235649198293686,0.31274133920669556,1.20935819680638,1.6000930336015984,-0.45811429619789124,0.9920203685760498,0.014899134635925293,1.0449056169251394,1.6518680626853204,104.2898551650109,93.58907309804685,1.0,-0.004242535022321426,-0.0012852049862674745,-0.024645389668580892,-0.019614248429913262,133.42752020241585,1.2423510786441945,13,0.43333333333333335
1.0478973549772166,1.0738713134852906,-0.20870991051197052,0.9999222755432129,0.9816759326700484,1.2159006566109696,0.024530503898859024,0.9999925494194031,0.935878823691964,1.2543618037916118,-0.36491745710372925,0.9999964237213135,1.0732520407033144,1.6393490384604978,0.12598112225532532,0.9999913573265076,1.0379007496858723,1.6919324622532568,-0.12606360018253326,0.999993622303009,1.3044610656499136,1.7169351228245997,0.19015055894851685,0.20244579017162323,1.3325512155474049,1.7310194479648162,-0.1636536568403244,0.9402193427085876,1.2719985598642982,2.0738713134852906,0.30238524079322815,0.3557107150554657,1.3070984764937168,2.105919239123494,-0.019149791449308395,0.9091240167617798,1.2265439520974502,1.586949599940259,0.018231825903058052,0.3205491304397583,1.2208209278557671,1.6154357150046483,-0.4409533143043518,0.9922018051147461,0.015886545181274414,1.0555763951945933,1.6656407503568773,103.35342580238247,93.67250635845423,1.0,0.006300455273186909,-0.01422441679761942,0.0826567429426952,-0.10096439290453132,133.88445300373633,1.2215131040896319,14,0.4666666666666667
1.057774417669609,1.0818937967674127,-0.19903847575187683,0.9999265074729919,0.9805643634009155,1.2249739025238706,0.03462625667452812,0.9999927878379822,0.944262587526265,1.2613910311631436,-0.3615139126777649,0.999996542930603,1.0762588287071586,1.6464368204865352,0.12654325366020203,0.9999914765357971,1.042482350918326,1.6991431796627279,-0.12663951516151428,0.9999937415122986,1.3106384014715302,1.722903240695354,0.19301095604896545,0.20218324661254883,1.3383661048943556,1.738860179914084,-0.16358785331249237,0.9401081800460815,1.2776421489147674,2.0818937967674125,0.30927613377571106,0.35311606526374817,1.312673160476636,2.1147452787062635,-0.01896856725215912,0.908216118812561,1.232617617250977,1.5912142929031312,0.030314475297927856,0.32897600531578064,1.2260897521313996,1.622006670027258,-0.4380716383457184,0.9925626516342163,0.014978587627410889,1.0593705898127423,1.6727900000746314,102.81740610188548,93.73494802273184,1.0,-0.005352482479707224,0.0005364802485414858,-0.09026837807850308,0.11454899592954913,134.5542226417345,1.2146136494917157,15,0.5
1.0694791023788448,1.0927809146949787,-0.19932667911052704,0.9999306201934814,0.9893440448433884,1.2388901518320488,0.04098399728536606,0.999993085861206,0.9567810630360482,1.274749707296497,-0.36159804463386536,0.9999967217445374,1.0844061414954795,1.6586793177070034,0.12894117832183838,0.9999915361404419,1.0507422090642526,1.7121812400816985,-0.1290365308523178,0.9999938011169434,1.3219323877174178,1.730768113269503,0.19323298335075378,0.19754670560359955,1.3483972521276941,1.7519233602289124,-0.1643124520778656,0.9399616718292236,1.28909922367687,2.0927809146949787,0.30986714363098145,0.3482884168624878,1.3221970947635164,2.1307953578005576,-0.028551187366247177,0.9075104594230652,1.2419867716559345,1.5976197390569626,0.036146894097328186,0.343271404504776,1.2353550790244705,1.633703996200366,-0.4642392098903656,0.9929549694061279,0.014639198780059814,1.067574175279866,1.685430278894351,101.70062347104215,93.64912322622826,1.0,0.0019102539363945415,0.0005144111698189631,0.058278966191528815,-0.00020830045557646877,135.06195244923927,1.2136400380207113,16,0.5333333333333333
1.0719142463393072,1.0961752771504891,-0.20089244842529297,0.9999326467514038,0.9891389847891201,1.2417291690965917,0.039636556059122086,0.9999932646751404,0.9691011577151031,1.277967236731365,-0.3678777515888214,0.9999968409538269,1.0848417162029917,1.665990068197906,0.13016870617866516,0.9999913573265076,1.0545212997539513,1.7195157876959861,-0.1302567720413208,0.9999937415122986,1.3205658665682452,1.7348744753739864,0.2098180502653122,0.19534419476985931,1.3514496353905,1.7552144302501858,-0.159653902053833,0.9411920309066772,1.2908003145231641,2.0961752771504893,0.32432821393013,0.35061347484588623,1.3253816183659752,2.1328577924167607,-0.02676667831838131,0.9095325469970703,1.2447767890919643,1.5973768370050874,0.013428380712866783,0.3470095098018646,1.2382839316449201,1.6359122174219667,-0.481839120388031,0.9933961033821106,0.014759421348571777,1.0696815079784716,1.692752927946946,101.58002097279352,92.90680709039715,1.0,-0.0029010604808292406,0.026442741619543127,-0.0373896938739281,0.20129925470818943,137.75824178058767,1.231372449033199,17,0.5666666666666667
1.0791194582306873,1.1005613002686663,-0.19756805896759033,0.9999346137046814,0.9868830756697186,1.2456694916790831,0.03844309225678444,0.9999934434890747,0.9809039868446833,1.2818737737637582,-0.36726218461990356,0.9999969601631165,1.0860231219329641,1.6757297516450202,0.1300400197505951,0.9999911189079285,1.0611101784205619,1.7280918881345881,-0.130128413438797,0.999993622303009,1.3214518916053226,1.7404203361840875,0.20791630446910858,0.19677138328552246,1.356022109635421,1.7602672406787694,-0.15461821854114532,0.9424154162406921,1.2949363027003091,2.1005613002686663,0.3038688004016876,0.3592936396598816,1.3295816906132416,2.138350609804663,-0.033732011914253235,0.9122633934020996,1.2475155582938404,1.5962447945406697,0.020082227885723114,0.35088127851486206,1.2428556128228367,1.6396402798110798,-0.47193580865859985,0.9938340783119202,0.014698266983032227,1.0735666501767631,1.701910819889804,101.15357358267663,92.2260923188138,1.0,0.0032833739258079264,0.027860722701707835,0.04664261911484439,0.010036094272639011,141.5743709516895,1.2503700615186955,18,0.6
1.0908865416797897,1.1017811981441177,-0.20052292943000793,0.9999372363090515,0.992477151093645,1.2462847390341703,0.02827712893486023,0.9999936819076538,0.9906955416280808,1.2824431259959854,-0.37161049246788025,0.999997079372406,1.085427130880134,1.6804276215278593,0.13008682429790497,0.9999910593032837,1.0616622263537177,1.7320021894052997,-0.13017699122428894,0.9999935626983643,1.3223396904042233,1.7404448558964691,0.20730693638324738,0.19615711271762848,1.355813029723263,1.7607729493863085,-0.15149006247520447,0.9420798420906067,1.2956782749413573,2.1017811981441175,0.3005858063697815,0.3625032305717468,1.3300029027542084,2.138821869608751,-0.03150034695863724,0.9128026366233826,1.2487763186965577,1.5964254991091953,0.0013533156597986817,0.3580995202064514,1.2439049506649305,1.640454375049946,-0.4800960421562195,0.9941532611846924,0.0146712064743042,1.0735446786169258,1.7062149054665796,99.99575815651058,91.68067340689133,1.0,-0.004830449027087336,0.025157998451927007,-0.06137988756831651,-0.02056200834698112,143.17576947419357,1.2643383032062472,19,0.6333333333333333
1.097544116418239,1.1073108890131447,-0.15830618143081665,0.9999355673789978,0.9943915580359263,1.253574093385933,0.055840540677309036,0.999993622303009,1.0043121247403481,1.2849744480179224,-0.3416191339492798,0.999997079372406,1.0781171743258808,1.6954883993670073,0.13087430596351624,0.9999902844429016,1.0634105113746168,1.738368906350136,-0.13099491596221924,0.999993085861206,1.3228057375730642,1.7444910751194775,0.21747291088104248,0.19120754301548004,1.3577680197333524,1.764398320117764,-0.14178118109703064,0.9395542144775391,1.2964833125292874,2.1073108890131445,0.30248093605041504,0.35898661613464355,1.3330843964501462,2.14382510024409,-0.028645258396863937,0.9103480577468872,1.2517990929165996,1.6007765535027179,0.054450374096632004,0.35551026463508606,1.2467528203255591,1.64395036624569,-0.43436193466186523,0.9942951202392578,0.012711107730865479,1.0707638428502488,1.7169286528585717,97.17504361709894,91.33126655175475,1.0,-0.03981631957027023,0.050941684233706104,-0.2639792061542184,0.1941671010721809,150.3414778616175,1.2820629398402992,20,0.6666666666666666
1.1061720975808065,1.1080924431914634,-0.17240622639656067,0.9999374151229858,1.004002640981538,1.253822997528775,0.04898582398891449,0.999993622303009,1.015362985826266,1.285391638192894,-0.3476620316505432,0.9999971389770508,1.0781925699747796,1.6984557328116179,0.13106904923915863,0.9999898672103882,1.063745163693353,1.7401770547605975,-0.13118723034858704,0.999992847442627,1.324467117901856,1.7435742437281292,0.2111883908510208,0.18853089213371277,1.3579205326740453,1.764893283651065,-0.14327777922153473,0.9389134049415588,1.2969667376992013,2.1080924431914636,0.28542402386665344,0.3575202226638794,1.3325254257072967,2.1455699302231466,-0.03334980458021164,0.9107691049575806,1.2522764104597892,1.6016520495776896,0.041669540107250214,0.3510889708995819,1.2473469219419095,1.6444966356207724,-0.4384434223175049,0.9944342374801636,0.01277470588684082,1.0709688668340662,1.7193163937861078,96.06729699852114,90.98606484338872,1.0,-0.0013939606963706186,0.014232948365266535,0.3074201723116112,-0.29374589880303975,151.4269604578764,1.2892826801306987,21,0.7
1.1214749077206758,1.1083982931409293,-0.173995241522789,0.9999384880065918,1.0212162715065238,1.2506050496483572,0.051816463470458984,0.999993622303009,1.0233348567447043,1.2851813565382888,-0.3447434604167938,0.9999972581863403,1.0790498037671838,1.6953186587449276,0.13099156320095062,0.9999896883964539,1.063447738949406,1.740480379112152,-0.13110856711864471,0.9999927878379822,1.3360931016716893,1.7305644809948602,0.1755828708410263,0.19539253413677216,1.358033908117303,1.7647928461289455,-0.1473468542098999,0.9410298466682434,1.2986048080630568,2.108398293140929,0.23911145329475403,0.36866599321365356,1.3322837139468005,2.147658703312996,-0.0442093089222908,0.9139876961708069,1.2514651817027123,1.5972871738460344,0.04021641984581947,0.3529069125652313,1.2469361938604189,1.6451894142919066,-0.44115501642227173,0.9947791695594788,0.013990461826324463,1.071248771358295,1.7178995189285398,92.14143205747651,90.87026527432425,1.0,0.0013449527737925049,-0.011992867923119876,0.020770806786774836,-0.1988865766331071,153.53191037758018,1.2812373334038203,22,0.7333333333333333
1.143617278615162,1.110648243066444,-0.19039727747440338,0.9999399185180664,1.0447408517473462,1.2497446055952246,0.04346301779150963,0.9999936819076538,1.037580073483969,1.2854858098650237,-0.3571633994579315,0.9999973773956299,1.084986083475547,1.6917204423198042,0.13093657791614532,0.99998939037323,1.064919885953824,1.7425832373361103,-0.13105164468288422,0.9999926090240479,1.3423199517383486,1.7330055415349623,0.1672738790512085,0.2097940593957901,1.3598130303508558,1.7655240415887996,-0.15705153346061707,0.9440227150917053,1.3003062077876488,2.1106482430664437,0.23039408028125763,0.38726797699928284,1.332295039168342,2.1509822691531055,-0.05385342240333557,0.9183432459831238,1.2526748194244297,1.5948741170345044,0.03873620927333832,0.3642341196537018,1.2487938274645967,1.6475462814781163,-0.4642789363861084,0.9951629638671875,0.01444309949874878,1.0749529847146855,1.7171518398279573,92.76631918733499,90.36484990873392,1.0,0.017170749439021984,-0.02203735763949295,0.11729332066114875,-0.0743380484310082,153.26709712069956,1.2744771804090131,23,0.7666666666666667
1.1509934653580154,1.1155942484250951,-0.17613843083381653,0.9999405145645142,1.0500630835711633,1.252775081060112,0.04768490418791771,0.999993622303009,1.045150421311177,1.290107345365281,-0.3474229872226715,0.9999973177909851,1.0895064020624503,1.6951288257673898,0.13043805956840515,0.9999892115592957,1.0694375406744459,1.7478246182683121,-0.13053679466247559,0.9999924302101135,1.3468870762240135,1.7396675522826524,0.17748728394508362,0.21958306431770325,1.3652976012545186,1.7710069698849347,-0.15613070130348206,0.9471868872642517,1.3052925705627823,2.115594248425095,0.2532960772514343,0.4036968946456909,1.3370168797700959,2.1600863259001173,-0.046667732298374176,0.9230687022209167,1.2548572572689387,1.601721749433788,0.035788919776678085,0.3644140660762787,1.2543655911940237,1.654339349257736,-0.43963879346847534,0.9951243996620178,0.015025615692138672,1.0794719713684482,1.7214767220178508,93.50376256986061,90.32299790812817,1.0,0.001520129446098621,-0.020083680662248776,-0.12228770420351666,0.015887715639579553,154.05556691705493,1.2672529139249233,24,0.8
1.1833122811782442,1.117855023243793,-0.163034126162529,0.9999363422393799,1.0817450365733992,1.2569562186738843,0.06683756411075592,0.9999933838844299,1.0681060184697837,1.2929098278116216,-0.34149521589279175,0.9999972581863403,1.0963096165199455,1.701141808569682,0.13248179852962494,0.9999884963035583,1.0739514923579674,1.7538443800626298,-0.1325438916683197,0.9999918937683105,1.3520022601567951,1.7460645792408045,0.1832118034362793,0.21249304711818695,1.369544624910473,1.7766612364166054,-0.15648144483566284,0.9496447443962097,1.3109154563627567,2.117855023243793,0.2596011459827423,0.40360575914382935,1.3413810684233052,2.166925624393944,-0.05138084292411804,0.9264930486679077,1.2593960053377855,1.6076940123302756,0.034200381487607956,0.3625163435935974,1.2622910326288221,1.659979081812045,-0.43826937675476074,0.9951406717300415,0.014423489570617676,1.0851305544389565,1.727493094316156,93.65842341565023,90.28629979531999,1.0,0.016991943870441985,0.003026365774989929,0.12378922635606261,0.18548832761616704,155.13376154947952,1.2869150855398086,25,0.8333333333333334
1.2081589674699122,1.1273613530569533,-0.11753982305526733,0.9999345541000366,1.0930776095904242,1.265818492778702,0.10088258981704712,0.9999929070472717,1.0894834027536973,1.2992050656025238,-0.3025018870830536,0.999997079372406,1.1015687048843843,1.711230347330753,0.13236266374588013,0.9999875426292419,1.0794956793148716,1.7625898952964982,-0.1324295550584793,0.9999910593032837,1.3601414510678818,1.7544160720304551,0.17822404205799103,0.2073328047990799,1.3749412580171843,1.7844285128265616,-0.16006261110305786,0.9517012238502502,1.3214523295045442,2.1273613530569535,0.23847787082195282,0.4014747440814972,1.3479611912855451,2.17837391740252,-0.06337104737758636,0.9294022917747498,1.2741913389215513,1.6162668728063905,0.06896588206291199,0.37247443199157715,1.2772953791382071,1.6672863051582085,-0.3863257169723511,0.9951587319374084,0.0133284330368042,1.0905321920996278,1.7369101213136255,93.55913783106838,90.30958862532567,1.0,0.0006972284833908994,0.007435371578157028,-0.1266785288302068,0.033987888971683075,155.65107463147788,1.2870684151384868,26,0.8666666666666667
1.2415453019493135,1.1530172611100875,-0.1060250774025917,0.9999306797981262,1.1162931305495583,1.2881950531543225,0.1085633635520935,0.9999922513961792,1.1234667036905188,1.3167442263408315,-0.2909422516822815,0.9999967217445374,1.1165766354019402,1.732689501657183,0.13254863023757935,0.9999862909317017,1.0960963417130063,1.7864363318996679,-0.13262532651424408,0.9999899864196777,1.3791289129930644,1.7760525032525127,0.19297422468662262,0.20121365785598755,1.3934666772088806,1.8085628755427317,-0.15986889600753784,0.9534191489219666,1.3390394958501382,2.1530172611100875,0.2502266466617584,0.40327784419059753,1.36504506985667,2.2098119009238686,-0.07270952314138412,0.9328336715698242,1.2977485689511872,1.637833030244679,0.1023087352514267,0.375704288482666,1.3044562922453062,1.6888443829229751,-0.35873907804489136,0.9949085116386414,0.011245191097259521,1.1063364885574734,1.7595629167784255,93.30781101729872,90.20373077366797,1.0,0.007566258529096976,-0.005994900732990368,0.049141557007484724,-0.09693361267563862,159.104054142332,1.2729243483322736,27,0.9
1.3132679698475327,1.222458670483485,-0.08602199703454971,0.999909520149231,1.1639179359967242,1.3410260254250552,0.12544585764408112,0.9999894499778748,1.189477279279261,1.3656615294534231,-0.27394360303878784,0.9999960064888,1.140172816995878,1.8002353889646756,0.1330437958240509,0.9999839663505554,1.1378790821322469,1.8542290972141346,-0.13315077126026154,0.9999886155128479,1.42284831013356,1.8366615446099155,0.22959940135478973,0.18950772285461426,1.4459248157877562,1.8785410533228175,-0.15954183042049408,0.9544987082481384,1.3889362474739506,2.222458670483485,0.309237539768219,0.3970198333263397,1.4173384147110015,2.2932994874985244,-0.06493516266345978,0.9351053237915039,1.3541947398804302,1.7003877156393876,0.12758144736289978,0.3556700646877289,1.3676189943675177,1.752376212097284,-0.35217615962028503,0.9943124055862427,0.00934910774230957,1.1390259495640624,1.8272322430894052,92.31932809625465,90.56985002667578,1.0,-0.06632728951545926,0.006756135097328027,-0.5310684105121547,0.09291398964961596,179.47249531517605,1.2458227144444407,28,0.9333333333333333
1.3567944499547404,1.25383940897906,-0.07509352266788483,0.9998550415039062,1.198074026730016,1.3597813207229155,0.1412263810634613,0.999983012676239,1.2308832464731538,1.3837170697856251,-0.2653777003288269,0.9999943375587463,1.1516575706954348,1.8382578174958077,0.1343364119529724,0.9999814033508301,1.1541109180648887,1.8819829992585793,-0.13447527587413788,0.9999869465827942,1.4431627917053917,1.8601759273095477,0.22886602580547333,0.17955686151981354,1.4666832241062726,1.906015767058172,-0.15949992835521698,0.9560375809669495,1.4085581677509718,2.25383940897906,0.3142605125904083,0.3881128132343292,1.436991348605049,2.3261054639869316,-0.060292620211839676,0.9371448159217834,1.3748203400976686,1.7252391137489729,0.09065813571214676,0.3285003900527954,1.396102172678058,1.776503081499881,-0.3373452126979828,0.9913656115531921,0.00895547866821289,1.1528842443801617,1.8601204083771936,89.27632605892855,90.35372073591672,1.0,-0.018306444326563715,0.050877292144963816,0.36874125538841335,0.3315062365044222,171.24773599325343,1.2602530198833068,29,0.9666666666666667
1.3661473255781613,1.2308599687400994,-0.04662785679101944,0.9998254776000977,1.2019787168879972,1.3449207861635741,0.15005891025066376,0.9999785423278809,1.2413700998427393,1.3687829148261863,-0.24250230193138123,0.9999920129776001,1.1275785143612824,1.8242472477396374,0.13244375586509705,0.9999803304672241,1.1434981037545997,1.8620484524521184,-0.13263846933841705,0.9999859929084778,1.4244066910401547,1.8433812317207703,0.23191194236278534,0.17478813230991364,1.4508453150214642,1.8889763741682628,-0.11386857181787491,0.9577046632766724,1.3912891923742987,2.2308599687400994,0.32734572887420654,0.393414169549942,1.421091442812953,2.2980798648939436,0.01793404296040535,0.9404117465019226,1.3662368331831165,1.7244801487339048,0.12236692011356354,0.30505168437957764,1.3961528591337036,1.7576299520811267,-0.28052955865859985,0.9841249585151672,0.009025633335113525,1.1355383090579412,1.843147850095878,88.80311552515806,90.8473607736038,1.0,-0.03582593912611652,0.02328320602608709,-0.13043702731042764,-0.19909264559966328,148.33916415140803,1.3065479610977733,30,1.0
1.410159890503714,1.2404760944240467,-0.037091322243213654,0.9997998476028442,1.228030973421635,1.3559789025282056,0.1613600254058838,0.9999746680259705,1.2708670453331645,1.3724516609691957,-0.22828824818134308,0.999990701675415,1.1320917764812406,1.8323647987787852,0.1296117603778839,0.9999775290489197,1.1488059547487035,1.8652370528749682,-0.1298157423734665,0.9999840259552002,1.425322129284975,1.8584652977946716,0.2303471565246582,0.1671656221151352,1.4537176166447365,1.897601677970425,-0.11898668855428696,0.9590839147567749,1.3990695784097729,2.240476094424047,0.31666481494903564,0.3915537893772125,1.4244672915213878,2.306103287422777,-0.003527668071910739,0.9431098699569702,1.3787599973505398,1.7357333948277578,0.1305745393037796,0.2898663282394409,1.4061999106162435,1.7610240558515058,-0.27560335397720337,0.9829297661781311,0.006218433380126953,1.140448865614972,1.8488009258268767,91.15520493811255,91.96331841160138,1.0,0.02074209827150511,0.015703140427415507,0.43904241535148203,-0.05911323942445669,141.66207957596345,1.320848346570401,31,1.0333333333333334
1.4399089742925055,1.2659771300215938,-0.006261476315557957,0.9997632503509521,1.258819328061192,1.3677975487500267,0.19245222210884094,0.9999703764915466,1.3070233054183165,1.3858260015197457,-0.2091430425643921,0.9999902248382568,1.14242193014068,1.8450627507397548,0.12964847683906555,0.9999756217002869,1.1619395937654164,1.8744900915950555,-0.12985165417194366,0.9999831318855286,1.4320960245194974,1.8887315848517803,0.2372722625732422,0.16032712161540985,1.4653671006540505,1.9112739495926616,-0.10728178173303604,0.9610099792480469,1.4054947491163179,2.265977130021594,0.33161187171936035,0.38634297251701355,1.4349699597353263,2.3223856827103,-0.007133160717785358,0.946424663066864,1.3948385580291272,1.7608219858668102,0.21893885731697083,0.2774443030357361,1.4331268943146942,1.7764373890526781,-0.3065081238746643,0.9834641218185425,0.006756842136383057,1.1521807619530482,1.8597764211674053,94.53937105539269,92.68342317284531,1.0,0.025925598798862564,-0.017813422021672947,0.037449158350755685,-0.25020745264570987,132.73973047401185,1.2926507225631647,32,1.0666666666666667
1.4412647720095313,1.2742547915451938,0.023124346509575844,0.9996523857116699,1.2715183345483605,1.366084342272702,0.2083277702331543,0.9999626278877258,1.3328152259278008,1.3873871192588973,-0.19752444326877594,0.9999887347221375,1.1445460773537115,1.841010630936885,0.1298079937696457,0.9999735355377197,1.1677058921878756,1.8602302087122418,-0.13001872599124908,0.9999820590019226,1.4321643634468806,1.9047984804375593,0.22215864062309265,0.15017390251159668,1.4696294813193658,1.9140260550304231,-0.11572901904582977,0.9609010219573975,1.403870001302696,2.274254791545194,0.3033246099948883,0.3721936345100403,1.4344153135911917,2.3256293902818572,-0.026022082194685936,0.9470432996749878,1.3827281315211881,1.7745605709388697,0.18158017098903656,0.25672537088394165,1.4391845967718768,1.778005672177911,-0.28006511926651,0.9803154468536377,0.007977962493896484,1.1561259847707936,1.8506204198245635,98.12525576655706,95.2128150044544,1.0,0.023439818527271443,-0.0806701285690682,-0.0191257147268074,-0.47972055766113203,114.72013386633516,1.2350865330467888,33,1.1
1.4223371137671417,1.2634640762368,0.0853939801454544,0.9995593428611755,1.2602881997200241,1.3546403588218692,0.24802713096141815,0.9999575614929199,1.3271840889957935,1.374077252758833,-0.15450116991996765,0.9999876618385315,1.1255971911297724,1.8280270826743854,0.1299973428249359,0.9999728798866272,1.1566484894882145,1.8359036410658947,-0.13023345172405243,0.9999818205833435,1.4134231580779255,1.9059584610736802,0.22062614560127258,0.14885510504245758,1.4575704741690674,1.8979934693310063,-0.09363272786140442,0.9635453224182129,1.3903762602639238,2.2634640762368,0.2957049310207367,0.3790234625339508,1.420578850667518,2.304578963849597,-0.018656359985470772,0.9505884647369385,1.3415396120329575,1.7898263971346333,0.22192518413066864,0.2411215901374817,1.4305536913002943,1.7633294951787666,-0.2089579999446869,0.9775503277778625,0.00734943151473999,1.1411228403089935,1.83196536187014,101.4615666123066,96.45982105405082,1.0,-0.030429175941360524,-0.007438148616850405,-0.41300074738415576,0.557860694612888,88.35113846812068,1.2111431071906404,34,1.1333333333333333
1.4190651521853983,1.2155102616530358,0.03368229418992996,0.999513566493988,1.2605020282101418,1.3246519720100751,0.22313275933265686,0.999950110912323,1.324967559671724,1.3451508181089293,-0.19224430620670319,0.9999873042106628,1.1038916125364382,1.7806332416894541,0.13394415378570557,0.9999728202819824,1.1380250030304904,1.7830090226435305,-0.13413149118423462,0.9999822974205017,1.3838660939174992,1.8606616430357867,0.22790220379829407,0.1429043859243393,1.4296099467675374,1.8578350887028954,-0.10757339000701904,0.9661009907722473,1.3674833133988413,2.2155102616530358,0.3263689875602722,0.37645870447158813,1.390735874037776,2.2569912890860913,-0.01876264438033104,0.9537888169288635,1.3188633689839366,1.7405127134373755,0.20192117989063263,0.22123439610004425,1.4086816236699697,1.7361872334528476,-0.24507100880146027,0.976161003112793,0.007917404174804688,1.1209583077834642,1.7818211321664923,103.30877333280361,98.83005544866305,1.0,0.028711846435291535,-0.08738763486470687,0.43939245215763145,-0.601659371307214,75.02608354874029,1.224519246622592,35,1.1666666666666667
1.3842439391699763,1.157987082700519,0.16766440868377686,0.999160885810852,1.2279731467672321,1.2823054918971732,0.27199792861938477,0.999944806098938,1.307321834225722,1.3018880240021946,-0.10235313326120377,0.999987006187439,1.0659515295096136,1.7078753537348697,0.1286066770553589,0.9999729990959167,1.1164425395653326,1.700239189034703,-0.1288743019104004,0.9999826550483704,1.3119539862234713,1.874379363483967,0.21839475631713867,0.14909258484840393,1.385083280267028,1.8000669469105914,-0.0687142014503479,0.9675760269165039,1.3209983239346719,2.157987082700519,0.26209431886672974,0.3936085104942322,1.348543755159432,2.187004239397786,-0.012779404409229755,0.9561418890953064,1.1988751662924921,1.7261307609091352,0.32126572728157043,0.2019871175289154,1.3765916246678356,1.69036971607078,-0.20227432250976562,0.9715335369110107,0.007805585861206055,1.091197034537473,1.7040572713847864,125.91822786913244,104.99063058584024,1.0,0.03818717971421237,-0.17163113839248081,0.07907320307990316,-0.6633051782449826,60.557197360883045,1.1737759780114898,36,1.2
1.3600776029440265,1.078463462855059,0.13051046431064606,0.9989539980888367,1.2168103206066951,1.2063037627164126,0.2419310063123703,0.9999356269836426,1.2842841423710698,1.2354127508735635,-0.12864741683006287,0.9999866485595703,1.0273699603097697,1.607699027411603,0.12494806200265884,0.9999737739562988,1.08202093341422,1.6079407123599345,-0.12519320845603943,0.9999834299087524,1.2397633666397936,1.804318047070939,0.2438875436782837,0.16239021718502045,1.333538703421892,1.7282721504398495,-0.05465855449438095,0.9691315293312073,1.2521968101027174,2.078463462855059,0.33090347051620483,0.42520672082901,1.294402800219724,2.095892301976025,0.06718944758176804,0.9582347869873047,1.1308185722984898,1.6428121520224128,0.3279396891593933,0.18287219107151031,1.3375014191464938,1.630121255316782,-0.2174747735261917,0.9674697518348694,0.012103617191314697,1.0546954468619947,1.6078198698857686,135.38815007972312,109.4907663756318,1.0,0.06928488541212861,-0.20617342334102795,0.26183072247987893,-0.33366991178630956,64.98819417153602,1.1599568523865744,37,1.2333333333333334
1.3716523668823621,1.0777748410321084,0.17158536612987518,0.9985780715942383,1.2284671808154628,1.197412816299101,0.29473042488098145,0.9999270439147949,1.3015411413449316,1.2232996397937228,-0.11302731186151505,0.9999855756759644,1.0289775531127505,1.591944814166861,0.130955308675766,0.9999731183052063,1.0893452684079576,1.5936475370750596,-0.13120286166667938,0.9999833106994629,1.2516651132827732,1.7877741540917622,0.24982090294361115,0.15935876965522766,1.3349815121263615,1.7302687858465622,-0.0796976387500763,0.9704822897911072,1.2536254029679552,2.0777748410321086,0.32641497254371643,0.42730841040611267,1.2947088814216194,2.1011481655752826,0.05239834263920784,0.9596815705299377,1.161092889106173,1.6480916467336848,0.34898120164871216,0.16715651750564575,1.3429328107806324,1.6345962088637103,-0.1999659240245819,0.9634400606155396,0.010759085416793823,1.059161410760354,1.5927961756209603,131.7153834169631,112.88523367028887,1.0,0.029790001819963757,-0.11714448171111987,-0.2943028897719497,0.6635785603310232,64.79283903816142,1.1130829098675197,38,1.2666666666666666
1.3670097490723583,1.066381584029014,0.19232727587223053,0.9983680844306946,1.232386371829674,1.1701610253837387,0.30407029390335083,0.9999220967292786,1.3066712392585376,1.194143931847441,-0.09605884552001953,0.9999855160713196,1.0336750831768644,1.5633956691634598,0.13245359063148499,0.9999733567237854,1.0916563857116404,1.5690472556524788,-0.13267938792705536,0.9999837875366211,1.2487090685090672,1.750398305209371,0.26433202624320984,0.1572536677122116,1.333938316554234,1.7242905569933742,-0.0969083234667778,0.9726313948631287,1.2551166460666834,2.0663815840290143,0.3630085289478302,0.4319166839122772,1.2887596049771768,2.092114406362832,-0.007525959517806768,0.9619141817092896,1.1665787413598216,1.609612922578662,0.37578922510147095,0.1535821408033371,1.346004191003178,1.6267687085659428,-0.16141201555728912,0.9606536626815796,0.010012239217758179,1.0626657344442523,1.5662214624079693,132.17329668834677,115.64751407451091,1.0,0.06069633330803545,-0.14421826361049156,0.22953464112769745,-0.20406103441973783,68.75857012106862,1.0561932858391312,39,1.3
1.33592530340347,0.9848433415887434,0.11956693977117538,0.9983963966369629,1.203694215953294,1.1063201909949714,0.2745654881000519,0.999916136264801,1.26513395031661,1.124580243271612,-0.13679540157318115,0.9999840259552002,1.0094310627525505,1.4771209429004617,0.1346568763256073,0.9999738335609436,1.056198349375356,1.4831453798289003,-0.13485024869441986,0.9999841451644897,1.216387972256334,1.6774186864979452,0.21715255081653595,0.1659098118543625,1.2864307128695212,1.6573853447033884,-0.0928584486246109,0.9746646881103516,1.2062652387780164,1.9848433415887434,0.3278598189353943,0.4425279200077057,1.2396075821710586,2.0105099373640773,0.008763236925005913,0.9644870758056641,1.128235834882652,1.5465307382531919,0.30112001299858093,0.14477479457855225,1.2960483799043654,1.5640052688267942,-0.16279444098472595,0.9548375606536865,0.007932305335998535,1.0328147060639532,1.480133161364681,132.17729287356195,119.5652872034333,1.0,0.08688459022659019,-0.18795970696282716,0.2143775549091653,-0.3706054630771653,69.69014563353544,1.0531718717031728,40,1.3333333333333333
1.308338893842696,0.933247704828793,0.07396312803030014,0.9984779357910156,1.1847121726730188,1.0542564112839934,0.2561911642551422,0.9999096393585205,1.2348608202836695,1.0767420424602498,-0.16951751708984375,0.9999823570251465,0.9960218145628571,1.414752548984247,0.13719871640205383,0.9999743103981018,1.0394289206600476,1.421250830736759,-0.13735529780387878,0.9999845027923584,1.1846216014934894,1.6298733940480843,0.22024914622306824,0.17684248089790344,1.2565158816830477,1.615048441554538,-0.08962546288967133,0.9764993190765381,1.1730247501110431,1.933247704828793,0.33168405294418335,0.4613882899284363,1.2086292426018508,1.9574620031860215,0.017526399344205856,0.9671656489372253,1.099783257022439,1.4640893956243968,0.24030594527721405,0.13644865155220032,1.26612564413408,1.5235695464427768,-0.18106050789356232,0.9519515633583069,0.010032862424850464,1.0177253676114524,1.418001689860503,136.56931692487734,123.7946909730104,1.0,0.09548512200662011,-0.18061513010270328,0.08538387347121804,0.018661695035695598,70.88586812983775,1.0182938917677389,41,1.3666666666666667
1.276582862114868,0.8810853792697181,0.024589648470282555,0.9985837340354919,1.1654119922107145,1.0098265052190503,0.21785327792167664,0.9999118447303772,1.1974620032951466,1.0296713465867755,-0.21513423323631287,0.9999817609786987,0.9886640865439157,1.3529418499240742,0.1399831473827362,0.999975323677063,1.0111447980707884,1.3662945575958543,-0.14006537199020386,0.9999850988388062,1.183759459496028,1.5817730563994643,0.19986018538475037,0.1846880465745926,1.2235782004086149,1.5758639612325889,-0.11754371225833893,0.9784265160560608,1.143095465582578,1.881085379269718,0.31774085760116577,0.4803527295589447,1.1792818432838228,1.9085777632760794,-0.02409413829445839,0.9700170159339905,1.1610825587240725,1.4294537040217234,0.17445723712444305,0.13618668913841248,1.23472221788559,1.4833230034752036,-0.20036213099956512,0.950737476348877,0.009091883897781372,0.9999044423073521,1.3596182037599642,131.813250571148,127.02759438125051,1.0,0.06572499054647149,-0.16064348505891798,-0.2049693257331548,0.1146872619208684,93.45452996715446,0.9888587774460801,42,1.4
1.2718002730102886,0.861662179426069,-0.01742173358798027,0.9986993074417114,1.1640447941350227,0.9836868962225918,0.19123199582099915,0.999915599822998,1.188962969470004,1.0047420192188967,-0.24201326072216034,0.9999821186065674,0.990387066213418,1.3320371938921032,0.14114713668823242,0.9999760389328003,1.0053508674037346,1.3494296106502024,-0.1411949247121811,0.9999856948852539,1.1901542025983158,1.5636439986628963,0.19301337003707886,0.19589722156524658,1.2158855094325642,1.5685153004975283,-0.13083909451961517,0.9803865551948547,1.143946801397698,1.861662179426069,0.3230712115764618,0.5005429983139038,1.1681637653810328,1.8968569995499314,-0.021445469930768013,0.9727877378463745,1.1892387035361152,1.4234852489051801,0.14070995151996613,0.13906532526016235,1.2251223424693263,1.471292578951951,-0.23877990245819092,0.9536997079849243,0.009721845388412476,0.9978689668085763,1.3407334022711528,130.40787027604827,127.87068758150366,1.0,0.044285038879847416,-0.06441156202434037,-0.16184269958349767,0.7344867836061797,112.79557014489698,0.9832130556789093,43,1.4333333333333333
1.236499191757602,0.8074609101895954,-0.026709556579589844,0.9987683296203613,1.1368531464041176,0.9415251513274778,0.18069058656692505,0.9999173879623413,1.162894302240479,0.9625228343113786,-0.2512066662311554,0.999982476234436,0.9741325290904941,1.2856032381568472,0.14103107154369354,0.9999763369560242,0.9858309863730043,1.3056985653083653,-0.14106956124305725,0.9999861717224121,1.1622334307790338,1.519203736133377,0.19777294993400574,0.19393615424633026,1.1884045198118538,1.5303337986335106,-0.1273466944694519,0.9819863438606262,1.115495503140493,1.8074609101895955,0.3351382911205292,0.5062355399131775,1.138390689228878,1.8500030783591603,-0.010525515303015709,0.9750801920890808,1.1472289164817868,1.391737255939313,0.15014109015464783,0.1349237859249115,1.1965541766660879,1.4338055204737323,-0.2749035358428955,0.9565292000770569,0.009940564632415771,0.9799817577317491,1.2956509017326063,131.94835057048,129.0640938708027,1.0,0.05018009794142767,-0.0895030627785645,0.05209335159095845,-0.19890665134996524,124.48395934795428,0.9973068825146264,44,1.4666666666666666
1.244425328981541,0.8177066006735837,-0.018918024376034737,0.9987824559211731,1.1462332279063785,0.9439437573224739,0.18495555222034454,0.9999167323112488,1.1683640889637976,0.9664467917158103,-0.24572019279003143,0.9999819993972778,0.9796611291823841,1.2938835505779385,0.14047876000404358,0.9999759793281555,0.9924097277082637,1.3093228882550034,-0.14053520560264587,0.9999862313270569,1.16443066184118,1.5279123987910412,0.20728829503059387,0.18760959804058075,1.1947861801196134,1.53847936140905,-0.1086365208029747,0.9830347299575806,1.1213998528652378,1.8177066006735838,0.3521394431591034,0.5081459283828735,1.1451281662034072,1.8595339711198808,0.023768292739987373,0.9768934845924377,1.151881855635109,1.3976039988344182,0.15796411037445068,0.1295577436685562,1.2051586680841202,1.4355421294328843,-0.2705956697463989,0.9581931233406067,0.01059374213218689,0.9860354284453239,1.301603219416471,133.26234887591772,129.75874618067078,1.0,0.004198293259226619,-0.010053078898075829,-0.3519069934711185,0.6081644985326297,114.99821878232216,0.9851433053888216,45,1.5
1.2188044393948736,0.7776399921054841,-0.04891134053468704,0.9988532662391663,1.1289276688219605,0.9112142713513658,0.16411413252353668,0.999920129776001,1.1432431402450831,0.9318816677753483,-0.26006966829299927,0.9999825954437256,0.9711326554418713,1.2543551670814799,0.13948099315166473,0.9999762177467346,0.9807332294983482,1.2690832106140961,-0.13947735726833344,0.9999865889549255,1.139296997698259,1.4926260326308722,0.20779195427894592,0.1887950748205185,1.1697930044302858,1.5059220332901944,-0.11088665574789047,0.984433650970459,1.0945916059731866,1.7776399921054842,0.35113707184791565,0.5257917642593384,1.1221719709365319,1.8220567444664804,0.014807375147938728,0.9789758324623108,1.1352018879914436,1.3662941971280445,0.1337711662054062,0.13239288330078125,1.182727369338481,1.3977812940251713,-0.28697094321250916,0.9614900350570679,0.009939849376678467,0.9759329424701098,1.2617191888477879,135.87231659790683,132.83455324954605,1.0,0.08343886852712759,-0.09579874032585232,0.615374135766853,-0.6667961632633698,122.2058438066617,0.9772609686582445,46,1.5333333333333334
1.1945313205415713,0.7513594805948656,0.04237378388643265,0.9988602995872498,1.1026442113535135,0.8781477547362879,0.1937393695116043,0.9999208450317383,1.1309286360676263,0.894392474124951,-0.2246440201997757,0.9999830722808838,0.959745772412634,1.2254923070977728,0.13822248578071594,0.9999761581420898,0.9772641816355085,1.2359400680184438,-0.1382267326116562,0.9999868869781494,1.0873196402264254,1.4933302987325556,0.22184857726097107,0.18235155940055847,1.1548951038918327,1.486402813094457,-0.08831953257322311,0.9850248694419861,1.0772428201787194,1.7513594805948656,0.35680633783340454,0.5213452577590942,1.1055619213931358,1.7953870364467723,0.029889460653066635,0.9800384044647217,1.1246006631636483,1.3360273148258095,0.2018892765045166,0.12903296947479248,1.1664123418060193,1.3534871769293337,-0.2642700970172882,0.9630360007286072,0.00793004035949707,0.9685049770240713,1.2307161875581083,152.29464384416198,135.5838972701202,1.0,0.058948825352172406,-0.10396248362461158,-0.19580402367800734,-0.08065896564584044,98.44893203928366,0.9524997958530225,47,1.5666666666666667
1.1679535614104208,0.7167035813133235,0.023452457040548325,0.9989232420921326,1.079848769066831,0.8458292435113245,0.19030314683914185,0.9999251365661621,1.1089765622222199,0.8612002701287781,-0.2297547608613968,0.9999842047691345,0.9514587061760532,1.1900791243632718,0.13799312710762024,0.9999764561653137,0.9641751943870104,1.2004028946063194,-0.13798369467258453,0.9999874830245972,1.0800521677523176,1.4541583777811538,0.23040571808815002,0.17818404734134674,1.132546028380282,1.4626665244432187,-0.09273059666156769,0.9861300587654114,1.054544727538542,1.7167035813133233,0.3660237789154053,0.5218484401702881,1.0803677409924253,1.7617030563555625,-0.001398202613927424,0.981655478477478,1.107604369324605,1.3014685768185597,0.19955606758594513,0.13711033761501312,1.1464492084510898,1.3132536091893587,-0.2710864245891571,0.9662289023399353,0.007652938365936279,0.9578169502815318,1.1952410094847956,148.48709591973827,137.40213140064017,1.0,0.06179562429721161,-0.08608003101979218,0.030055921808170794,0.11918987369857632,108.61781522424957,0.9418622957814071,48,1.6
1.1301839330720442,0.6612557124855509,-0.04186313599348068,0.9990258812904358,1.0625625140749124,0.7903658624450767,0.17760016024112701,0.9999316334724426,1.0745670728092243,0.7959881119272997,-0.23676732182502747,0.9999856352806091,0.9468184403889102,1.132389162204366,0.1353447139263153,0.9999760389328003,0.9489856143228629,1.1404396930105711,-0.13530363142490387,0.9999879002571106,1.0600611969357676,1.4028518658475362,0.18488340079784393,0.19211053848266602,1.0987649579843926,1.4189745075419486,-0.1304274946451187,0.9874556064605713,1.026910362256483,1.661255712485551,0.30922943353652954,0.5480876564979553,1.0460576960895616,1.7073058671486063,-0.07099618017673492,0.9834471344947815,1.204196188934314,1.0844795238088056,0.2858889698982239,0.2190607339143753,1.1122400948873885,1.2386743146786674,-0.33898183703422546,0.9695834517478943,0.0028883516788482666,0.9479020273558866,1.1364144276074686,149.97034681450103,141.37195094854133,1.0,0.14733814806598716,-0.1645326853429247,0.6558510430183373,-0.6082996797990619,146.23701917771626,0.9170057262521155,49,1.6333333333333333
1.1036600522182265,0.6259320646324777,-0.04990141838788986,0.9990854859352112,1.0336580980433718,0.7555513098949068,0.16385498642921448,0.9999351501464844,1.050783672843593,0.7583867048572152,-0.2627262771129608,0.9999867081642151,0.9306990897647301,1.106357595414188,0.1363292932510376,0.9999765157699585,0.9369955102705232,1.1107362162540093,-0.13629315793514252,0.9999885559082031,1.0214372811574879,1.3748045612673478,0.19419236481189728,0.19184769690036774,1.0767753882527291,1.3858041463522286,-0.14050504565238953,0.9884170293807983,0.9988366172139744,1.6259320646324777,0.31385502219200134,0.5551471710205078,1.02075249840037,1.6654015240070863,-0.07870849967002869,0.9848812818527222,1.0781018927959731,1.136425824956133,0.17532752454280853,0.21595308184623718,1.085783176792539,1.1925451487198455,-0.3531879186630249,0.9723974466323853,0.0014913976192474365,0.9338473000176266,1.1085469058340987,156.18156876114338,141.73161130415397,1.0,0.06358330236528906,-0.010971282208808471,-0.6357055308514568,1.185019273588628,108.45873609785048,0.9431370886619695,50,1.6666666666666667
1.0840479142287742,0.6012646129305401,-0.026607196778059006,0.9991630911827087,1.012535025237013,0.7278360623514025,0.17389975488185883,0.9999392628669739,1.0327181691164473,0.7284155539675051,-0.24989958107471466,0.9999878406524658,0.9215140903428266,1.0814072832647001,0.13636530935764313,0.9999770522117615,0.9334419733777259,1.0825787538583298,-0.1363300234079361,0.9999892711639404,1.0028082626417671,1.3486459602800447,0.19751191139221191,0.20019562542438507,1.0595470421482454,1.3590618691339016,-0.16212190687656403,0.9893931746482849,0.9763700656316763,1.6012646129305401,0.30697908997535706,0.5716415643692017,1.004591390956597,1.6392978824947095,-0.14183373749256134,0.9862698316574097,1.0400685422349043,1.11734089220079,0.1847689300775528,0.21334251761436462,1.0672609981738905,1.1512296957036285,-0.3668558597564697,0.9750360250473022,0.0003097951412200928,0.9274780318602762,1.081993018561515,157.10557762664143,144.38689640792896,1.0,0.07181628374415834,-0.07220958870243285,0.07674005740201248,-0.5091561566353617,81.17281895482316,0.9328705188012439,51,1.7
1.058894352638641,0.5653058786037779,-0.04074876382946968,0.9992448687553406,0.9961703505069958,0.6994172736811944,0.17326109111309052,0.9999444484710693,1.008170307573339,0.6910973521212033,-0.24418306350708008,0.9999889731407166,0.9164280570575222,1.0493188395555626,0.13407784700393677,0.9999768137931824,0.9218806314669161,1.0492972637585072,-0.13402803242206573,0.9999896883964539,0.9801473790391895,1.3104149695931093,0.17572563886642456,0.20594796538352966,1.034487113610029,1.3268645534117847,-0.16190986335277557,0.9902745485305786,0.9571175040246217,1.565305878603778,0.28201860189437866,0.5751594305038452,0.9773523326024622,1.6023408432181085,-0.13671812415122986,0.987494170665741,1.126113421458841,0.9813368810627104,0.13994836807250977,0.2749361991882324,1.0423044171704334,1.1052610674167924,-0.3820204734802246,0.9775024056434631,0.004550904035568237,0.9191543442622192,1.0493080516570348,161.12254185476434,146.20083358392034,1.0,0.10200357042761053,-0.0657329375995792,0.2558053233037514,0.03892404394610958,76.93488848414741,0.938689003434026,52,1.7333333333333334
1.042219985942122,0.5429853795707551,-0.0393427237868309,0.9993195533752441,0.9830672418715755,0.6748479432654856,0.17562851309776306,0.9999486804008484,0.9925665563059218,0.6667937404996395,-0.24159550666809082,0.9999899864196777,0.912423883113819,1.0258922680704945,0.1336040496826172,0.9999770522117615,0.9137117529847777,1.0297389249682485,-0.13356760144233704,0.9999901056289673,0.9733525850369114,1.285022565887854,0.16320815682411194,0.22187532484531403,1.0164287903883684,1.3053864248022085,-0.15443463623523712,0.9909263253211975,0.9456991659156864,1.542985379570755,0.27036502957344055,0.571973443031311,0.9503838019596695,1.5781468128734626,-0.10836418718099594,0.9882537722587585,1.1335987685032716,0.8968663871757646,0.11049653589725494,0.3338249623775482,1.026037653697017,1.0719845545743845,-0.4044574797153473,0.979695200920105,0.004474252462387085,0.9130678180492983,1.0278155965193716,160.64981941436173,145.95126757801924,1.0,0.05953929073676661,-0.03993100226446146,-0.3034202015712033,0.18393508359790095,150.11122693479552,0.9397612172610764,53,1.7666666666666666
1.0249062528321908,0.5207551930680342,-0.06045999005436897,0.9993866682052612,0.9686788911908912,0.659766810959242,0.17203441262245178,0.9999523162841797,0.9712375789431049,0.6471579107444687,-0.2400345802307129,0.9999909400939941,0.9063086696420555,1.0056797686214463,0.1278901994228363,0.9999781847000122,0.9027075770469581,1.0074920534740888,-0.12788042426109314,0.9999907612800598,0.9628912547658798,1.2623943543260647,0.11576584726572037,0.24381498992443085,1.0016945820434582,1.2818907195512192,-0.16204144060611725,0.9915229082107544,0.9320377846110504,1.5207551930680343,0.1811750829219818,0.5929397344589233,0.9387362694596955,1.555203516405794,-0.12786413729190826,0.9892105460166931,1.1015796393810122,0.9297357587796725,0.11650872230529785,0.36141499876976013,1.0118559406447893,1.0492200787667623,-0.40431779623031616,0.9817113280296326,0.007106661796569824,0.9045081233445068,1.0065859110477675,160.76013491180672,147.19156824767126,1.0,0.03686544932714311,-0.05202526867200732,-0.17598940272035601,-0.1021886479103965,126.93523233513402,0.9403245947779424,54,1.8
1.023118112577195,0.5182370942611294,-0.05315776914358139,0.9994462728500366,0.9618180040655445,0.6376579769365761,0.16779989004135132,0.9999555349349976,0.9685381671096309,0.6401979920593712,-0.2495466023683548,0.999991774559021,0.9002091895157348,0.9937584157763566,0.12879601120948792,0.9999787211418152,0.9145573689630496,0.9993901894403531,-0.1288057118654251,0.9999912977218628,0.9643807709500439,1.249144037549803,0.15215681493282318,0.2472561150789261,0.9999064591142924,1.2758551336737265,-0.1253248155117035,0.9915506839752197,0.9374492308426471,1.5182370942611294,0.2379201203584671,0.5915645956993103,0.9386667404295321,1.5539014045280124,-0.09996537864208221,0.9897667169570923,0.976636210627047,0.9300609789444323,0.13807395100593567,0.3392184376716614,1.0124891863146517,1.037385737063116,-0.38095301389694214,0.9834848642349243,0.0014339983463287354,0.9073832792393922,0.9965743026083549,160.17983482202607,150.4226316819799,1.0,0.035259437676404264,-0.06707462007673072,-0.012429784641842424,-0.1218021329366467,101.61484050921538,0.9107481987086535,55,1.8333333333333333
1.0230224265666528,0.5196157104737371,-0.061009861528873444,0.9994995594024658,0.9611172901253956,0.63386319187291,0.16315986216068268,0.9999586343765259,0.9670980598129756,0.6373977053481172,-0.25742024183273315,0.9999924898147583,0.9049257154621108,0.9940780350558619,0.12920820713043213,0.9999788999557495,0.919217801895582,1.003965255581568,-0.1292051374912262,0.9999916553497314,0.968851327989527,1.248060683961455,0.16023336350917816,0.26012474298477173,0.9991782116284532,1.2755273555549105,-0.10734375566244125,0.9915935397148132,0.9439097764205647,1.5196157104737371,0.24078527092933655,0.6027235984802246,0.9394637366349856,1.5563211668043528,-0.08765654265880585,0.9903278946876526,0.9685673338066569,0.9795363715784111,0.13273684680461884,0.3402355909347534,1.0124431681715367,1.039026185002679,-0.38267701864242554,0.9851159453392029,0.0019955039024353027,0.9120717586788464,0.9990216453187148,160.6247762801399,151.58730015251874,1.0,0.03494128342637356,0.01833362148269895,-0.0023535541996038945,0.633509772144621,115.8089886301466,0.9116567654114749,56,1.8666666666666667
1.0125566157774477,0.5095569533020123,-0.06595299392938614,0.9995483160018921,0.9515922300933717,0.6236292026274215,0.16473518311977386,0.9999618530273438,0.9569472566398385,0.6255859335812635,-0.2632000744342804,0.9999932050704956,0.9060083406233156,0.9761480720212357,0.13283118605613708,0.9999791383743286,0.9151316144114764,0.9843787889987422,-0.1328984946012497,0.9999920129776001,0.9677702544729863,1.234554846065382,0.18796870112419128,0.25667843222618103,0.9907479084399529,1.264592279703144,-0.1091022938489914,0.9911907911300659,0.9394414505415454,1.5095569533020123,0.28911805152893066,0.597252607345581,0.9338101389487474,1.5444789850228255,-0.07805265486240387,0.9905200004577637,0.9743833890347525,0.9902174453418965,0.14163661003112793,0.3367709219455719,1.0045985168092524,1.0260228138945708,-0.40785783529281616,0.9865825176239014,0.0011131763458251953,0.910569977517396,0.980263430509989,160.67642199334986,153.3994502127916,1.0,0.04403221776285954,-0.09072117076670459,0.07596780358588925,-0.88433968729675,124.68775719065918,0.879884476117309,57,1.9
0.9978915970869255,0.4884354485047757,-0.08890994638204575,0.9995914697647095,0.9306182697707132,0.6018384641144576,0.1529780477285385,0.9999626278877258,0.9408178632147202,0.607218334349818,-0.27028438448905945,0.9999938011169434,0.8956606323101215,0.9616625229871292,0.13195674121379852,0.999978244304657,0.9077652628571538,0.9707001884323441,-0.13204510509967804,0.9999922513961792,0.9564793550643588,1.2182415774037805,0.20015768706798553,0.25620612502098083,0.9750923113931911,1.2477010546353586,-0.07386942207813263,0.9902521371841431,0.9264382423181368,1.4884354485047757,0.32407090067863464,0.5929970741271973,0.9265240929598186,1.5228710603427218,-0.0151417450979352,0.9905315637588501,1.0090366839998526,0.9385079540722828,0.14567947387695312,0.3269081115722656,0.992181134729565,1.0033895506958628,-0.42540818452835083,0.9879156947135925,0.003103911876678467,0.9017129475836376,0.9661813557097366,160.32060573188917,156.32900065093023,1.0,0.02739330234925372,-0.0028384501328227534,-0.11392643017095373,0.6158083751073755,121.19709002060523,0.902394740012863,58,1.9333333333333333
0.9909436924949943,0.47922414118455336,-0.11801788955926895,0.9996247291564941,0.9254182363124703,0.5999013603896496,0.13135388493537903,0.9999616742134094,0.9312402839855435,0.5947488399832913,-0.2933689057826996,0.9999942779541016,0.9089021349750332,0.9529738610167376,0.1327863484621048,0.999977171421051,0.9059446924983319,0.9597621763564295,-0.13285133242607117,0.9999921917915344,0.9500481516369631,1.2123126469998489,0.22795037925243378,0.23742955923080444,0.9668100047573971,1.2399204413262483,-0.08534379303455353,0.982371985912323,0.9209306218480319,1.4792241411845535,0.36285901069641113,0.5527661442756653,0.9220523714199816,1.511901836899584,-0.012503060512244701,0.9830965995788574,0.9870248090686824,0.9530890860482975,0.12804916501045227,0.29997143149375916,0.988109279953951,0.9909072353771655,-0.43513450026512146,0.9890342950820923,0.002990514039993286,0.9074234137366826,0.9563680186865835,164.75893366441835,158.3978575589184,1.0,0.08317416747393042,-0.030595351740577387,0.4203693156646767,-0.20869642640471026,159.13709183478204,0.8980650798479878,59,1.9666666666666666
1.0235217937316363,0.5076877818639486,-0.1459048092365265,0.9996592402458191,0.9580960584064839,0.6190716971319578,0.09938500076532364,0.999963641166687,0.9556968146603295,0.6122287515172905,-0.31349632143974304,0.9999947547912598,0.9544041881565337,0.9728580248785796,0.13045825064182281,0.9999766945838928,0.9356754734381107,0.9850640077593646,-0.13047626614570618,0.9999921321868896,0.9878117272370371,1.2248310062379912,0.1920633167028427,0.22420677542686462,0.9864378674982008,1.278492769287644,-0.09194962680339813,0.9760741591453552,0.9523567076487984,1.5076877818639485,0.31209903955459595,0.5213360786437988,0.9523412245517803,1.5578465472375504,-0.05130987614393234,0.9782249331474304,1.0730245424055516,0.9666758151267313,0.08680538088083267,0.30620038509368896,1.0212928640526815,1.018065380664666,-0.442588746547699,0.9900891780853271,0.003846079111099243,0.9450398307973222,0.9789610163189721,165.30300922731428,163.22628659305497,1.0,0.059253776950154866,-0.0639522589219777,-0.1974385024775927,-0.23985715696569804,123.69119452461342,0.8626128049524018,60,2.0
1.0086235524829748,0.49146288676720085,-0.1692391335964203,0.9996878504753113,0.9470571245345806,0.608712269895757,0.09124511480331421,0.9999643564224243,0.941727166722486,0.601049106973351,-0.33113035559654236,0.9999951124191284,0.9453484502078758,0.9657109294458278,0.13146468997001648,0.9999730587005615,0.9360728195037953,0.9738345954441461,-0.13146230578422546,0.9999910593032837,0.9741790955275478,1.212361467419525,0.21206101775169373,0.20704063773155212,0.9692836121289378,1.262686446006106,-0.07597381621599197,0.9649306535720825,0.9401456505293324,1.4914628867672008,0.33750784397125244,0.48801371455192566,0.9404697257066036,1.537461241776684,0.00918416865170002,0.967640221118927,1.0723092477428515,0.9525033471969566,0.0927182286977768,0.3135918080806732,1.0103226951868185,0.9997458408475602,-0.4588561952114105,0.9910348653793335,0.004360765218734741,0.9407106348558355,0.969772762444987,166.38074083849193,167.45484187326977,1.0,0.05564514504460674,0.02181090846224575,-0.02193310577849061,0.6473288106351743,131.48634348770722,0.88693763610687,61,2.033333333333333
1.0027447088270018,0.49034484348749774,-0.1434284746646881,0.9997060894966125,0.9426066363323282,0.6021072516789298,0.11057929694652557,0.999963104724884,0.938169992302351,0.5972002160967393,-0.317241907119751,0.9999952912330627,0.9454220842690493,0.9647585911550808,0.1351039707660675,0.9999688267707825,0.9393596432281105,0.9722095682462227,-0.135141983628273,0.9999896883964539,0.9716872595203575,1.2151016340106948,0.21491873264312744,0.19041970372200012,0.9667746296405025,1.2607555993037767,-0.07449334114789963,0.9432257413864136,0.929025982061963,1.4903448434874977,0.33795449137687683,0.44968733191490173,0.9386906279672325,1.5349052542950743,0.008900480344891548,0.9451651573181152,1.0232347912613307,0.9554529213971377,0.10608718544244766,0.2947462201118469,1.0095234291016097,0.9993966000995785,-0.4313600957393646,0.9918068051338196,0.0027970969676971436,0.9423908637485799,0.9684840797006518,165.20018134762321,168.7235748757124,1.0,0.024450250650256744,0.00260512693507463,-0.23268415334948475,-0.14341400679733496,140.42188180075112,0.8855655883114347,62,2.066666666666667
1.0002386844336446,0.48863789514061784,-0.12452396005392075,0.9997171759605408,0.9324240036021455,0.5966642975761494,0.11872707307338715,0.9999589323997498,0.9357091911887377,0.5968814163412104,-0.3032180666923523,0.9999954104423523,0.9394388508600342,0.9616599486737087,0.13636785745620728,0.9999646544456482,0.9401681150911171,0.9677049152336071,-0.13644692301750183,0.9999886155128479,0.9691820329887891,1.2170962594843904,0.21724534034729004,0.17428453266620636,0.9634412833421293,1.2570242855014637,-0.07530118525028229,0.9179990887641907,0.927718928218646,1.4886378951406178,0.3319409489631653,0.4123742878437042,0.9369401574627996,1.5329231261196328,-0.0030210050754249096,0.9169417023658752,0.9978965379478225,0.95516654152835,0.12196037918329239,0.2705579698085785,1.0088422896390434,0.9956943333307747,-0.3913875222206116,0.9924196600914001,0.0001239180564880371,0.9398034829755756,0.9646824319536579,164.67661735740108,169.91432368042598,1.0,-0.010680574565607453,-0.01971199560162963,-0.26834864637850137,-0.1705953447537749,174.22211695155966,0.8786314350083116,63,2.1
0.9994983182861076,0.4918199099169832,-0.1565423160791397,0.9997352957725525,0.9249198870638146,0.6012393541712316,0.09577659517526627,0.999958336353302,0.933710066258497,0.6011913881477055,-0.3376428782939911,0.9999955892562866,0.9409172097541655,0.9644570719520168,0.13856105506420135,0.9999621510505676,0.9425494145503599,0.97040475425416,-0.13865172863006592,0.9999878406524658,0.9698045774232558,1.2214474137290268,0.23047737777233124,0.1616392284631729,0.9640957313952898,1.2585627590433346,-0.06840868294239044,0.9022209644317627,0.9295350868323641,1.491819909916983,0.3527962565422058,0.3845124840736389,0.9389477258743325,1.5356706892393275,0.008007163181900978,0.9027971029281616,1.0018768472084427,0.964579680849667,0.10545317828655243,0.2545297145843506,1.0120124812091664,0.9975710989068297,-0.41822487115859985,0.993047297000885,2.73287296295166e-05,0.9417333121522626,0.9674309131030884,165.1151042622145,170.5383215694566,1.0,0.0023721419049644284,0.008460379402784678,0.10261003808741272,0.22142330937489646,167.17614168438644,0.8768934050282915,64,2.1333333333333333
1.002713443797642,0.4969609513412234,-0.14481419324874878,0.9997498989105225,0.9256391110305231,0.6055370559948021,0.101329505443573,0.9999579787254333,0.9345485960270961,0.6062372690912738,-0.3307257294654846,0.999995768070221,0.9486347051340006,0.9680742492410248,0.13933098316192627,0.9999603033065796,0.9491072151854636,0.9740940042115619,-0.13943101465702057,0.9999873638153076,0.9724185505158681,1.226472714039813,0.23290546238422394,0.15218041837215424,0.9670812750866845,1.2608607007209687,-0.07078006863594055,0.894956111907959,0.9323841579121667,1.4969609513412234,0.3470046818256378,0.36319753527641296,0.9438764460192681,1.539350758807281,-0.01688087359070778,0.8947689533233643,0.9992918120503389,0.9686047868426675,0.1046447902917862,0.2363341748714447,1.0149998593907463,1.0021617098756805,-0.40992704033851624,0.9935832619667053,0.00039774179458618164,0.9488709601597322,0.9710841267262934,166.32202031766943,171.65039250744206,1.0,0.03325133190657068,0.005591249162830117,0.23970777546423871,-0.0224767278704984,179.14125810632152,0.8720559314324958,65,2.1666666666666665
0.9987892311898192,0.49446194880316735,-0.14977483451366425,0.9997659921646118,0.9240520745261374,0.5994104656022116,0.09408829361200333,0.999959409236908,0.9321544809677647,0.6060895654746941,-0.3349011242389679,0.9999960064888,0.9520801445906051,0.9659188189540115,0.13917610049247742,0.9999595284461975,0.947266182676806,0.9720705277675424,-0.13927428424358368,0.9999871253967285,0.9700787782539995,1.2234083924819965,0.24296680092811584,0.14296871423721313,0.9658373435283037,1.256973126147679,-0.07301997393369675,0.8876405954360962,0.9318872248155715,1.4944619488031674,0.37330520153045654,0.3452400267124176,0.9430700935286572,1.53627622640806,-0.0028166293632239103,0.8896532654762268,0.9974424780090967,0.9674542851387514,0.10496070235967636,0.22763226926326752,1.0129542261528472,1.0028609079912574,-0.43603602051734924,0.9941359758377075,0.0038014650344848633,0.9496731636337056,0.968994673360777,167.98130251769945,171.61036116330664,1.0,0.020077540794781103,-0.0012252960219700574,-0.0980593057311903,-0.05091134528495267,137.58229654397013,0.8729316120281914,66,2.2
0.9924721731931335,0.4902420396600803,-0.16658660769462585,0.9997833967208862,0.9205204884307494,0.5987116207428405,0.09343747794628143,0.99996018409729,0.9246986104067899,0.602293269876205,-0.3435378968715668,0.9999961853027344,0.9526958604034831,0.9616201439721092,0.1397828459739685,0.9999600052833557,0.9438270893239693,0.9671373355025906,-0.1398739069700241,0.9999873042106628,0.9570042752948698,1.220841700565217,0.23428130149841309,0.13409312069416046,0.9610074235716444,1.249766727772065,-0.07730700075626373,0.8847880363464355,0.9268295401014202,1.4902420396600802,0.36162152886390686,0.3301650285720825,0.9400282853316944,1.5282087286254784,-0.006631225347518921,0.8856824040412903,1.021531346902752,0.9602536827016522,0.10067300498485565,0.2191457748413086,1.0076509333024213,0.9986994663198021,-0.45046085119247437,0.9946192502975464,0.002049744129180908,0.9482614748637263,0.9643787397373499,172.65690427103573,172.21261908170789,1.0,0.028456192162183695,0.005168338044173519,0.06379873852673174,0.04800329041001452,116.81883197130618,0.8736688839739516,67,2.2333333333333334
0.9887713252460384,0.4879142384877447,-0.1624007374048233,0.9997974038124084,0.9161424156554434,0.595154484522794,0.10202554613351822,0.9999598264694214,0.9207954466834529,0.5989957134503116,-0.3310648798942566,0.9999963641166687,0.9468930079502212,0.9568178478747948,0.14123713970184326,0.9999594688415527,0.941364490838771,0.9596479703053058,-0.14133013784885406,0.9999873042106628,0.9498507059553762,1.216878217384108,0.23840565979480743,0.12431757152080536,0.9559179677636557,1.2432759808981269,-0.09441911429166794,0.8769922256469727,0.9235138756084169,1.4879142384877446,0.363828182220459,0.30824607610702515,0.9370233919521819,1.5230709112067253,-0.017275163903832436,0.8726308345794678,1.0036363190948507,0.9574347572646322,0.10444102436304092,0.20320746302604675,1.0041775550966365,0.9919845896179744,-0.41388529539108276,0.9950052499771118,0.0022056400775909424,0.9441287493944961,0.9582329090900503,173.7983348622413,173.1993004871953,1.0,-0.0077114422952440954,-0.023182272403244435,-0.28481172380532876,-0.2237048117982377,112.24860767594033,0.8629901624890094,68,2.2666666666666666
0.986610505922034,0.48556469710628375,-0.15603938698768616,0.9998060464859009,0.9151669725225273,0.5950238254484413,0.09789805114269257,0.9999598860740662,0.9191226495737793,0.5993369088482149,-0.3414001166820526,0.9999964833259583,0.9472987103773335,0.9562240721650848,0.1413697898387909,0.9999569058418274,0.9416027054442447,0.958903142464866,-0.14146065711975098,0.9999866485595703,0.947649222593244,1.213166735841253,0.23993006348609924,0.11446035653352737,0.9515920444197776,1.2406607440365622,-0.09513922035694122,0.8633226156234741,0.9223642396261577,1.4855646971062837,0.3680064082145691,0.28619667887687683,0.9344112439259711,1.519622437903174,-0.017403297126293182,0.85700923204422,1.0106776636893862,0.9541656811426346,0.09792517870664597,0.19354507327079773,1.002429585636194,0.9905069867368811,-0.4329674243927002,0.9953742027282715,0.002479761838912964,0.9444507079107891,0.9575636073149754,174.61863006439884,174.44520218439263,1.0,0.011707475288973956,0.004277914003306128,0.1481774152805581,0.20941660057415867,110.10602159070201,0.8690731170348597,69,2.3
0.986117859053837,0.48628715851056065,-0.14953020215034485,0.9998112320899963,0.9153108418335822,0.5952497914391314,0.09875800460577011,0.9999591112136841,0.9189119591530022,0.5996577430783984,-0.33667799830436707,0.999996542930603,0.9487565388838753,0.9580901591238729,0.14109072089195251,0.9999536275863647,0.9433154331001344,0.9590973030687217,-0.14118845760822296,0.9999857544898987,0.9446964607113085,1.2128289765644475,0.23590870201587677,0.10571716725826263,0.946255829173299,1.240547870140296,-0.09490203857421875,0.8474572896957397,0.920641067483463,1.4862871585105606,0.36095085740089417,0.26742056012153625,0.9316926044142417,1.5195437375755312,-0.017736826092004776,0.8427449464797974,1.019982931713226,0.9549889350434643,0.10167746245861053,0.18474362790584564,1.0018805581581587,0.9903317186457018,-0.4302311837673187,0.9957026839256287,0.002535402774810791,0.9460359859920049,0.9585937310962973,175.88589668641265,176.41338210375005,1.0,0.015750021031596836,0.011410027968142996,0.031969615083056194,0.05634681959482088,95.22021365800819,0.8702340457220078,70,2.3333333333333335
0.9785425539872848,0.483468093397105,-0.15045277774333954,0.999819815158844,0.9092463743093034,0.591965164640987,0.09479489177465439,0.999959409236908,0.9115936184839202,0.5960111563038045,-0.3348555862903595,0.9999966621398926,0.9426419214805049,0.9521565331578079,0.1397828906774521,0.9999505877494812,0.9371778803002192,0.9527558974098307,-0.13989345729351044,0.999984860420227,0.9376288697451318,1.2064495503533368,0.22394876182079315,0.09792853891849518,0.9386062707803188,1.231896858724238,-0.09576071053743362,0.8303064107894897,0.9127111627141724,1.483468093397105,0.33183395862579346,0.25075551867485046,0.9229457317599568,1.5100475571096381,-0.028547903522849083,0.8269387483596802,1.0103860307074113,0.955951717891131,0.10358230024576187,0.1785254180431366,0.993551869599741,0.9838649085452468,-0.4416045546531677,0.9960479736328125,0.0023437440395355225,0.9399099008903621,0.9524562152838193,175.98946448651847,176.48432960465956,1.0,0.0042344526633100715,0.004829959788283361,-0.08800449782414159,-0.05015508952100512,90.96279048522287,0.8638378910128445,71,2.3666666666666667
0.9769717900884961,0.4827374191617369,-0.14817148447036743,0.9998204112052917,0.9072061684106428,0.5911841022174043,0.09735158085823059,0.9999588131904602,0.9085909547424875,0.595260142003768,-0.3336096405982971,0.9999966621398926,0.9393389221920997,0.949080188393391,0.13833832740783691,0.9999473094940186,0.934160712866064,0.9501417346580115,-0.13846954703330994,0.9999837875366211,0.9362130356443303,1.2044139576437392,0.20737282931804657,0.09106336534023285,0.9372871129824181,1.2288453396424206,-0.10237010568380356,0.8145922422409058,0.9100412724257426,1.4827374191617368,0.29238659143447876,0.23666436970233917,0.92021126568156,1.5075322022909678,-0.061735861003398895,0.8138751983642578,1.0073659087832347,0.9581468309017915,0.10481590032577515,0.1706666648387909,0.9906620905651493,0.9848479806175108,-0.43781694769859314,0.9963087439537048,0.002365320920944214,0.9367498175290818,0.9496109615257013,175.32946682159047,175.85102934884455,1.0,-0.012150648436938175,-0.009426189109001625,-0.1324228764680975,-0.1152005465675635,96.45487358684096,0.858319506621206,72,2.4
0.9747617370369542,0.4826389437348826,-0.13527682423591614,0.9998291730880737,0.9037882062320594,0.5905872103268243,0.10141819715499878,0.9999586939811707,0.9077218349781662,0.5959490629386753,-0.3202964663505554,0.9999967813491821,0.9368150561637791,0.9477873889612229,0.13752982020378113,0.9999434947967529,0.932354940067831,0.9481969475016314,-0.13767513632774353,0.9999827742576599,0.9350359945851704,1.2027939421030076,0.1983242630958557,0.0850326269865036,0.9357551067631829,1.2260427741995967,-0.10356639325618744,0.8001248836517334,0.9088247608446856,1.4826389437348826,0.27504244446754456,0.22459574043750763,0.9179797737776273,1.5056421227625314,-0.06542028486728668,0.8038252592086792,0.9892129070532893,0.9692705960353749,0.10625433921813965,0.16333672404289246,0.9859299768747637,0.9857727383968158,-0.43539077043533325,0.9966050386428833,0.0031158626079559326,0.9345849981158051,0.9479921682314272,175.04881309958134,175.66122841593355,1.0,-0.006344485691957324,-0.0021148285639857748,0.04340439993597802,0.05471861704957728,89.96401091947,0.8545882151193761,73,2.433333333333333
0.974114168425364,0.48335549439889397,-0.09447019547224045,0.999842643737793,0.8945626735681457,0.5913370031777393,0.12215545028448105,0.9999598860740662,0.9085588065464436,0.5978312310467215,-0.29230213165283203,0.9999969601631165,0.9310321949235091,0.9479416532402919,0.13698725402355194,0.9999433159828186,0.932658086614985,0.9483854047819155,-0.13714821636676788,0.9999828338623047,0.9356877889766432,1.2029226847604544,0.1965838372707367,0.08139670640230179,0.9364086286686791,1.226525566538794,-0.11278469860553741,0.7995348572731018,0.9087593362671496,1.483355494398894,0.2625936269760132,0.21669037640094757,0.9183116936895175,1.5067151543563158,-0.0931721031665802,0.8040112853050232,0.9709343253362785,0.9773755985809598,0.11748842895030975,0.156809464097023,0.9838359601204472,0.9878886308833319,-0.3991543650627136,0.9968586564064026,0.003771841526031494,0.931845140769247,0.9481635290111037,173.46898817161156,175.5319529483173,1.0,-0.024531221653927567,-0.002620034674349782,-0.13720139991654307,-0.003803291421822702,111.10509678819169,0.8529662505212945,74,2.466666666666667
0.973469790359204,0.48364238967109424,-0.08379889279603958,0.9998539686203003,0.8926955567107955,0.5919568779179768,0.1341591477394104,0.9999604225158691,0.90931879407942,0.5981463036466391,-0.2842217683792114,0.9999971389770508,0.9303643405054773,0.9482770843457867,0.13679717481136322,0.9999428391456604,0.934053191423283,0.9483441263621888,-0.13696588575839996,0.9999828338623047,0.936179131750447,1.2034713391016503,0.1942807137966156,0.07795732468366623,0.9368797362220058,1.2272332678706885,-0.10940907150506973,0.7979538440704346,0.9094328579082449,1.4836423896710942,0.2573682367801666,0.21053802967071533,0.9186118647634195,1.5075905576709954,-0.0812072828412056,0.8040522336959839,0.9640229234415593,0.9801941148711051,0.12881599366664886,0.14909392595291138,0.9815085695969794,0.9888298041905983,-0.3867157995700836,0.9971108436584473,0.0035933256149291992,0.9322087659643802,0.9483106053539877,173.24153503882545,175.69124647663728,1.0,-0.00016452461654364438,-0.0018327812178603182,0.1821156540118508,0.005889548967655742,97.07586412368579,0.85187784434705,75,2.5
0.9703922463485315,0.48041402485758383,-0.07501093298196793,0.9998636245727539,0.8861947212420028,0.5912573341352184,0.14813783764839172,0.9999586343765259,0.908471273713501,0.597297609642711,-0.2801381051540375,0.9999972581863403,0.9238612151121687,0.945993346267019,0.1379890739917755,0.9999419450759888,0.9346675990673602,0.9455790446617028,-0.13816484808921814,0.999983012676239,0.9332431682387903,1.2017842028806875,0.20688481628894806,0.07273300737142563,0.9354969197721136,1.2252892077865536,-0.09980806708335876,0.7900246977806091,0.9081356914631781,1.4804140248575839,0.2661975920200348,0.19892141222953796,0.9173022938543297,1.505130979833034,-0.06843144446611404,0.7967304587364197,0.950052825504661,0.9785867467048441,0.1380915343761444,0.13800030946731567,0.9770722191145046,0.9868673463556809,-0.36822980642318726,0.9973393678665161,0.0035125017166137695,0.9292644070897644,0.9457861954643609,172.75038878963386,176.1101274109119,1.0,-0.010639756212342295,-0.007280726287027809,-0.07882795108041193,-0.04101832518194398,93.86549162508979,0.8537159750620533,76,2.533333333333333
0.970412307971241,0.47954150139828117,-0.08440908789634705,0.9998733401298523,0.8854344690651474,0.5916861582393528,0.1450318694114685,0.9999580979347229,0.9090194044744074,0.5976676359426634,-0.2857511639595032,0.9999973773956299,0.9221377793928105,0.9458803326053551,0.1391167938709259,0.9999426007270813,0.9357672584957099,0.9455079772093066,-0.139298215508461,0.9999834895133972,0.9325208650028126,1.2028855440939394,0.21586497128009796,0.0704076737165451,0.9359771762857708,1.2259701429630394,-0.09452436864376068,0.7929113507270813,0.9083694489524697,1.4795415013982811,0.2926585078239441,0.19400888681411743,0.9178274400904933,1.5058714682703416,-0.05631537362933159,0.7994438409805298,0.949088167676629,0.9783087855825139,0.13589869439601898,0.1298210620880127,0.9763174892232545,0.9873558629028657,-0.37588074803352356,0.9975565671920776,0.0034766197204589844,0.9289525189442601,0.9456941549073309,172.69735300019667,176.24706021448233,1.0,-0.005897783964789956,-0.004261974540958392,0.036661363509132246,0.023340623691244157,94.35122636681895,0.8551815250454922,77,2.566666666666667
0.9708671153299488,0.4799319731729408,-0.09296561777591705,0.9998820424079895,0.8858386082198673,0.592049697991951,0.13821116089820862,0.9999575018882751,0.9096612312843387,0.5983756122717064,-0.290467232465744,0.9999974966049194,0.9203738767217906,0.9458140758042819,0.1392568051815033,0.9999432563781738,0.93680640965523,0.9453847534022389,-0.13943156599998474,0.9999839663505554,0.931477990327987,1.2047736547667252,0.21561351418495178,0.06624429672956467,0.936104618842237,1.227470806846056,-0.09536127001047134,0.7879155278205872,0.9087261599116694,1.4799319731729408,0.29492539167404175,0.1841987520456314,0.9185645674733243,1.5071010540813892,-0.0558733232319355,0.7930015325546265,0.9490587683381448,0.9778968208496603,0.13350948691368103,0.11958667635917664,0.9757115339181625,0.9877814946964578,-0.37866300344467163,0.9977226853370667,0.003675490617752075,0.9285901431885103,0.9455994146032605,172.81785266738478,176.55331821982364,1.0,-0.005667459541221265,-0.0035421622132632913,0.0018885386053440001,0.005860539687214551,94.07908431628657,0.8530621162653554,78,2.6
0.9697764276884594,0.4780377867786389,-0.0976562649011612,0.9998908042907715,0.8852629288644452,0.5910790549714036,0.1354481279850006,0.9999578595161438,0.9090972058673829,0.5977306538680276,-0.2947506904602051,0.999997615814209,0.9193476407303577,0.9447093238218227,0.13977941870689392,0.999943196773529,0.9360042259567126,0.9442020327810835,-0.13994838297367096,0.9999842047691345,0.929494486168532,1.2046389619089595,0.2156212329864502,0.06306581944227219,0.9347760098982718,1.2266674426481146,-0.09561081975698471,0.7868043184280396,0.9078665307128043,1.478037786778639,0.2984076738357544,0.17849725484848022,0.9176718691748559,1.5058730131976104,-0.05061861127614975,0.7922931909561157,0.9511912963161152,0.9762822739077553,0.133277028799057,0.11303635686635971,0.9743561868579037,0.9866482862892019,-0.3820894956588745,0.9979141354560852,0.003869384527206421,0.9276759333435352,0.9444556783014532,173.24136744330985,176.7435717762468,1.0,0.0014323246187680032,-2.718698077581624e-05,0.04952678866211601,0.024513623436327445,93.76100202447397,0.8550491113220257,79,2.6333333333333333
0.9701802370101918,0.47804304786920104,-0.09785942733287811,0.9998975396156311,0.8866799378046144,0.591540039202288,0.13392986357212067,0.999958336353302,0.9103929539239817,0.5981954663484984,-0.2960889935493469,0.9999977350234985,0.9208791968247705,0.945445225692059,0.13976559042930603,0.9999433755874634,0.9364685456804271,0.9446234870020913,-0.13993379473686218,0.9999845027923584,0.9299028391922803,1.2054713810582978,0.2170519083738327,0.06014363467693329,0.9348096876162524,1.2277471235044335,-0.09568765759468079,0.7869671583175659,0.9090258161708823,1.478043047869201,0.31162458658218384,0.17428910732269287,0.9183656854063557,1.5070220001205845,-0.04740972816944122,0.7938560247421265,0.954684812866291,0.9769527624324121,0.1322181671857834,0.10927610099315643,0.9752892901629655,0.988084891533364,-0.40402084589004517,0.9980953931808472,0.0038687586784362793,0.9286738712525988,0.9450343563470752,173.63258028430917,176.9659537123318,1.0,0.0024117656894882813,-0.0009049045718318493,0.007517909871065919,-0.0067442283796963435,92.50222306336678,0.8559944883054794,80,2.6666666666666665
0.9706206117641266,0.47677359228957883,-0.10402931272983551,0.9999046325683594,0.8878262149601497,0.5913410607830134,0.12931862473487854,0.9999585747718811,0.9109816876983986,0.5983642898065471,-0.30244728922843933,0.9999978542327881,0.9210803042356334,0.9458673326244965,0.13982009887695312,0.9999436736106873,0.9367213886636374,0.9448317743539557,-0.1399838924407959,0.999984860420227,0.930431103061898,1.2043827862415903,0.22550201416015625,0.057772863656282425,0.9349769935778974,1.2279839747485861,-0.09276086091995239,0.7873345017433167,0.9100446074803313,1.4767735922895788,0.32439905405044556,0.16982153058052063,0.9191059218648461,1.507465303155965,-0.0406566821038723,0.7950406670570374,0.9544230237583431,0.9776125534897391,0.1313255876302719,0.10335192829370499,0.9758738003757553,0.9887062086821738,-0.4004797339439392,0.9982494711875916,0.004080832004547119,0.9289008464496354,0.9453495534892261,173.64825167998615,177.10277487691428,1.0,-0.0012516887084298464,-0.0006393656828553691,-0.0276010062444397,0.002002937245251332,91.57070234580834,0.8600815480369657,81,2.7
0.9705339697812208,0.47597108036538305,-0.13472196459770203,0.9999086856842041,0.8884795551380853,0.5884828319732758,0.10952150821685791,0.9999580979347229,0.9107519834211626,0.5976126383892371,-0.322176069021225,0.9999979734420776,0.9209813500899438,0.9455561781599396,0.13979682326316833,0.9999435544013977,0.9364891392912897,0.9442097527332984,-0.13996006548404694,0.9999850988388062,0.9308757513836936,1.2037498686573689,0.2307540476322174,0.054072871804237366,0.9345683702944788,1.2276103569119658,-0.08954623341560364,0.7773715853691101,0.9102625606502964,1.475971080365383,0.33815568685531616,0.16095760464668274,0.9190273512151443,1.5068849179070736,-0.02876494824886322,0.7854663133621216,0.954552142011781,0.9773017882648584,0.12618787586688995,0.09690085053443909,0.9757953671293842,0.988528871764106,-0.4082915186882019,0.9983774423599243,0.005305886268615723,0.9287352446906167,0.9448829654466191,173.47510758216137,177.2032206269935,1.0,0.00011931249447757122,-0.0022373121838600344,0.010847897206683608,-0.012646806901204921,90.2387663268811,0.8610696011807015,82,2.7333333333333334
0.9707943112106684,0.47615284473063046,-0.13173964619636536,0.9999113082885742,0.888757489382876,0.5886363215533528,0.11192946135997772,0.9999572038650513,0.9108829412489134,0.5972425047698003,-0.32073476910591125,0.9999980330467224,0.9212541442264938,0.9459220534323303,0.13978613913059235,0.999942421913147,0.936548383345817,0.944455093298408,-0.1399507224559784,0.9999850392341614,0.9312590175090925,1.2040289701031985,0.22990095615386963,0.05111335590481758,0.9347636160444199,1.227872714433795,-0.08753582090139389,0.76960289478302,0.9105437964794906,1.4761528447306305,0.33818256855010986,0.15493042767047882,0.9192505639205053,1.505824524177888,-0.028640490025281906,0.7816728353500366,0.9664871931559231,0.9745060281033657,0.12583695352077484,0.09305138885974884,0.9778068935739401,0.9887950404847657,-0.41856902837753296,0.998501718044281,0.005000442266464233,0.9289012637861553,0.9451885733653691,173.42698141906334,177.16632518828774,1.0,-0.00034199485624592456,0.0006973243743179518,-0.0035274971664656287,0.022442966410960444,89.7181812700252,0.8624888118698631,83,2.7666666666666666
0.9708275899991916,0.4762403447354674,-0.14261682331562042,0.9999141097068787,0.8946094252370754,0.5887662128218712,0.10341845452785492,0.999958336353302,0.9094257910617785,0.5970667241718212,-0.3253921866416931,0.9999980926513672,0.9242521081233691,0.9461140522544579,0.13928920030593872,0.9999425411224365,0.9351996997804162,0.9449463720662831,-0.13943897187709808,0.9999849200248718,0.9313595482425705,1.2043277211093024,0.22690808773040771,0.048458218574523926,0.9344053448606273,1.2277720144955666,-0.08618197590112686,0.7609882354736328,0.9101856757177099,1.4762403447354675,0.33346858620643616,0.14914359152317047,0.9192937248115728,1.5059189341466126,-0.02876955270767212,0.775098979473114,0.9835615825626425,0.9727856240943862,0.11204701662063599,0.09254483878612518,0.9787204597020046,0.9890455348081956,-0.4211121201515198,0.9985827803611755,0.004822582006454468,0.9297259039518927,0.9455302121603705,173.97066298707043,177.0511213632771,1.0,0.006250786148592022,0.0023497827916837493,0.05315217011595343,0.013322077770151054,88.65373476201273,0.8631797221754681,84,2.8
0.9713329380667686,0.47684039532544736,-0.14229491353034973,0.999913215637207,0.8951339591115807,0.5888263181391921,0.09825105965137482,0.9999585151672363,0.9099257473305898,0.5975385464494871,-0.33145827054977417,0.9999980926513672,0.9252107115527352,0.946685229748434,0.13923802971839905,0.9999420642852783,0.9345253910155492,0.9460028762780391,-0.1393875777721405,0.9999847412109375,0.932298807144664,1.205486680601987,0.23247162997722626,0.04579098895192146,0.935042702037581,1.228754790159362,-0.08108512312173843,0.7509832978248596,0.9106804031554637,1.4768403953254474,0.3451414704322815,0.14254994690418243,0.9200239419387445,1.5072672595939012,-0.020650828257203102,0.767190158367157,0.9868772253642821,0.9726175372852663,0.10992701351642609,0.0902407094836235,0.9835249225907782,0.9902011823283597,-0.41794830560684204,0.998643696308136,0.005056262016296387,0.9298680512841422,0.9463440530132365,173.8761054949016,176.8084939593089,1.0,-0.006852070917900471,-0.001722074925788874,-0.10276704882900592,-0.0319394865630742,90.61445396879901,0.863394779408181,85,2.8333333333333335
0.9706527173016324,0.47663935516083966,-0.13783276081085205,0.9999110102653503,0.8945026221283877,0.5876856735595184,0.09921823441982269,0.9999582171440125,0.9094381323599607,0.5974108092862473,-0.32732900977134705,0.9999980926513672,0.9250409179754379,0.9458845721393071,0.1385876089334488,0.9999390840530396,0.933921358428528,0.9461445415610712,-0.13873663544654846,0.9999840259552002,0.932207942271182,1.2051650544010657,0.23045393824577332,0.04293821379542351,0.934513374102261,1.2280212127655663,-0.08254905045032501,0.7375407218933105,0.9104340657687728,1.4766393551608397,0.33853358030319214,0.1353270262479782,0.9195222148080513,1.5067388242667286,-0.024560559540987015,0.7571518421173096,0.9920376664068684,0.9634805593285232,0.10938777774572372,0.0884864330291748,0.9861020059638956,0.9897835713494395,-0.4089807868003845,0.9987137317657471,0.005645692348480225,0.9294811382019829,0.9460145568501891,173.83098398219587,176.8009086109489,1.0,-0.0009851576203371716,-0.0005056771991577585,0.045346468589945156,0.009401114837047895,96.54979570951176,0.8631695146799528,86,2.8666666666666667
0.9707969098601364,0.4767272782360927,-0.14378416538238525,0.999910295009613,0.8944117993694315,0.5878962589300364,0.09610473364591599,0.9999580979347229,0.9093288340902398,0.597658644151964,-0.3310590386390686,0.9999980926513672,0.9255919442938791,0.9462047907079093,0.13832971453666687,0.9999377131462097,0.933943035207125,0.9471626344400078,-0.13847146928310394,0.9999837279319763,0.9317621587534063,1.205803037605329,0.23317909240722656,0.04036954417824745,0.9348169674735228,1.2286218209352944,-0.08356893062591553,0.726504921913147,0.9105672728337143,1.4767272782360927,0.35106468200683594,0.12805049121379852,0.919883910489986,1.5068468726160786,-0.021976077929139137,0.7451938390731812,0.9895355623621642,0.9635678908719577,0.10642795264720917,0.08593852072954178,0.9881135865449967,0.9898126653419199,-0.4075654447078705,0.9987651705741882,0.005665481090545654,0.929767489750502,0.9466837125739586,174.16519187248986,176.74983230650253,1.0,-0.00011097863097089884,0.002721288513598915,0.006562004517750029,0.02421553229930923,101.51642480916398,0.8651107879358579,87,2.9
0.9709857289526719,0.4766211564916241,-0.14837290346622467,0.9999104142189026,0.8944097407323762,0.5880325447821529,0.09419213235378265,0.9999582171440125,0.9091469036646651,0.597839565731263,-0.3343049883842468,0.9999980926513672,0.9260309205939838,0.9463226406499341,0.13828347623348236,0.9999363422393799,0.9338639226984636,0.947693713921304,-0.1384221315383911,0.9999834299087524,0.931951898513253,1.206017498519088,0.23498685657978058,0.03807273879647255,0.934994002645893,1.2288573172111608,-0.08426673710346222,0.716751217842102,0.9106560396075507,1.476621156491624,0.3553238809108734,0.12160538882017136,0.9200623809061791,1.506722414264134,-0.020654190331697464,0.7350977063179016,0.9883990888480031,0.9632785652206673,0.10405087471008301,0.08411261439323425,0.989123917873461,0.9897279420613424,-0.4088086485862732,0.998814582824707,0.00569036602973938,0.9299474216462238,0.947008177285619,174.19413057381976,176.69377076779236,1.0,0.0001020537312187587,0.0011751759812480725,0.0016157221481059097,-0.01172893371354514,104.97197682428147,0.8665954950058469,88,2.933333333333333
0.9698839277665997,0.4755424722447346,-0.14725324511528015,0.999910831451416,0.8932406080543194,0.5873561673679103,0.09282030165195465,0.9999591708183289,0.9084832378093766,0.5975174414295062,-0.3361890912055969,0.9999980926513672,0.9255843292115634,0.9459588263786979,0.13820773363113403,0.9999333620071411,0.9332605704497822,0.9481259023066402,-0.1383444368839264,0.9999825358390808,0.9313653543407328,1.2053181242411692,0.2406890094280243,0.036060258746147156,0.9340217368762445,1.2281809395467127,-0.07863946259021759,0.7068957090377808,0.9094415231377551,1.4755424722447346,0.36831849813461304,0.11647763848304749,0.9187939937049258,1.5058718846230215,-0.005186417140066624,0.7275010347366333,0.9983873209836972,0.9740708564426157,0.10418602079153061,0.09000405669212341,0.988639791283936,0.9882553067591044,-0.4149775505065918,0.9988833069801331,0.005899310111999512,0.9294224498306728,0.9470423643426691,174.08474962647193,176.70548923294027,1.0,7.582919219103393e-05,0.0043422797822693085,-0.0001962038272354157,0.023753530456408063,110.91865464282724,0.8701021000081449,89,2.966666666666667
0.9692376888694327,0.4755395393183827,-0.16655288636684418,0.9999131560325623,0.8937084982094665,0.5862980066615382,0.07987525314092636,0.9999606013298035,0.9079061799662498,0.5973498194580034,-0.3531547784805298,0.999998152256012,0.9248695612179098,0.9454932670581156,0.13850504159927368,0.9999324679374695,0.9303443916482631,0.9477823944064679,-0.13863718509674072,0.9999821186065674,0.9316777054067531,1.204299251580506,0.24096707999706268,0.03452882915735245,0.9336616089309744,1.227797790089168,-0.07946963608264923,0.7036680579185486,0.9097535386919193,1.4755395393183828,0.36551210284233093,0.11247299611568451,0.9187917777034253,1.505632164944474,-0.012169184163212776,0.722220778465271,1.0123004277137484,0.9562747622195531,0.09237805753946304,0.09740941971540451,0.988564629784445,0.9872995884252309,-0.4379812180995941,0.9989323019981384,0.006416380405426025,0.9276069764330864,0.9466378307322918,173.87199385690667,176.25769910378463,1.0,-0.013792769354231278,-0.0030275951129347532,-0.1058037730851727,-0.05622463414872559,117.64883709958306,0.8691834589549591,90,3.0
