nose_x,nose_y,nose_z,nose_visibility,left_shoulder_x,left_shoulder_y,left_shoulder_z,left_shoulder_visibility,right_shoulder_x,right_shoulder_y,right_shoulder_z,right_shoulder_visibility,left_hip_x,left_hip_y,left_hip_z,left_hip_visibility,right_hip_x,right_hip_y,right_hip_z,right_hip_visibility,left_knee_x,left_knee_y,left_knee_z,left_knee_visibility,right_knee_x,right_knee_y,right_knee_z,right_knee_visibility,left_ankle_x,left_ankle_y,left_ankle_z,left_ankle_visibility,right_ankle_x,right_ankle_y,right_ankle_z,right_ankle_visibility,left_wrist_x,left_wrist_y,left_wrist_z,left_wrist_visibility,right_wrist_x,right_wrist_y,right_wrist_z,right_wrist_visibility,trunk_lateral_inclination,center_mass_x,center_mass_y,left_knee_angle,right_knee_angle,person_height,center_mass_velocity_x,center_mass_velocity_y,center_mass_acceleration_x,center_mass_acceleration_y,body_orientation,torso_leg_ratio,frame,timestamp
0.9561853165681218,0.5944934649234872,-0.6079220175743103,0.9999903440475464,1.0309756879504717,0.7257283424538429,-0.30881044268608093,0.9999203681945801,0.8631461938173492,0.7270531417691642,-0.33014875650405884,0.9999898672103882,1.007230395636004,1.0642102109546288,0.008844390511512756,0.9999533891677856,0.8983564617823758,1.0677065409391204,-0.009018138982355595,0.9999865293502808,1.013021105618571,1.342284427413646,-0.008574793115258217,0.49602216482162476,0.8956227324229673,1.3511030357921434,-0.015838321298360825,0.9893734455108643,1.0185074908662188,1.5944934649234872,0.17138639092445374,0.7605941295623779,0.902579097310748,1.595553235132346,0.15636859834194183,0.9923818707466125,1.0965885393405213,1.0743993769940656,-0.3451509177684784,0.24167127907276154,0.8160494887182885,1.097471392667078,-0.4006008207798004,0.950990617275238,0.0006842315196990967,0.9527934287091899,1.0659583759468747,179.94679675523926,177.81728774505504,1.0,-0.6059031196716563,-0.19150660525071944,-3.7015146568922757,-1.1000721442663524,95.85219778717055,0.8910527736622086,0,0.0
0.9645306656876347,0.6170244061935394,-0.5947890877723694,0.9999909996986389,1.053519006798385,0.7539558200963653,-0.310769259929657,0.9999279975891113,0.8748928199164889,0.7515366146068547,-0.30982622504234314,0.9999903440475464,1.0215089124503751,1.0871814835348057,-0.007122823502868414,0.9999572038650513,0.9074467378118929,1.090641845881021,0.0069266087375581264,0.999987006187439,1.0246676494399758,1.3593840132062993,-0.08979515731334686,0.5455846786499023,0.9074612106306102,1.3764533146742273,0.00520492997020483,0.9880709052085876,1.0370874545176905,1.6170244061935395,0.09565059095621109,0.7836256623268127,0.9205519637695135,1.6197233210570356,0.19176320731639862,0.9920989871025085,1.1184418268005294,1.100676057852287,-0.3765396773815155,0.31594014167785645,0.8250424659083894,1.1215107732413532,-0.3879620432853699,0.9552969336509705,0.0012204945087432861,0.9644778251311341,1.0889116647079133,177.90498903412708,176.92269342606025,1.0,-0.08299953662793619,-0.017860378846921505,4.077988528072633,1.3524733546255023,97.22474955775283,0.8909275694166299,1,0.03333333333333333
0.9818416137255236,0.6295258439731062,-0.5865985751152039,0.9999916553497314,1.0670200956720486,0.762632801068295,-0.3067649304866791,0.9999350309371948,0.8835310987942836,0.7599665455601602,-0.30794450640678406,0.9999909400939941,1.0327985583156365,1.1011291620463624,-0.0028810440562665462,0.9999604225158691,0.9180125983037918,1.1036478666220846,0.0027151533868163824,0.9999873042106628,1.0392096433408902,1.37992596158357,-0.02138534188270569,0.5898489356040955,0.9190594390016736,1.3898528106241452,0.014395385980606079,0.987237274646759,1.0483257690322925,1.6295258439731062,0.18953874707221985,0.8040001392364502,0.9249265756321039,1.6368745855919413,0.21173091232776642,0.9918376803398132,1.130355123241483,1.1143530483251713,-0.3485223352909088,0.38380786776542664,0.8350346511621652,1.131053375608558,-0.3872324824333191,0.9595239758491516,0.0013296306133270264,0.9754055783097141,1.1023885143342236,179.22563409707837,178.84896296486681,1.0,-0.0024528254407086675,0.0060630286583138685,0.6319691218883916,0.18708909127989345,97.02993088218665,0.8907095697974733,2,0.06666666666666667
0.9817273988468888,0.634680239540668,-0.5824269652366638,0.9999922513961792,1.0734450870239274,0.7691045131039385,-0.3070535659790039,0.999941349029541,0.890196271816347,0.7687734962081417,-0.3046562671661377,0.9999915361404419,1.038507818359599,1.103815151419958,-0.0038158209063112736,0.9999634623527527,0.921026792667318,1.1062138977002225,0.0036231414414942265,0.999987781047821,1.0448118552460892,1.3820968692024367,-0.049613215029239655,0.6297287940979004,0.9217875729253767,1.3960718967976893,0.0010670770425349474,0.986481249332428,1.0536243166657426,1.6346802395406679,0.1611354500055313,0.8220306038856506,0.9303387526363174,1.6459530736849857,0.18391354382038116,0.9915720224380493,1.1349941680120672,1.1206057747342029,-0.3716204762458801,0.444894939661026,0.8403774781894343,1.1379552405812898,-0.3852219879627228,0.9633331298828125,0.00016424059867858887,0.9797673055134585,1.1050145245600902,179.29952414582257,178.19042880623277,1.0,-0.004957568541082852,-0.02497907222824737,-0.02096371987371088,-0.26136700800014323,97.12869565954803,0.8784089983374611,3,0.1
0.9888168548910353,0.6402200582454466,-0.567569375038147,0.999992847442627,1.0805118225483132,0.7753085005547301,-0.2876330316066742,0.9999470114707947,0.8974461248972431,0.7744935215367353,-0.3038269877433777,0.9999921321868896,1.0471951174077825,1.1129519187176518,0.0003472181560937315,0.9999662041664124,0.9282047938547618,1.1144546251132805,-0.0005406063282862306,0.9999882578849792,1.0535388294107089,1.3927352135287363,-0.026275724172592163,0.6650479435920715,0.9300405076324373,1.4031729930408352,-0.006956750992685556,0.98553466796875,1.0604921880556675,1.6402200582454467,0.1862391084432602,0.8374913334846497,0.9372772189081422,1.6579531549455648,0.16933955252170563,0.9911114573478699,1.1411916221003682,1.1286932611305267,-0.34673768281936646,0.4998794198036194,0.8470499997338844,1.146503289430711,-0.37828922271728516,0.966773509979248,0.00040158629417419434,0.9876999556312721,1.1137032719154663,179.68951811773675,178.73731268087752,1.0,0.008224733025279606,0.007424744479491644,0.0948553642044165,0.23380282819681414,96.35891366176457,0.884187864667855,4,0.13333333333333333
0.9864080719405799,0.6390044770852791,-0.5735501646995544,0.9999933242797852,1.0781987659697079,0.7745370816514375,-0.2995237708091736,0.9999521374702454,0.8947141072988541,0.7748287793234353,-0.3037516176700592,0.9999926090240479,1.0462446173899875,1.1119993469256841,-0.00031585636315867305,0.9999685287475586,0.9282955678135801,1.112962293411509,0.00012985971989110112,0.9999884963035583,1.0516062754065594,1.3888401820396352,-0.025233924388885498,0.697037935256958,0.9291250736338876,1.4001548636284702,0.00026319423341192305,0.9846543073654175,1.0583826459991832,1.6390044770852792,0.1798400729894638,0.8519066572189331,0.9356622774952378,1.65331426762087,0.1773325353860855,0.9907629489898682,1.1382067313509727,1.1270393779177315,-0.37606847286224365,0.5492846965789795,0.8479249191566937,1.1451031381621706,-0.38672956824302673,0.9698346853256226,0.00014397501945495605,0.9872700926017838,1.1124808201685965,179.55789516482747,178.68629798732798,1.0,0.009527652185094469,0.004934841328849479,0.010365350990948815,-0.019505847568344063,95.87694078499088,0.8870438837936181,5,0.16666666666666666
0.9829691969367632,0.6394393642149111,-0.571431040763855,0.9999938011169434,1.0781075151900195,0.7759689118814334,-0.30125123262405396,0.9999567866325378,0.894467155147205,0.7751988217149487,-0.3028465807437897,0.9999930262565613,1.045907795559839,1.112768335273855,-0.0018569926032796502,0.9999707341194153,0.927427062576981,1.113816657797809,0.001660386100411415,0.9999887347221375,1.050484862752893,1.3854755343006215,-0.07209892570972443,0.7264623045921326,0.9288770951430882,1.4000066539075071,-0.0016914550215005875,0.9841598868370056,1.0580514786618787,1.639439364214911,0.13998036086559296,0.8648573160171509,0.9357228308186051,1.6506696143517177,0.1776547133922577,0.9904574155807495,1.137248556111128,1.1273296450236954,-0.3852011561393738,0.5937994718551636,0.8483824453496522,1.145635377823903,-0.39158064126968384,0.9724002480506897,0.000380098819732666,0.9866674290684101,1.113292496535832,179.25498191534152,178.72590814147102,1.0,-0.004632009277878671,0.006271421755279084,-0.10914263324646324,0.010302437148781811,95.96810849920833,0.8909592580314435,6,0.2
0.979701446067601,0.6371297986457846,-0.5663116574287415,0.9999942183494568,1.0743093310164362,0.7721273269975567,-0.29730889201164246,0.9999608993530273,0.8919687613499422,0.7727746834888726,-0.2921268343925476,0.9999933838844299,1.0424953866376043,1.108844674984574,-0.004239761270582676,0.9999722838401794,0.924765470117839,1.1094523311149653,0.004041414707899094,0.9999884963035583,1.0447650442412402,1.3765159372286766,-0.10735561698675156,0.7526620030403137,0.9251520674203559,1.3936320861685507,-0.00598714966326952,0.9827792644500732,1.053215085607813,1.6371297986457847,0.08932887762784958,0.8755654096603394,0.9320717801774173,1.6455990886721998,0.15772303938865662,0.9894145131111145,1.1321656294245601,1.1235552226606773,-0.3627612888813019,0.6337733864784241,0.8460464515877558,1.1417029794639657,-0.37996265292167664,0.9747124314308167,0.00032073259353637695,0.9836304283777217,1.1091485030497696,178.62872966188172,178.50483933919506,1.0,0.005113121328070878,0.0004726433337446171,0.07183698634584394,-0.042648025799816344,95.69315993956232,0.8867934191211232,7,0.23333333333333334
0.9812443373707309,0.6368657795073808,-0.5736480951309204,0.9999945759773254,1.074385116048114,0.7720835925572542,-0.3018095791339874,0.9999645948410034,0.8922048901058981,0.7730976332314722,-0.2929850220680237,0.9999936819076538,1.042549411327135,1.108596538837397,-0.003225290449336171,0.9999737739562988,0.9253640802975867,1.108285951290442,0.0030367656145244837,0.9999884366989136,1.044410169949849,1.3793752306551592,-0.05236170440912247,0.7758142948150635,0.9263626036234092,1.3939878815523508,-0.005721528548747301,0.9817648530006409,1.0524738983765245,1.6368657795073807,0.13890574872493744,0.8858283162117004,0.9322298453702247,1.647349853415188,0.1651993691921234,0.9888615012168884,1.130902185853086,1.123463241205994,-0.37442299723625183,0.6697949171066284,0.8458735160483063,1.1418274817292244,-0.38009968400001526,0.9767946600914001,0.000502467155456543,0.9839567458123608,1.1084412450639194,178.60000075723272,178.87365435013606,1.0,0.003440158039149313,-0.004419910220732827,-0.012907982145507736,-0.037762746539824706,95.25250879416772,0.883553831256535,8,0.26666666666666666
0.9802395417850136,0.6362249056633695,-0.5699363946914673,0.9999949336051941,1.0731491912102296,0.7715211473419918,-0.3056533634662628,0.9999679923057556,0.8907468976603818,0.7729596619409597,-0.2931734621524811,0.9999939799308777,1.0414389158716753,1.1072552087810483,-0.0048270090483129025,0.9999749064445496,0.9245487769502229,1.1072958166178921,0.004635612014681101,0.9999880790710449,1.0422571998265397,1.3766365453831924,-0.07414393126964569,0.7964418530464172,0.9253226686100761,1.3925581813888397,-0.006435934454202652,0.9792401194572449,1.0508565700566581,1.6362249056633695,0.1054849624633789,0.8942877054214478,0.9307817194811833,1.646249755136546,0.16116012632846832,0.9873126745223999,1.1289691081888287,1.1220178394552351,-0.40190768241882324,0.7023361921310425,0.8437025384643618,1.1406274018919769,-0.38810208439826965,0.9786425232887268,0.0007136762142181396,0.982993846410949,1.1072755126994702,178.27670301444567,178.9227115765142,1.0,0.001865197691792228,0.0014910724210883298,-0.011829035355482947,0.044474220234145816,95.41551740175935,0.882097349620437,9,0.3
0.9813526096530235,0.6367981132600599,-0.5731990933418274,0.9999952912330627,1.0739684265367226,0.7723545278795052,-0.3036423623561859,0.9999710321426392,0.8915999160599336,0.7737717829251214,-0.2930786609649658,0.9999942779541016,1.042361420895414,1.1068252759625863,-0.0052645206451416016,0.9999760389328003,0.9253854922302841,1.1062021574232106,0.0050641270354390144,0.9999879002571106,1.0432478289584692,1.3739528155117684,-0.0958210751414299,0.8155772686004639,0.926706328007411,1.3931712676110184,-0.009648453444242477,0.9782615303993225,1.0511634661861413,1.63679811326006,0.08270035684108734,0.9025667905807495,0.9319947806158078,1.6487691304935614,0.15175530314445496,0.9868099689483643,1.1292940913322504,1.1229073366948232,-0.38162267208099365,0.7317262887954712,0.8440382265130266,1.1416351565812253,-0.3838439881801605,0.9804015159606934,0.0007026493549346924,0.9838734565628491,1.1065137166928984,178.46517142434166,179.07840370258393,1.0,0.0016831736993411896,-0.012238398628994335,-0.0014782405936242305,-0.11073266374752565,95.09313226370818,0.8758129310827036,10,0.3333333333333333
0.9814632632333626,0.637128332706818,-0.5775865316390991,0.9999955892562866,1.074303395520692,0.7726483488495086,-0.3070114850997925,0.9999737739562988,0.8923024955512602,0.7735718877640474,-0.29478928446769714,0.9999945163726807,1.042787990819446,1.1069953503182721,-0.0040476699359714985,0.9999770522117615,0.9258734357259004,1.1054734351486886,0.0038527168799191713,0.999987781047821,1.0436409415383032,1.3755857196833319,-0.07304110378026962,0.8323538303375244,0.9271605579618073,1.3930142698787542,-0.009728660807013512,0.9771798849105835,1.050593578181778,1.637128332706818,0.11184225231409073,0.9096039533615112,0.9322605851629144,1.6502416232735655,0.15044784545898438,0.9862461686134338,1.1292010498521015,1.1232220974001659,-0.38416311144828796,0.7581294775009155,0.8437918102781704,1.1420490634858447,-0.38327735662460327,0.9819980263710022,0.000457763671875,0.9843307132726732,1.1062343927334803,178.65920519881652,179.12062177403408,1.0,0.0015151204221806915,-0.003750093503692834,-0.0011577749009921878,0.058358368702601186,94.63896966765455,0.8727726579663655,11,0.36666666666666664
0.9827315348972838,0.6370540285085401,-0.5629961490631104,0.9999958872795105,1.0747405134838193,0.7737175686214786,-0.294930100440979,0.9999762177467346,0.8929231737539829,0.7743352404228391,-0.2864920198917389,0.9999947547912598,1.043279491407511,1.1074321875277815,-0.004259899724274874,0.9999780058860779,0.9267810800071746,1.1058957371924076,0.004070639610290527,0.999987781047821,1.0433585274136448,1.3759064329173778,-0.058893781155347824,0.8477986454963684,0.9267742230020762,1.3930758924903404,-0.007142309099435806,0.9770196676254272,1.0509029171985358,1.63705402850854,0.12441201508045197,0.9167165160179138,0.932144160231608,1.6511907670546648,0.15517090260982513,0.9861406683921814,1.1291296764323653,1.1235800736394228,-0.38157305121421814,0.7819206714630127,0.8448303053640908,1.142976736587668,-0.37499743700027466,0.9834948182106018,0.00030604004859924316,0.9850302857073427,1.1066639623600945,178.36208849834867,178.80679687134722,1.0,0.0026565126027717654,6.21233459445513e-05,0.009351248455109594,0.031260448696498994,94.6300477853066,0.8737038940528099,12,0.4
0.9843399811838524,0.637344936825055,-0.5586000680923462,0.9999961853027344,1.07553786433714,0.7751587123398657,-0.29274383187294006,0.9999784231185913,0.8937346321250509,0.7751560638737789,-0.28146517276763916,0.9999949932098389,1.0441370484892005,1.1083267171841509,-0.005169071722775698,0.9999788403511047,0.9274067484119737,1.1068453819479347,0.004977113101631403,0.9999876618385315,1.0441074338229586,1.375637964316735,-0.07380826026201248,0.8617332577705383,0.9273398746432847,1.3922333732007737,-0.011607390828430653,0.976578414440155,1.0518640686819487,1.637344936825055,0.09980573505163193,0.9228602647781372,0.9329735833565576,1.6520322462784538,0.14305457472801208,0.9858628511428833,1.129696708498386,1.1243139419468273,-0.37519019842147827,0.8033154606819153,0.8446345387666214,1.1439124706035313,-0.36663883924484253,0.9847724437713623,1.3113021850585938e-06,0.9857718984505871,1.1075860495660428,178.29598121759358,178.74431641818697,1.0,0.0002522958621009751,0.0009542279140848761,-0.01815527370535069,0.006730980689877869,94.65711820496523,0.8754483222178397,13,0.43333333333333335
0.9855095176946483,0.6376144689196254,-0.5571886301040649,0.9999964237213135,1.0764393390014673,0.7759383379630856,-0.291080504655838,0.9999803900718689,0.8946273390689259,0.7754852807605482,-0.2824316620826721,0.9999951720237732,1.044836159771026,1.1092153352816039,-0.0039006625302135944,0.9999796748161316,0.9286597529567373,1.1076023504525754,0.0037125148810446262,0.9999877214431763,1.0451069581202161,1.3772335443022727,-0.06360894441604614,0.8741609454154968,0.9279366201764044,1.3925294348650465,-0.011960076168179512,0.9763380885124207,1.052582582654932,1.6376144689196255,0.11352385580539703,0.9283852577209473,0.9334775663805295,1.6526228169292334,0.14202243089675903,0.9857646226882935,1.1303660355266232,1.1251072713211538,-0.3729265630245209,0.8225253820419312,0.8464234862155449,1.144707747386579,-0.36927953362464905,0.985909640789032,0.00022417306900024414,0.9867479563638817,1.1084088428670895,178.4133606043581,178.63415971849952,1.0,0.0026152180514910765,0.0008617683512029444,0.017915076240640742,-0.0007056852396148534,94.6214679304889,0.8771257447862271,14,0.4666666666666667
0.9856081402116931,0.6370096623232008,-0.5566390752792358,0.9999966621398926,1.0759943176687126,0.7756376186899476,-0.29139578342437744,0.9999821782112122,0.8941782594236128,0.775254297329261,-0.2825954556465149,0.9999953508377075,1.044493694312443,1.10859547730162,-0.00389389437623322,0.9999804496765137,0.9286087896966686,1.107113726817998,0.003705932293087244,0.999987781047821,1.0448779187390023,1.376937166603131,-0.05205177143216133,0.8851967453956604,0.9281643608786084,1.3899847827380043,-0.012078911997377872,0.9759584665298462,1.0520646373612559,1.6370096623232007,0.1199720948934555,0.9336528182029724,0.9328281542706226,1.6514087466384877,0.1381419450044632,0.9857765436172485,1.1298671337243087,1.1246265822617152,-0.37370210886001587,0.8398211598396301,0.8457561081569485,1.1442359954350623,-0.37082570791244507,0.9869710803031921,0.00018975138664245605,0.9865512420045558,1.107854602059809,178.4991574998626,178.88793455872184,1.0,0.001742370994145874,-0.0004787724817857585,-0.006371418415447658,-0.009795554833056514,94.67201086232009,0.8778067181199338,15,0.5
0.9862163677187402,0.6364857257202958,-0.5630701780319214,0.9999968409538269,1.0759454074311763,0.7753797258333347,-0.29904571175575256,0.9999837875366211,0.8942509893754955,0.7749561011554095,-0.28342753648757935,0.9999955296516418,1.0444364711354075,1.1078759219088414,-0.005154221318662167,0.9999811053276062,0.9288522413615747,1.1063928141986858,0.004971628077328205,0.9999878406524658,1.0448095353232136,1.3769766668755297,-0.043785303831100464,0.8948419094085693,0.9278588481128568,1.3883492860708317,-0.01040484569966793,0.9753780364990234,1.0518124039689263,1.6364857257202958,0.13402974605560303,0.9379985332489014,0.9323546989324454,1.650790492196139,0.13887253403663635,0.9856631755828857,1.1296686969713003,1.1244959976857742,-0.3880745768547058,0.8553552627563477,0.8453340161407141,1.1440615831584933,-0.37191033363342285,0.9879708290100098,0.0002097487449645996,0.9866443562484911,1.1071343680537635,178.53367601470475,178.81670392623144,1.0,0.0024726823521689784,-0.0037688522667078603,0.005798792401440061,-0.02611082212064925,94.67831206846525,0.8772033517181597,16,0.5333333333333333
0.986730744333492,0.6363835971172273,-0.5600067377090454,0.999997079372406,1.0763103932421119,0.7752677026782937,-0.2952210605144501,0.9999852776527405,0.8949294110219068,0.7750864745753102,-0.2817792594432831,0.9999957084655762,1.044693642950302,1.1077073344897184,-0.00502032320946455,0.9999815821647644,0.9291987364470902,1.1063430979629083,0.004834515042603016,0.999987781047821,1.0448600044503507,1.3768618238336443,-0.0446440763771534,0.9037794470787048,0.9274219065473301,1.3874342055013533,-0.00884823128581047,0.9749624729156494,1.051799758775825,1.6363835971172274,0.12123624235391617,0.942165195941925,0.9323225889123672,1.6497693178715045,0.13994750380516052,0.9854103326797485,1.1296896834382613,1.124414988641494,-0.39070940017700195,0.8694718480110168,0.8454995813576651,1.144171078847707,-0.3686167597770691,0.988909900188446,8.973479270935059e-05,0.9869461896986961,1.1070252162263132,178.50365841151958,178.56760939403185,1.0,0.002492408045304274,-0.00047744751574066685,0.0001449319415884912,0.02406260861510785,94.75603662138506,0.8779356055775928,17,0.5666666666666667
0.9849082539379722,0.633302154240641,-0.5555248260498047,0.9999972581863403,1.0749326582054635,0.7736831558655899,-0.29187655448913574,0.9999865889549255,0.8935444020954465,0.7739670353776582,-0.28041040897369385,0.9999958872795105,1.0430372392735472,1.1054904916581711,-0.004469607956707478,0.9999821782112122,0.9276277235554161,1.1041846218756135,0.004283329006284475,0.9999879002571106,1.0428483867162168,1.374658365483519,-0.03469429910182953,0.9118459224700928,0.9259797687493228,1.3849802629855956,-0.0058897207491099834,0.9749462008476257,1.049721322342723,1.633302154240641,0.1376592218875885,0.9460007548332214,0.9303442810952584,1.6466804117370182,0.14263726770877838,0.9854925274848938,1.127528215557174,1.1221994979789653,-0.38093799352645874,0.8820883631706238,0.844397566348877,1.1419600588854768,-0.36749935150146484,0.989773690700531,0.00014084577560424805,0.9853324814144816,1.1048375567668922,178.43763909596979,178.70827847201602,1.0,0.0030493013358933955,0.0003209531398005821,0.004611949471414291,0.0065451329801046836,94.84248240804976,0.8810844578509734,18,0.6
0.9837372108841823,0.6314474115685083,-0.555073618888855,0.9999973773956299,1.0747041184939454,0.7723861645556999,-0.29101133346557617,0.999987781047821,0.8928130181503426,0.7732821570724376,-0.27973076701164246,0.9999960064888,1.0424973420188515,1.1042787707186645,-0.0045143249444663525,0.9999826550483704,0.9265843469417409,1.1028691798131895,0.004331875592470169,0.9999879598617554,1.041603929192654,1.3739304633016223,-0.035070426762104034,0.9190292358398438,0.92508842639237,1.383416405368012,-0.006497248075902462,0.9748645424842834,1.048450307901064,1.6314474115685083,0.14687159657478333,0.9493088126182556,0.9294390444922227,1.6440742168569458,0.14851221442222595,0.9854331016540527,1.1264493511358378,1.1213762397062847,-0.3830028772354126,0.8934351801872253,0.8441025814543287,1.1406245706765017,-0.36854857206344604,0.9905663132667542,0.0004450976848602295,0.9845408444802961,1.103573975265927,178.28725349360786,178.73826271590494,1.0,0.0033181319591975666,0.0008558202022069226,0.0020775333791564414,0.0040789445813549825,94.84588774939442,0.8837908224836352,19,0.6333333333333333
0.9838847810879897,0.6310969474799867,-0.5567966103553772,0.9999974966049194,1.0758685325377357,0.771979833679497,-0.28999704122543335,0.999988853931427,0.8928040600863121,0.7732515495794965,-0.2805177569389343,0.9999961853027344,1.0429764161866768,1.104019619080213,-0.003967980854213238,0.9999833106994629,0.9267734432996022,1.1026510385299988,0.003795564640313387,0.9999882578849792,1.0415355020338877,1.3750783389109977,-0.025438297539949417,0.9258444905281067,0.9249298361056116,1.3829658204534836,-0.008038120344281197,0.975615382194519,1.04821418471543,1.6310969474799866,0.1737489402294159,0.952691376209259,0.9293194541583994,1.6436521655786938,0.14961597323417664,0.9858672022819519,1.1266578774741947,1.1214482986578878,-0.3878391683101654,0.9036420583724976,0.8442578365451312,1.1405825158166778,-0.37172606587409973,0.9913033246994019,0.0006318986415863037,0.9848749297431395,1.1033353288051058,178.20110633117193,178.65848078939666,1.0,0.0045832763634032075,0.0002518651348814902,0.010087501192625746,-0.004810813778431986,94.98253715120592,0.884251709477322,20,0.6666666666666666
0.9837359647035167,0.6296017881199599,-0.531840443611145,0.9999974966049194,1.07700518187616,0.7711713710030158,-0.27478793263435364,0.9999897480010986,0.8927126825705998,0.7727629506759495,-0.26540833711624146,0.9999961853027344,1.04293783929593,1.1038635307460143,-0.003849488217383623,0.9999836683273315,0.9268541426848211,1.1032770615279788,0.0036753483582288027,0.9999882578849792,1.0407916064199565,1.374367124937117,-0.027349237352609634,0.9318342804908752,0.9245718978426705,1.382680751514646,-0.005000502336770296,0.9759528040885925,1.0471774581077153,1.6296017881199598,0.16239257156848907,0.9558038711547852,0.9285299059755868,1.641954550672786,0.15593519806861877,0.9861565828323364,1.1261738072349738,1.1204714905737116,-0.3843839466571808,0.9128042459487915,0.8438679694096506,1.1394812899063302,-0.36357244849205017,0.9918755292892456,0.0007916390895843506,0.9848959909903756,1.1035702961369964,178.112198119324,178.65740807884742,1.0,0.007788610935696535,0.010336556309817033,0.02446732061609158,0.07686986431794078,95.55718898713036,0.8905558183939414,21,0.7
0.9855375390983934,0.6286907880337883,-0.5317100286483765,0.9999975562095642,1.0780303182273139,0.7697226113639909,-0.26931363344192505,0.9999905824661255,0.8935456625222195,0.7722710167243967,-0.26748231053352356,0.9999963045120239,1.04437445714349,1.1035992827482635,-0.0032854173332452774,0.999984085559845,0.927752905639001,1.103759284137497,0.0031186577398329973,0.9999884366989136,1.0406655626650652,1.3754172117063292,-0.01694445125758648,0.9372733235359192,0.9252896507185242,1.3826039806932455,-0.0007060159114189446,0.9764760136604309,1.0466147161157986,1.6286907880337884,0.19259965419769287,0.9584030508995056,0.9280672796260806,1.6399114842613902,0.1822882741689682,0.9863296747207642,1.1268647542149317,1.1197856508334953,-0.37513843178749084,0.920972466468811,0.8435924743059147,1.1386612638253446,-0.36375877261161804,0.9924724698066711,0.0012683272361755371,0.9860636813912456,1.1036792834428801,177.872685002349,178.87539172753898,1.0,0.01354122103785407,0.005976795804936064,0.04414270278908088,-0.03337900574386948,95.83476604302659,0.8951489834327941,22,0.7333333333333333
0.9912792647669096,0.6276496901672418,-0.5284900069236755,0.9999975562095642,1.0801466181689363,0.7689773499403253,-0.26712021231651306,0.9999912977218628,0.894683969389822,0.7716245193784974,-0.26927873492240906,0.9999963641166687,1.0454082489026226,1.1036289821909369,-0.0028001165483146906,0.9999841451644897,0.9295019847188467,1.1037674502518784,0.002633925061672926,0.9999883770942688,1.0406341526026939,1.3746102593822733,-0.02014538086950779,0.9414029717445374,0.9278834522588874,1.3817679929940188,-0.0020504561252892017,0.9755580425262451,1.045910659377845,1.6276496901672417,0.17579595744609833,0.959956705570221,0.9275392568023033,1.638856986249236,0.17137393355369568,0.9857353568077087,1.1281415390120597,1.1201750178844605,-0.3749092221260071,0.9280728697776794,0.844199136698913,1.1370706345684856,-0.36480143666267395,0.9930124878883362,0.0013183951377868652,0.9874551168107347,1.1036982162214077,177.79609075702604,179.74313359347926,1.0,0.016305304457875626,0.006159253925696813,0.021796811805890683,0.001466496078200103,95.99478714636227,0.8989840875086265,23,0.7666666666666667
0.9947371039493427,0.6270308856547424,-0.51138836145401,0.9999974370002747,1.0823511022697891,0.7678551226023848,-0.25800415873527527,0.9999918937683105,0.8969458651339086,0.769912109265218,-0.26459673047065735,0.9999964237213135,1.0472201619135526,1.1029231215585835,-0.002271727193146944,0.999984085559845,0.9314659282881829,1.1030824184327053,0.002096651354804635,0.9999881982803345,1.0406545475071833,1.3735864495286032,-0.022304337471723557,0.9452153444290161,0.9279441159776918,1.3810496037550053,-0.002824146766215563,0.9744266271591187,1.0452296685405178,1.6270308856547424,0.15881893038749695,0.9617689847946167,0.926926864317572,1.6375477083374692,0.1678648144006729,0.9851021766662598,1.1312673214421964,1.120139860742003,-0.38731324672698975,0.9346367716789246,0.845465647963954,1.1356025404263654,-0.3813294470310211,0.993550181388855,0.0010251998901367188,0.9893430451008677,1.1030027699956444,177.57624241861043,179.50133733676373,1.0,0.020377715560758045,0.0007859845439790067,0.032011893255139416,-0.04208113695434164,96.06428166373183,0.8993079633176668,24,0.8
0.9996139705728591,0.6260220279946318,-0.4954748749732971,0.9999971985816956,1.0846512763945604,0.7672026865401618,-0.2373877465724945,0.9999923706054688,0.8998436165574062,0.7673069461517329,-0.25718769431114197,0.9999963641166687,1.0484270062626269,1.1028284168802345,0.001938720466569066,0.9999839663505554,0.9339672795697884,1.1024245229121998,-0.002126420382410288,0.9999879598617554,1.0406326891463533,1.3728142076992467,-0.010490188375115395,0.9480466246604919,0.9296667050246441,1.3800729470744753,-0.003481996012851596,0.9730212092399597,1.0443966702407699,1.6260220279946318,0.17560242116451263,0.9629077911376953,0.9262367131730257,1.636263727465734,0.1677342802286148,0.9843094944953918,1.1327687899420364,1.119602802546157,-0.37626615166664124,0.9402927160263062,0.8485633623001786,1.1347423736035933,-0.37998440861701965,0.9939035177230835,5.200505256652832e-05,0.9911971429162076,1.1026264698962172,177.49471715158805,179.8796551137839,1.0,0.020046381263839945,0.003910851210205407,-0.002375617524614024,0.023585836233627738,95.95794043474832,0.9018593161316381,25,0.8333333333333334
1.0055836414802302,0.625218124525925,-0.4795238971710205,0.9999966025352478,1.0866591071464937,0.7668769512809887,-0.23596946895122528,0.9999927878379822,0.9034687256654429,0.7657847087115258,-0.24982640147209167,0.9999961256980896,1.0499937023905654,1.1030633495315374,0.0018680710345506668,0.9999838471412659,0.9367979800350552,1.1026979747138888,-0.002057246631011367,0.9999875426292419,1.0416242421592972,1.3720229313009942,-0.012733539566397667,0.950332522392273,0.9300142393458274,1.3800968906173026,-0.0036897200625389814,0.9703207015991211,1.0440778314055004,1.625218124525925,0.1509815752506256,0.963938295841217,0.9258895291209642,1.6352074648738815,0.16581732034683228,0.9831595420837402,1.136232073088819,1.119513816190667,-0.3768537938594818,0.9454479217529297,0.8538938486420187,1.1342758426986759,-0.3676697611808777,0.9940841794013977,0.0005450546741485596,0.9933958412128103,1.102880662122713,177.66244255195426,179.5254171859527,1.0,0.02058607219179309,0.005782515452070035,0.004284215486476302,0.014631839892948483,96.03929371352082,0.90598575630829,26,0.8666666666666667
1.0136317057210835,0.6252014591113028,-0.49239271879196167,0.9999966025352478,1.0887118817742651,0.7677471091920178,-0.24074530601501465,0.9999932646751404,0.9054513505247895,0.7657643938119453,-0.254738450050354,0.9999960660934448,1.0528803927544175,1.1059808549719545,0.0024043014273047447,0.9999839067459106,0.9403636837490138,1.1079160329591795,-0.0025907650124281645,0.9999873042106628,1.0440262547348527,1.3740346579842844,-0.014164556749165058,0.9518260955810547,0.9333939614253167,1.3849813968146245,0.01045271847397089,0.9665126800537109,1.044587506516236,1.6252014591113029,0.18159863352775574,0.9636680483818054,0.9259116593995967,1.6351275772836478,0.2083088904619217,0.9811816811561584,1.1413610970818073,1.1195153956953456,-0.4190191626548767,0.9501994848251343,0.8581787576771247,1.1335039304644994,-0.4246796667575836,0.9943061470985413,0.0009894371032714844,0.9966220382517156,1.106948443965567,177.9801079849865,179.72769666692056,1.0,0.024780065892278654,0.031226151487755534,0.03206045672027883,0.19448631779328485,97.03252649015683,0.9210946149971994,27,0.9
1.0228242959845018,0.6255927066814501,-0.4673271179199219,0.9999966025352478,1.0928865759959925,0.7697235717051057,-0.20631682872772217,0.999993622303009,0.909564685066865,0.7659554335828919,-0.24618177115917206,0.9999960064888,1.0553287285347397,1.1102215644905669,0.007133929990231991,0.9999837279319763,0.9432445401572236,1.1137590027169662,-0.007317735813558102,0.9999869465827942,1.0463641678498847,1.3753559585296926,-0.01504430454224348,0.9539161324501038,0.9382595228072413,1.38951240185174,0.008252511732280254,0.9643512964248657,1.045139821639471,1.6255927066814502,0.18328414857387543,0.9641119837760925,0.9263928147794644,1.6355432674906751,0.20719614624977112,0.9799443483352661,1.1452426688716368,1.1199057033590012,-0.37289291620254517,0.9544948935508728,0.8643653067738137,1.1336669342235888,-0.41006678342819214,0.9946494698524475,0.0018799304962158203,0.9992866343459816,1.1119902836037665,178.34381991643772,178.2742850364031,1.0,0.018559985881892546,0.03667983403397437,-0.04803916230066139,0.042013930815969595,98.10212000367649,0.9387203740129912,28,0.9333333333333333
1.0300306736388045,0.6261598213870134,-0.46276068687438965,0.9999966025352478,1.0964814013617286,0.7718889128750235,-0.19242624938488007,0.9999939203262329,0.9126141567892156,0.7661417208510658,-0.24363401532173157,0.9999959468841553,1.059879409824778,1.1139053331334512,0.011011192575097084,0.9999837875366211,0.948657191061392,1.117168496367913,-0.011198732070624828,0.9999868869781494,1.0480352517706637,1.3792585687312195,-0.004130459390580654,0.9564312696456909,0.9428764795264201,1.391629120532278,0.007365446537733078,0.964019238948822,1.0458713611986625,1.6261598213870134,0.20493456721305847,0.9653797745704651,0.9269660044641297,1.635929593730979,0.21411368250846863,0.9797393679618835,1.1489410493375536,1.1229601420749271,-0.34938234090805054,0.9582908153533936,0.8708278739649656,1.1343726692064617,-0.4014241099357605,0.994990348815918,0.0028666257858276367,1.004268300443085,1.115536914750682,177.9464126201893,177.48036912868378,1.0,0.0338685821261046,0.023456962715213744,0.10907122946364019,-0.09429701882811234,97.7889701351614,0.9500522239511381,29,0.9666666666666667
1.0357150331033567,0.6269690264031632,-0.4547472596168518,0.9999962449073792,1.099007527104812,0.7751878786646729,-0.18739067018032074,0.9999940991401672,0.9165421117866844,0.7658096406015227,-0.24149639904499054,0.9999957084655762,1.0643049969237466,1.115638189548631,0.013259964995086193,0.9999837875366211,0.9537116238133704,1.1192760012173473,-0.01345997303724289,0.9999865889549255,1.0514170197830897,1.3801855796958904,-0.03430044651031494,0.9588128328323364,0.9465051788083509,1.3948755417823375,-0.003018113551661372,0.9622817039489746,1.046918574651313,1.626969026403163,0.18678277730941772,0.9658674597740173,0.9276297781330699,1.6359266936882695,0.20635132491588593,0.9785593748092651,1.15224124045061,1.1256760433102997,-0.3403896987438202,0.961131751537323,0.8792332864371605,1.1355432531992737,-0.39646071195602417,0.9951025247573853,0.00467449426651001,1.0090083103685585,1.117457095382989,178.25521142381942,177.02045925370277,1.0,0.03140945435586217,0.008893742281234726,-0.019294201104919518,-0.11330510929531397,97.70411356911949,0.9548306451922957,30,1.0
1.0404848575344237,0.6273374681734623,-0.45403948426246643,0.9999958276748657,1.1038617305823646,0.7759217320073465,-0.1757718026638031,0.9999942779541016,0.9217644911884737,0.763044969542061,-0.24520163238048553,0.9999955892562866,1.0696280683845294,1.1171430155881164,0.016571488231420517,0.9999836087226868,0.9602744148825529,1.1204709642610138,-0.016763798892498016,0.9999863505363464,1.0553662858280177,1.3808186083718696,-0.015140573494136333,0.9610125422477722,0.9492505475142592,1.3959642146510742,-0.012138213030993938,0.9626118540763855,1.0479983761668386,1.6273374681734623,0.201437309384346,0.96727454662323,0.928316535956592,1.6364417977192276,0.20093242824077606,0.9786843657493591,1.1570057746460083,1.1267589506893485,-0.2957928776741028,0.9640274047851562,0.8873821092279057,1.1364915404717264,-0.3722955882549286,0.9953912496566772,0.006414890289306641,1.0149512416335413,1.1188069899245652,178.61591755140157,177.31630917314519,1.0,0.040373327677889335,0.005644001348630194,0.06681355641248392,-0.02430294198236186,97.47227383792756,0.9578588889212654,31,1.0333333333333334
1.048941293709507,0.6275359603072493,-0.43784332275390625,0.9999955296516418,1.1064035959349967,0.7763621767257884,-0.15577633678913116,0.9999943375587463,0.9260089635122303,0.761067080116865,-0.24520929157733917,0.9999955892562866,1.0726731579975188,1.1192490072983199,0.020250897854566574,0.9999838471412659,0.9649976331196679,1.1218914652544838,-0.020437264814972878,0.9999865889549255,1.0580244662194245,1.3825688716705724,0.005782165564596653,0.9635922908782959,0.9533277045137772,1.3978402755441193,-0.010197972878813744,0.9641827344894409,1.0496614092726186,1.6275359603072492,0.22842451930046082,0.9690770506858826,0.9286614131017477,1.6367700244298427,0.20514945685863495,0.979643702507019,1.1583676279694894,1.12783439304477,-0.26659145951271057,0.9658423066139221,0.8928582796297998,1.136671663679946,-0.36348074674606323,0.9956867694854736,0.007618725299835205,1.0188353955585934,1.1205702362764018,178.77116318383813,176.5274663405637,1.0,0.028477263792098993,0.012325706051496296,-0.09009747569212713,0.05057947160197262,97.02402991526563,0.9639140370182314,32,1.0666666666666667
1.0532905308281595,0.6274398047145174,-0.39760836958885193,0.9999950528144836,1.1092554504663743,0.7772219703227375,-0.11965841054916382,0.9999940395355225,0.930030898185552,0.7601304224455064,-0.22181852161884308,0.9999955296516418,1.0754963993596016,1.1225448948596013,0.022048626095056534,0.9999834299087524,0.9678686868692912,1.1266029925658776,-0.022233638912439346,0.999986469745636,1.0597380674775403,1.3844723919594004,-0.0010332411620765924,0.9656127095222473,0.9552745967283353,1.4033324477133746,-0.010869268327951431,0.9651787281036377,1.051381133399313,1.6274398047145173,0.21194088459014893,0.9704036712646484,0.9286375573496755,1.6368560128519989,0.20480212569236755,0.9801511168479919,1.161437949279881,1.1279965727046026,-0.2609352767467499,0.9674188494682312,0.9000455931752264,1.1360871627123565,-0.35655802488327026,0.9960211515426636,0.008514195680618286,1.0216825431144465,1.1245739437127393,178.52699489662805,176.098399749336,1.0,0.022629556046082727,0.031643207794146797,-0.045263050037359996,0.14958435227077232,97.74285139476034,0.9795005148464054,33,1.1
1.0560354068689413,0.6269955613471188,-0.41039609909057617,0.9999948740005493,1.1083773370306762,0.7772272391545598,-0.12148481607437134,0.9999939799308777,0.9311134130156881,0.7590193878530783,-0.22924873232841492,0.9999955892562866,1.075737137908889,1.1222296981641906,0.02816968783736229,0.9999831914901733,0.9688888947346583,1.1264080415892483,-0.028343278914690018,0.9999864101409912,1.0600605778487295,1.3872437365802224,0.01421512383967638,0.9671005606651306,0.9574566821509142,1.4056507359750658,-0.018647950142621994,0.9656351804733276,1.0524365120541692,1.6269955613471188,0.2380160093307495,0.9712380766868591,0.9281438285673904,1.63514945314089,0.2141992151737213,0.9800214767456055,1.1604423371508465,1.127274225190757,-0.2503513693809509,0.9685482382774353,0.9013257965953627,1.135351590548172,-0.3925531506538391,0.996303379535675,0.00907626748085022,1.0223130163217735,1.1243188698767195,178.43606965595342,175.065658080556,1.0,0.009915548272216489,0.0036971612622785704,-0.09656998438841866,-0.2123565332062192,97.64401998364124,0.9816822986154948,34,1.1333333333333333
1.056293890837705,0.6251509797724362,-0.4102157652378082,0.9999945759773254,1.104533142705288,0.77517679729862,-0.1079922690987587,0.9999934434890747,0.9301890157662762,0.7567379212903446,-0.24247094988822937,0.9999955892562866,1.0741590705356752,1.1193138105702949,0.03273553401231766,0.999982476234436,0.9677001347089487,1.1239267485666236,-0.03290717676281929,0.9999860525131226,1.059223890946197,1.3848021504789207,0.0069837868213653564,0.968187153339386,0.9557758473614918,1.4058870397687666,-0.027436498552560806,0.9644598960876465,1.0495205308050002,1.6251509797724362,0.22955310344696045,0.9715574979782104,0.9260130860462202,1.6283514946207625,0.21823886036872864,0.9789494872093201,1.1567236504157927,1.1242250420347,-0.19867494702339172,0.9675781726837158,0.9106499590532008,1.1313059948522322,-0.4244464337825775,0.9965884685516357,0.009218454360961914,1.020929602622312,1.1216202795684593,179.09207995166702,174.80147537655887,1.0,0.011373347309724263,0.004211541685728703,0.010479632678223766,0.003701811165789335,97.52505779656228,0.9832224179135955,35,1.1666666666666667
1.0708319775680195,0.6288928707986895,-0.36712008714675903,0.9999931454658508,1.1105496584970873,0.7807203124882854,-0.06468261778354645,0.999992847442627,0.939405162654351,0.7587123803240342,-0.2440284937620163,0.9999955892562866,1.0807713842301376,1.1271328899918278,0.046587131917476654,0.9999816417694092,0.9743062055315225,1.1311327400454338,-0.0467207171022892,0.9999856352806091,1.0660738785884047,1.3973682008681896,0.04217233136296272,0.9691544771194458,0.9710685629887316,1.4149846229972785,-0.03349652886390686,0.9640988111495972,1.0562427932014304,1.636588719532767,0.2879798412322998,0.9719209671020508,0.9343778199293753,1.6288928707986894,0.23340916633605957,0.9778271913528442,1.164478778836566,1.1314892525921982,-0.16168029606342316,0.9661162495613098,0.934681011538375,1.1220558250425472,-0.45297589898109436,0.9968611598014832,0.010935366153717041,1.02753879488083,1.1291328150186308,179.24019743397773,170.92051323448018,1.0,0.0024434610495423373,0.004639778137966843,-0.0699715085004298,0.0031274786314182076,97.06473983490375,0.9949858864176863,36,1.2
1.075124906969461,0.6298410525258283,-0.3088468909263611,0.999991774559021,1.1126498746857072,0.7834641647776985,-0.02105831727385521,0.9999925494194031,0.9437174182688501,0.7597550023961432,-0.20396378636360168,0.9999955892562866,1.0831120510643344,1.1299863963033923,0.05082684010267258,0.9999809861183167,0.9769970250067652,1.1335787774396877,-0.05095499008893967,0.9999852180480957,1.0693719988463883,1.4025102779243575,0.046141352504491806,0.9697198271751404,0.9785591624927802,1.4204238459027694,-0.0542164146900177,0.9640514850616455,1.058743115108845,1.640665571693441,0.2830178439617157,0.9721314907073975,0.9370719460416561,1.6298410525258284,0.21419218182563782,0.9767757058143616,1.1680567864602005,1.134313101699942,-0.15577831864356995,0.9661809206008911,0.9413518167731709,1.1113537749311173,-0.43186506628990173,0.9970993995666504,0.011752665042877197,1.0300545380355497,1.1317825868715399,179.6691352823516,168.48231598981258,1.0,0.0005255101575848993,-0.0003286516304100771,-0.015196865811760963,-0.03933548567175149,96.81108995874364,0.998935472910943,37,1.2333333333333334
1.074843773108877,0.6282007455128209,-0.32442015409469604,0.9999909996986389,1.1109130613541187,0.7825131445318141,-0.025050779804587364,0.9999922513961792,0.9447143342754974,0.7583406325984389,-0.2199973613023758,0.9999955892562866,1.0824023029869452,1.1288282110976893,0.05765079706907272,0.9999803900718689,0.978672294951999,1.1332078302084552,-0.05778295546770096,0.9999849796295166,1.0678571349223043,1.4029594854608067,0.06256166100502014,0.9689788818359375,0.9811505723450495,1.4202255225221985,-0.0508929006755352,0.963472306728363,1.0573944713013232,1.6380929585805462,0.28910136222839355,0.9713930487632751,0.9363850356288403,1.628200745512821,0.1985894739627838,0.9755452871322632,1.1679356589421457,1.1329090342134025,-0.15951713919639587,0.9639196991920471,0.9510193140746425,1.1143490952023727,-0.4348987638950348,0.9972767233848572,0.011997133493423462,1.030537298969472,1.1310180206530722,179.51057610278656,167.3580142584528,1.0,0.013229476047191569,0.004758540141235507,0.09592172350134667,0.03840599712353886,97.12399120155403,1.0029977217339936,38,1.2666666666666666
1.0747704878087523,0.6258023523220061,-0.3460926413536072,0.9999903440475464,1.1088643211381395,0.7811040382336994,-0.04826979339122772,0.9999922513961792,0.9436078108623532,0.7568893219398699,-0.25044745206832886,0.999995768070221,1.0822779214232259,1.1268116934554522,0.06111960858106613,0.9999801516532898,0.9800790820891027,1.1310948220802852,-0.06124938279390335,0.9999850988388062,1.0670997709298844,1.401677130122795,0.07176592200994492,0.9682467579841614,0.983002955463051,1.4172628893525105,-0.05569891259074211,0.9639793038368225,1.055514571562757,1.6352128391956562,0.28966981172561646,0.971128523349762,0.9351478315964505,1.6258023523220062,0.17714664340019226,0.975269079208374,1.1669466479126687,1.1301460528039136,-0.20104756951332092,0.9621637463569641,0.9581730496896029,1.1145086231726167,-0.43084031343460083,0.9974645972251892,0.012039124965667725,1.0311785017561643,1.1289532577678687,179.6793111884918,166.4902797809,1.0,0.018459829668287523,-0.000662749992139895,0.03970250047037049,-0.040907846255985085,96.79748279328619,1.00437513070538,39,1.3
1.0677553018835235,0.6198914390179682,-0.3622111678123474,0.9999901056289673,1.1007576596111286,0.77500613653908,-0.06371454894542694,0.9999925494194031,0.9368275196254757,0.75072346331218,-0.2749708890914917,0.9999959468841553,1.0755348929827433,1.11699880504767,0.06354551017284393,0.9999804496765137,0.9745629377544092,1.1220943182636667,-0.06366252154111862,0.9999855160713196,1.0605174272654327,1.3903467526719893,0.08562249690294266,0.967357337474823,0.9797848395872701,1.4057832933043237,-0.06398577988147736,0.965090811252594,1.0472952152005597,1.620596122468607,0.29939764738082886,0.9710866808891296,0.9279122152843627,1.6198914390179682,0.14973732829093933,0.9758228063583374,1.1577294847037953,1.1213663198305286,-0.17679764330387115,0.9614652395248413,0.9572310436850805,1.1072602796025486,-0.4361833930015564,0.9976229071617126,0.012167394161224365,1.0250489153685762,1.1195465616556683,179.85797631039978,165.32665741597597,1.0,0.013413521373527538,-0.0045729313930180674,-0.03502442621685783,-0.027969225803935238,97.10702217576289,0.998764070240814,40,1.3333333333333333
1.0709064814638511,0.6197184590338735,-0.34352952241897583,0.9999903440475464,1.1011594613378015,0.7753098878501113,-0.04998510330915451,0.9999929070472717,0.9384300205639864,0.7506463137150364,-0.2756965756416321,0.9999961853027344,1.0767743578514442,1.114783102305832,0.06852004677057266,0.9999811053276062,0.9756262614482378,1.1214523553380682,-0.06862562149763107,0.9999861717224121,1.062783230830747,1.3886162626858851,0.08926260471343994,0.9655329585075378,0.9865449884803595,1.40625487918658,-0.07258506864309311,0.9666487574577332,1.0480853357832403,1.6197184590338733,0.2907428443431854,0.9701089859008789,0.9288284954016641,1.6325972505188597,0.1089911088347435,0.9767647385597229,1.1581539538071937,1.1220260762771568,-0.17402252554893494,0.9597395062446594,0.9593075839220092,1.1084657457301168,-0.4364677369594574,0.9977821707725525,0.012353003025054932,1.026200309649841,1.1181177288219502,179.2858456136978,163.49911716184266,1.0,0.005712176957990546,-0.015201129353225868,-0.06150983041017856,-0.084807998542708,97.88099116496036,0.9822513753727995,41,1.3666666666666667
1.0730784438056513,0.6194117588554229,-0.32981202006340027,0.9999907612800598,1.1015206384786551,0.7759827131602756,-0.040017079561948776,0.9999933838844299,0.9387869327204826,0.7513627953576905,-0.283759206533432,0.9999964833259583,1.0772909288103016,1.1154384192663718,0.07608987390995026,0.9999822378158569,0.9754479159985275,1.12238045543221,-0.0761556476354599,0.9999871850013733,1.0633389631219365,1.3897456851836267,0.1352928727865219,0.9621946215629578,0.9883514653262374,1.407350194350689,-0.08708730340003967,0.9692174792289734,1.049139365348386,1.6194117588554229,0.343824565410614,0.9691205620765686,0.9294630308463937,1.6514612347693314,0.06255686283111572,0.9784447550773621,1.1590770529447285,1.1227499382259787,-0.16854742169380188,0.9580177664756775,0.9613255022515284,1.110248508147709,-0.4526650905609131,0.9979559183120728,0.012320101261138916,1.0263694224044146,1.118909437349291,179.3737689850075,163.84470477071017,1.0,-0.00568794796781565,-0.0015913880861087176,-0.08648131174012347,0.10330038601902063,97.98222333351352,0.9687547475810038,42,1.4
1.0748863795509558,0.6169634873613897,-0.2792307138442993,0.9999905228614807,1.0990187504765248,0.7740434047703239,-0.01689821481704712,0.9999937415122986,0.9382220446437196,0.7492362064367155,-0.27719196677207947,0.9999967813491821,1.0764303046668975,1.1147361938484286,0.08019012957811356,0.9999834299087524,0.9741962140742048,1.121579341353451,-0.08022736012935638,0.9999881982803345,1.0625879506108236,1.388680171983973,0.18534867465496063,0.9583578705787659,0.988349317283337,1.4093192486572346,-0.09497759491205215,0.9719725251197815,1.049078189212725,1.6169634873613896,0.38370993733406067,0.9696447849273682,0.9288707628138791,1.6662489815540231,0.03038322553038597,0.9803276658058167,1.157338051689113,1.122321544367938,-0.11940239369869232,0.9568432569503784,0.9612143869775095,1.1128113465758938,-0.4447330832481384,0.9981287121772766,0.01242142915725708,1.0253132593705512,1.1181577676009398,179.50588536073298,164.14983419010878,1.0,-0.0032426118890316125,-0.0005017817130321223,0.018529499729712243,0.008260861592235371,97.62268639818481,0.9598438417228624,43,1.4333333333333333
1.0730823552584974,0.613695560348389,-0.2812332510948181,0.9999909400939941,1.0915944222157634,0.7715143645116795,-0.010477983392775059,0.999994158744812,0.9363793823731321,0.7463016763373754,-0.28131240606307983,0.999997079372406,1.072873384074483,1.1122727089395532,0.08543948829174042,0.999984622001648,0.9717508143965821,1.1192867275320486,-0.08546434342861176,0.9999891519546509,1.060316936461058,1.3857727452035975,0.19574683904647827,0.951103687286377,0.9874703420409214,1.4069213655928292,-0.10991932451725006,0.9744758009910583,1.0477515787630391,1.6136955603483891,0.3961968719959259,0.9684023261070251,0.926804961871669,1.6784953979710073,-0.01561233401298523,0.982032060623169,1.152255109740463,1.1201022972752308,-0.10715822875499725,0.9552624821662903,0.9572719269311287,1.1141818430652544,-0.4615023732185364,0.9982894659042358,0.01264965534210205,1.0223120992355326,1.115779718235801,179.47310097955597,164.27959684198117,1.0,-0.007563150185804132,-0.0011936024408639898,-0.034110315267631725,-0.005461597337802728,97.1124003838853,0.9495193241392104,44,1.4666666666666666
1.0719737307930686,0.6111414438809747,-0.27235737442970276,0.9999912977218628,1.0876794220907353,0.7698751816406936,-0.005877057556062937,0.9999945759773254,0.9350576979112388,0.744972788302102,-0.27797308564186096,0.9999973177909851,1.070736889362191,1.110550014189567,0.08566705882549286,0.9999856948852539,0.9701112670856148,1.1177425585450143,-0.08568882197141647,0.9999900460243225,1.058940447479145,1.3837823453313478,0.19411605596542358,0.9459370970726013,0.9863242709932033,1.4052040829885601,-0.1104796901345253,0.9767616987228394,1.0472714269578993,1.6111414438809746,0.39276716113090515,0.9678459763526917,0.9255566201685473,1.6797891686622228,-0.019360609352588654,0.98360675573349,1.1485336814760188,1.1186222879656338,-0.0971788838505745,0.9548091888427734,0.9559468522415244,1.115019609127261,-0.460629940032959,0.9984349608421326,0.012510746717453003,1.020424078223903,1.1141462863672906,179.53405250513316,164.29306620558523,1.0,-0.004057306926946469,-0.001078972039261326,0.02740620551191647,0.0008861535641802107,96.93555271594468,0.9497209945728454,45,1.5
1.0717315913741055,0.6102933573259895,-0.25617343187332153,0.9999911785125732,1.082349243477308,0.7688598230130286,0.005367196165025234,0.9999948740005493,0.9349065917256066,0.7450829718011738,-0.2665518820285797,0.9999974966049194,1.070191274237496,1.1113448652249203,0.08495146036148071,0.9999865889549255,0.9699349838330179,1.1182695292772085,-0.08498170971870422,0.9999907612800598,1.0589249613897358,1.3868059414571516,0.1987302154302597,0.9404270052909851,0.9854228121300153,1.4085814601084024,-0.11371175944805145,0.978819727897644,1.0474586042735792,1.6102933573259894,0.4025483727455139,0.966367781162262,0.9274553580036009,1.6884821902165894,-0.03389111906290054,0.9850234389305115,1.1474129891970757,1.1186172930676415,-0.07495563477277756,0.9553730487823486,0.9547751047399635,1.1197188416962258,-0.4230539798736572,0.9985613226890564,0.011944442987442017,1.0200631290352569,1.1148071972510643,179.4050120438276,165.24567741453163,1.0,-0.0031797536174615467,0.004279188680177845,0.006449332134237745,0.03936604242691703,95.98422733583722,0.9469293874276967,46,1.5333333333333334
1.0699673211989704,0.6098842763114375,-0.2221040278673172,0.999991238117218,1.075393951090625,0.7678365960368626,0.034414347261190414,0.9999951720237732,0.934038398480316,0.7444952473125876,-0.24280425906181335,0.9999976754188538,1.0683301803652638,1.113070121551483,0.08745917677879333,0.9999873638153076,0.9696642308318786,1.1190341272142597,-0.08749155700206757,0.9999914169311523,1.057784669865394,1.3886360139212688,0.19850866496562958,0.9342223405838013,0.9858047679326195,1.4113644128496943,-0.12331098318099976,0.9806925058364868,1.0466596992355346,1.6098842763114376,0.3990970849990845,0.9636496901512146,0.9281560720379902,1.6927400805980672,-0.05504106730222702,0.9862837195396423,1.1438967366009922,1.1161924253370128,-0.02621648833155632,0.9563292264938354,0.9526715151009348,1.1222177200519996,-0.40286850929260254,0.9986786842346191,0.01173582673072815,1.0189972055985712,1.1160521243828714,179.3129928213364,165.26110069511228,1.0,-0.001349140707612626,0.01631703197040285,0.013494731460779022,0.08890039400076567,94.63127389343697,0.9487764814509032,47,1.5666666666666667
1.066120288024846,0.6096966508387492,-0.26601988077163696,0.9999911785125732,1.0633334133171943,0.7643479345352834,0.005610767286270857,0.999995231628418,0.9310982287722093,0.7450440962875343,-0.2693942189216614,0.9999977946281433,1.0615014866629875,1.1146131402819164,0.089958555996418,0.9999879002571106,0.9697263455877495,1.1241143935105242,-0.09002275764942169,0.9999919533729553,1.0539279037326097,1.3886224438861374,0.22191882133483887,0.918393075466156,0.9848139086602081,1.4170228762729653,-0.11737851053476334,0.9820269346237183,1.0452793377099316,1.6096966508387494,0.44126757979393005,0.9565842151641846,0.9284523034018913,1.6956332070477038,-0.03358627110719681,0.9871722459793091,1.1373880411093347,1.1137773978050651,-0.029932428151369095,0.9522057771682739,0.9390470248817943,1.1337369852186863,-0.41685813665390015,0.9987507462501526,0.009710133075714111,1.0156139161253686,1.1193637668962204,179.34293953130145,165.61499207080234,1.0,-0.02267791304709653,0.029497687818787487,-0.16515815663002922,0.10211715192662493,96.21029432817183,0.9589686415926585,48,1.6
1.061830289670419,0.6084182294647029,-0.2730390429496765,0.9999905824661255,1.0593786885461351,0.7596334509405678,-0.004223458934575319,0.9999954700469971,0.9282717822320842,0.7448019508616538,-0.2781573235988617,0.9999979138374329,1.0579784840210804,1.1152218192263261,0.09097800403833389,0.9999883770942688,0.9693539203417891,1.1274430022866693,-0.09102844446897507,0.9999924302101135,1.0489933055163156,1.3874113490922055,0.23469777405261993,0.902582049369812,0.9833502823674752,1.41930773821977,-0.1163174957036972,0.9833596348762512,1.0436889623129968,1.608418229464703,0.4522053599357605,0.9496688842773438,0.927674688420157,1.6962936730670435,-0.03738970682024956,0.9880019426345825,1.1326986828771184,1.1100374157476713,-0.0689159482717514,0.9521313905715942,0.9229293140619914,1.1353997538926834,-0.41652169823646545,0.9988204836845398,0.007466405630111694,1.0136662021814349,1.1213324107564977,179.4841912586557,165.88918994455156,1.0,-0.00885634670523297,0.022174403089956687,0.10711741888890361,-0.056647882090295386,98.07708991950145,0.9687984716264182,49,1.6333333333333333
1.054411215850749,0.6026650429911685,-0.23845043778419495,0.9999909400939941,1.0512766266433013,0.7545609463035313,0.011849652044475079,0.999995768070221,0.9185641901196754,0.7411466530692681,-0.26596319675445557,0.9999980926513672,1.0491534765125266,1.1099981824967664,0.09142528474330902,0.9999892115592957,0.9646109438438633,1.1224653709665493,-0.09146732836961746,0.9999930262565613,1.0410256727486746,1.3827496261157246,0.23565459251403809,0.9000976085662842,0.9780992922341946,1.412957531400535,-0.12354154884815216,0.9848943948745728,1.0365075423438486,1.6026650429911684,0.4456360340118408,0.9505200386047363,0.9231536656271255,1.6893108717034189,-0.057080142199993134,0.9890667796134949,1.1236005298743625,1.0993140913647388,-0.07413776963949203,0.9547539353370667,0.9047727870572561,1.1326747314322307,-0.37671560049057007,0.9989140033721924,0.006785750389099121,1.006882210178195,1.1162317767316579,179.47009855844647,166.09638957113103,1.0,-0.013823798012037898,0.0023279686086027742,-0.03672372416372664,-0.1446835842100749,98.73099005761843,0.9723120709798269,50,1.6666666666666667
1.048985533112764,0.5995016713666479,-0.2343767136335373,0.9999913573265076,1.0429717973511339,0.7498041176735648,0.019838597625494003,0.9999960660934448,0.9110200456487921,0.7388191390295411,-0.2710660994052887,0.9999982118606567,1.040615158334077,1.109345665200636,0.09716348350048065,0.999989926815033,0.9609373893875106,1.1209923286741235,-0.09720620512962341,0.9999935626983643,1.0358538239925403,1.3811882115880443,0.25654497742652893,0.8983292579650879,0.974568578612511,1.40815719981889,-0.1167823076248169,0.9862921237945557,1.0299473630687512,1.599501671366648,0.4739590585231781,0.9513199329376221,0.9205340782961795,1.6862662181959627,-0.0412495881319046,0.9900386929512024,1.1134510133212907,1.0900020027377995,-0.03869576007127762,0.9568520784378052,0.8864858907445138,1.1325699038621233,-0.38229233026504517,0.9990039467811584,0.005572527647018433,1.0007762738607937,1.1151689969373797,179.4536788260771,166.2871617317075,1.0,-0.025093223785922353,0.01590813148408931,-0.08665420176933755,0.10411341097721329,98.69169102415701,0.9802806047848523,51,1.7
1.0448704786748724,0.5956988592211468,-0.24356107413768768,0.9999915957450867,1.0371549976552918,0.7467022800638885,0.01264607347548008,0.9999963045120239,0.9051213053272764,0.7359439800753997,-0.2782897651195526,0.9999983310699463,1.0295025498883883,1.1066875879265545,0.09809769690036774,0.9999905228614807,0.9548289417531153,1.1173112685705715,-0.09814969450235367,0.9999940395355225,1.0292473706610086,1.3777488517374126,0.25399065017700195,0.8971655368804932,0.9686150053704214,1.4052901653187646,-0.1164015382528305,0.9875555634498596,1.0234103508685086,1.5956988592211467,0.46409887075424194,0.9523353576660156,0.917305703367036,1.6833006694939854,-0.04829727113246918,0.9909144639968872,1.105923573352751,1.085964175906125,-0.044692717492580414,0.9583394527435303,0.8730575316096238,1.1313557333751993,-0.3688795268535614,0.999080240726471,0.005473136901855469,0.9921657458207518,1.111999428248563,178.5198406631484,166.80246395924408,1.0,-0.044858568837334564,7.028333826036486e-05,-0.15454228677376575,-0.12303402508598481,99.31482237481974,0.9830113509106411,52,1.7333333333333334
1.0400801254604628,0.5904867710450458,-0.24960096180438995,0.999991774559021,1.0294233878504482,0.7412015456770112,0.006870307959616184,0.999996542930603,0.8998135791827908,0.7324045798719454,-0.2873019874095917,0.9999984502792358,1.0204079893368414,1.1034090329338384,0.09765554964542389,0.9999911189079285,0.9471637429255997,1.1129959055833665,-0.09771706163883209,0.9999944567680359,1.0215154466715397,1.3735326569741384,0.25210556387901306,0.8985647559165955,0.9598340074860193,1.400292356594724,-0.09232665598392487,0.9886521697044373,1.0162100185545218,1.5904867710450459,0.45255571603775024,0.9548363089561462,0.9138558486554363,1.6770914289737036,-0.01084875874221325,0.9917029142379761,1.0986599019072527,1.0828485726630823,-0.017377112060785294,0.959213137626648,0.8632801541334041,1.1291147451184493,-0.36918848752975464,0.9991485476493835,0.004491269588470459,0.9837858661312205,1.1082024692586026,178.3642588177357,168.04369606528326,1.0,-0.03661462237025784,0.0011170771472896787,0.06091223454035035,0.007888603881500564,98.88280697376642,0.9901968002140563,53,1.7666666666666666
1.0311007622398225,0.5787913920549841,-0.251573383808136,0.9999918341636658,1.0160310493966513,0.732064684465133,0.0044981809332966805,0.9999966621398926,0.8918542757098394,0.7271185725329067,-0.3135215640068054,0.9999985694885254,1.0070254906660145,1.0989411383982586,0.10361268371343613,0.9999916553497314,0.9357070960226918,1.1082515281262542,-0.10365957021713257,0.9999948740005493,1.0094912708066868,1.3654009976982884,0.277696430683136,0.8927820920944214,0.9477280930693444,1.3917065561622415,-0.06601730734109879,0.9895855188369751,1.0058040795872107,1.578791392054984,0.5043801665306091,0.9550892114639282,0.906389055952663,1.6663793440301302,0.03898882493376732,0.9923704862594604,1.082228190524823,1.0666617504117073,-0.023419251665472984,0.955344557762146,0.8535270824774818,1.1241683673546292,-0.4473641812801361,0.9992076754570007,0.0025425851345062256,0.9713662933443532,1.1035963332622563,178.4798882057561,169.01266729673003,1.0,-0.04549689911951816,0.02361673217787331,-0.07285829037576777,0.17956574851023352,98.84385236400657,1.017291453104061,54,1.8
1.0293940158489963,0.5783896245016115,-0.25568562746047974,0.9999918341636658,1.0094683248964282,0.7270204677281572,0.00329657644033432,0.9999967813491821,0.89029112508821,0.7259586450066575,-0.31706100702285767,0.9999986290931702,1.0014192404548663,1.1004353102296687,0.10493595898151398,0.9999921321868896,0.9304846266914325,1.109602310188758,-0.10499411821365356,0.999995231628418,1.0047126061257736,1.366195328791285,0.2796207368373871,0.8916477560997009,0.9428078315278368,1.3920734620925697,-0.046027712523937225,0.9904032349586487,1.0026469077861089,1.5783896245016114,0.4987969398498535,0.9570887088775635,0.9049577687305609,1.6656632932567303,0.0737273320555687,0.9929823875427246,1.076112245393466,1.0638806549274333,-0.009427972137928009,0.9546604156494141,0.8495350150587138,1.1257623665782432,-0.4357444643974304,0.9992601275444031,0.0005460977554321289,0.9659519335731493,1.1050188102092133,178.73225923588203,169.6253296123295,1.0,-0.03714292850995413,0.014610639945493366,0.06249852995861613,-0.06746806313423206,98.5984573756776,1.0256877277239467,55,1.8333333333333333
1.0269508066757724,0.5740760938453421,-0.25896427035331726,0.999991774559021,1.0056689167432364,0.7211696259719491,0.00014994310913607478,0.9999969005584717,0.8882201101901147,0.7223120908048574,-0.32598432898521423,0.9999986886978149,0.9965223777394722,1.098216082143256,0.10550226271152496,0.9999926090240479,0.9252959435331294,1.1068199994809604,-0.10555535554885864,0.9999955892562866,1.002503007163265,1.362611205507321,0.28757351636886597,0.8921974897384644,0.9397097505841939,1.3883426162213475,-0.04250487685203552,0.9911726117134094,1.0002135691367802,1.574076093845342,0.5131824612617493,0.9593079090118408,0.9025923016042423,1.660336754890083,0.08509863168001175,0.9935575723648071,1.0707024817774085,1.059025018453934,-0.012625269591808319,0.9525561928749084,0.845437270236167,1.1242381087218918,-0.4396175742149353,0.9993032813072205,0.0005890727043151855,0.9609091606363008,1.1025180408121082,178.08389574634248,169.2982262466711,1.0,-0.01940540351290774,0.0023598965268576233,0.13258654756676613,-0.09178469475512523,98.27739870300674,1.0345286761301915,56,1.8666666666666667
1.0231162446912754,0.5739934709128915,-0.25939545035362244,0.9999917149543762,0.9974598066504822,0.7191488619383889,0.001297839218750596,0.9999969601631165,0.8877477838002947,0.7213613070373799,-0.3276243209838867,0.9999987483024597,0.9916238776326433,1.0972909764448706,0.1075875386595726,0.9999930262565613,0.9225688115365536,1.1059507159976498,-0.10763949155807495,0.9999958872795105,1.000888051040465,1.3617148453899326,0.28357893228530884,0.891123354434967,0.9369929692974865,1.3873787926433745,-0.05054061859846115,0.9918419122695923,0.9979159046741267,1.5739934709128915,0.5047024488449097,0.9609461426734924,0.9020280534942446,1.658982739670385,0.06840147823095322,0.9940685033798218,1.0649863436303508,1.0565281975556011,0.008532494306564331,0.9475198984146118,0.8432057337113047,1.1247274444624409,-0.4519202709197998,0.9993316531181335,0.0011414885520935059,0.9570963445845985,1.1016208462212602,177.1912902828642,169.7303391996153,1.0,-0.024426502766572027,-0.001555620959573241,-0.03831309010778343,-0.029793365031351302,98.03195725084447,1.0326716774494642,57,1.9
1.0087188840544343,0.5677784153092925,-0.24405178427696228,0.999991774559021,0.9827990402377996,0.7095924819774966,0.015413084998726845,0.9999970197677612,0.8821770052899818,0.7137697858020317,-0.31695833802223206,0.9999988079071045,0.9772997859431529,1.0887769709390036,0.10858017206192017,0.9999933838844299,0.9129711542422024,1.0969681991861089,-0.10863439738750458,0.9999961256980896,0.9898283701677014,1.352083184897869,0.27264004945755005,0.884648323059082,0.9279004633940074,1.3776591747343852,-0.052743930369615555,0.9923374056816101,0.9882797078308183,1.5677784153092924,0.48968544602394104,0.9612932205200195,0.895827044545784,1.6475613731166767,0.06268202513456345,0.9944548606872559,1.050327854501464,1.0431883811545073,-8.986379543785006e-05,0.9437978863716125,0.8376416045647104,1.1175760325170903,-0.4414483606815338,0.9993634223937988,0.0021701455116271973,0.9451354700926776,1.0928725850625562,176.86444936574495,170.1785609565132,1.0,-0.04131725295777177,-0.009056240166347866,-0.130860473090607,-0.05762113207406966,98.08754840154143,1.0274302870842702,58,1.9333333333333333
0.9960602329431377,0.5597463505269182,-0.24753662943840027,0.9999918341636658,0.9695260725344194,0.7064499898337969,0.01875256560742855,0.9999970197677612,0.876624248300916,0.7090067314685395,-0.3255234360694885,0.9999988675117493,0.9664551781029278,1.0817471596050554,0.11199897527694702,0.9999936819076538,0.904753080399418,1.089876245929885,-0.11202637851238251,0.9999963641166687,0.9797834778309797,1.3429982278828938,0.28315895795822144,0.8794508576393127,0.9201421524180315,1.3688169064839855,-0.05723262578248978,0.9928851127624512,0.9752233643343149,1.5597463505269182,0.49432212114334106,0.9620580673217773,0.8903791466465809,1.6369169232253022,0.05872449278831482,0.9948684573173523,1.0353648771964286,1.0344917294646547,-0.006617057137191296,0.9330341815948486,0.8336366283820438,1.110582923298378,-0.46214646100997925,0.9993898868560791,0.0013367533683776855,0.935604129251173,1.08581170276747,175.87420662389079,170.5074830721087,1.0,-0.027754315135371833,-0.0008551478991337706,0.10490585001093966,0.06423253667241928,97.97415670544184,1.0331654916127964,59,1.9666666666666666
0.982324199935357,0.5543125107969314,-0.22996680438518524,0.9999923706054688,0.9507407642468304,0.6927054997575038,0.03902076557278633,0.999997079372406,0.8722640561482295,0.702371235243628,-0.32446032762527466,0.999998927116394,0.9514483981058718,1.0718070185739463,0.11750636994838715,0.9999940991401672,0.8990365997734893,1.0808392775143147,-0.1175193190574646,0.9999966621398926,0.9672613845617257,1.3326442529439775,0.2749999165534973,0.8673942685127258,0.9134168963507022,1.3583387721019622,-0.06319588422775269,0.993366003036499,0.949451071841863,1.5543125107969316,0.48904019594192505,0.9606231451034546,0.8834188207075275,1.6245355834619348,0.05795852094888687,0.9951587319374084,1.0080880683428368,1.0221672104303987,0.039775148034095764,0.9002609252929688,0.829109477576152,1.1019491664344654,-0.46725186705589294,0.9994149208068848,0.005092531442642212,0.9252424989396805,1.0763231480441307,171.9370900870747,170.60391737312517,1.0,-0.024301074817947563,-0.00897470330238746,0.024567079939416592,-0.061597170831189006,99.67093792535836,1.0232743870889154,60,2.0
0.9787245397607669,0.5520492897131949,-0.23915068805217743,0.9999929666519165,0.9487786876103869,0.6907888742729705,0.03263469785451889,0.9999972581863403,0.870946619001861,0.6994018355354339,-0.3343055546283722,0.9999989867210388,0.9423312792755976,1.0657089551249435,0.12035275995731354,0.9999945163726807,0.895470521462956,1.0745644452269856,-0.12034423649311066,0.9999969601631165,0.9556934956743947,1.329013021581569,0.27118027210235596,0.8489489555358887,0.9113608711225215,1.3545429194526126,-0.09922445565462112,0.9938042759895325,0.937065091885935,1.5520492897131948,0.4844098687171936,0.9567174911499023,0.8809724419201537,1.620643147668922,0.020146995782852173,0.9953598380088806,1.0069810958952488,1.0151246264821747,0.023228876292705536,0.8913165926933289,0.8358806383512507,1.0998649589943477,-0.47713690996170044,0.9994521141052246,0.004549950361251831,0.9189009003692769,1.0701367001759645,172.32046386584136,170.23671999786148,1.0,-0.03093696870738651,-0.026503405415866425,-0.05337823872057891,-0.13982988256139425,101.68645329496246,1.010117843827599,61,2.033333333333333
0.9726861474837503,0.5487546134165837,-0.2553814649581909,0.9999927282333374,0.9343492397916223,0.6864665587394533,0.026655998080968857,0.9999968409538269,0.8687998017590068,0.6960957600151692,-0.3648061752319336,0.9999990463256836,0.9294660051743955,1.0621435189303974,0.12341441959142685,0.9999948143959045,0.8884386679571202,1.070934172487637,-0.12338393926620483,0.9999971985816956,0.9437855133102742,1.3230696889880993,0.3008607029914856,0.8125929236412048,0.9066128558295523,1.3484747080977761,-0.08726416528224945,0.9939497709274292,0.9306836685726918,1.5487546134165837,0.5255622267723083,0.9486936926841736,0.8770495274477506,1.6144109339882655,0.042350251227617264,0.9954275488853455,0.9783781622179267,1.0125317109204188,0.03924497216939926,0.8164478540420532,0.8450294732954285,1.09648072811778,-0.5327702760696411,0.9994572401046753,0.005109429359436035,0.9089523365657579,1.066538845709017,173.5362822233121,169.9100952452457,1.0,-0.045406134212924235,0.008823439080674301,-0.11282333133264782,0.27196993343689674,102.838247294526,1.0128546319959189,62,2.066666666666667
0.9700065700381413,0.5492073482562639,-0.2470059096813202,0.9999923706054688,0.92425123236702,0.6882608253984959,0.023214761167764664,0.9999964237213135,0.8726509949304401,0.6970146549459479,-0.3580644130706787,0.9999991059303284,0.9283761841823366,1.0674454019823898,0.12375853210687637,0.9999950528144836,0.89024078652919,1.0756566285680909,-0.12374228239059448,0.9999973773956299,0.9389417634450093,1.3251293024769217,0.31780606508255005,0.7696471214294434,0.9074716911296165,1.3496545965615994,-0.06593795865774155,0.9939091205596924,0.924894182022381,1.549207348256264,0.5487523078918457,0.9341775178909302,0.878372892698353,1.6157374872029857,0.05255356431007385,0.9953614473342896,0.9761770203373235,1.044662373851979,0.07597222924232483,0.7447541356086731,0.8565274456077353,1.0993648700785779,-0.505797803401947,0.999451756477356,0.004640698432922363,0.9093084853557634,1.0715510152752403,174.06485741355596,170.16052070610306,1.0,-0.003406819463656007,0.028963410221798134,0.30161506733438764,0.14443306787784888,101.52801192990974,1.029115706144032,63,2.1
0.9679811549988547,0.5464106869758585,-0.247467041015625,0.9999889731407166,0.9051619963034909,0.686150146562191,0.0032461904920637608,0.9999949932098389,0.8734300626395024,0.6954386204773089,-0.382790207862854,0.9999991059303284,0.9220798871841275,1.0666168051580731,0.12396968901157379,0.9999951720237732,0.8866693483223179,1.076126075082654,-0.1239684671163559,0.9999975562095642,0.9351989529756696,1.3233032227966997,0.3230772614479065,0.7151005864143372,0.8997099512716565,1.347438011408093,-0.00865934882313013,0.9915128946304321,0.9134948287206106,1.5464106869758585,0.5552629232406616,0.9053471088409424,0.8769342311323384,1.6130336097661206,0.1415242850780487,0.9939111471176147,0.9330557612071514,1.0527681696341953,0.04204638674855232,0.6714122891426086,0.873636490632081,1.0993297488498712,-0.4920172691345215,0.9993520975112915,0.0049321651458740234,0.9043746177532227,1.0713714401203636,171.5178890170688,172.34688125830561,1.0,-0.0268139250380879,0.012160272026099699,-0.18182284590168646,-0.13012691231412118,102.4857193384075,1.040054319380212,64,2.1333333333333333
0.9661319907175309,0.5479673536583157,-0.2568572759628296,0.9999860525131226,0.8783540883346324,0.6841749671861725,-0.014676747843623161,0.9999937415122986,0.8766665763060826,0.6963161677093941,-0.40708598494529724,0.9999991059303284,0.9092519527165934,1.0718038195981308,0.125712588429451,0.9999951124191284,0.8892238479503576,1.080968407502688,-0.1257336586713791,0.9999976754188538,0.9329077162352212,1.32614498014523,0.3384057581424713,0.6598157286643982,0.9023372308740294,1.3522769236202978,0.01662655547261238,0.9867244362831116,0.9029951384131054,1.5479673536583158,0.5735631585121155,0.8647851347923279,0.8785801210239421,1.615724743813684,0.18965694308280945,0.9902117848396301,0.9281189614711843,1.064438269679551,0.03668840974569321,0.6054096817970276,0.898857935952043,1.1030250136468853,-0.4953409731388092,0.999171793460846,0.006433665752410889,0.8992379003334755,1.0763861135504094,167.00635660520385,172.07996617753756,1.0,-0.05683667669783144,0.02272636589328261,-0.24313761611785437,0.08552327999318383,110.03078088690313,1.0536140408443544,65,2.1666666666666665
0.9649102842899239,0.5489122622253135,-0.25865763425827026,0.9999842643737793,0.8816410512359478,0.685815481398494,-0.012960387393832207,0.9999927282333374,0.8782544956672979,0.6970657490656074,-0.4004881978034973,0.9999991059303284,0.9116801848295261,1.073720604689218,0.12560033798217773,0.9999951124191284,0.8904802737713031,1.0832195143979428,-0.12562206387519836,0.9999977946281433,0.9332973271914934,1.3277632297374096,0.33086472749710083,0.6136814951896667,0.9039767210833509,1.354509614422532,0.012399662286043167,0.9829100966453552,0.9012773865757264,1.5489122622253135,0.5562114715576172,0.8354703187942505,0.8796063588753403,1.6144612707716859,0.177305206656456,0.9876105189323425,0.9304478231984321,1.0655399431968577,0.030563633888959885,0.546394944190979,0.903804760975168,1.1039712818736422,-0.4907011091709137,0.9989936351776123,0.005954623222351074,0.9010802293004145,1.0784700595435806,166.89772601278173,171.7961307435909,1.0,0.005913504080410405,0.006176256695772949,0.4671404196591129,-0.1232734083107057,109.70730484530105,1.0597216437218417,66,2.2
0.9638654387527513,0.5494202675653491,-0.2571652829647064,0.9999832510948181,0.8776365980993136,0.6867631939057252,-0.007656776811927557,0.9999920129776001,0.8790048466431517,0.6973982038744977,-0.3998592495918274,0.9999991059303284,0.9001455739382088,1.0741872732097195,0.12813565135002136,0.9999951720237732,0.8913710259413434,1.0836146504619888,-0.12815430760383606,0.9999979138374329,0.9278197767603377,1.328481394535231,0.3376424014568329,0.5750032663345337,0.904813235510351,1.3552899845243185,-0.006077376659959555,0.9819739460945129,0.9021033293277966,1.5494202675653492,0.5635454058647156,0.8126178979873657,0.880447572255996,1.6148713017093108,0.14587309956550598,0.9866183400154114,0.9242194696128488,1.0725811149363706,0.037494633346796036,0.4933702349662781,0.9159684582288993,1.1044198929265376,-0.4912850856781006,0.9987806677818298,0.00562596321105957,0.8957582999397761,1.078900961835854,167.14994738887435,171.80500486288395,1.0,-0.04666943835225111,-0.0011777261824608765,-0.4228154925623308,-0.059155850453434924,133.72899366931276,1.060755776168449,67,2.2333333333333334
0.9649096161057473,0.5524568645878737,-0.2452794313430786,0.9999805092811584,0.8749618812398201,0.688671214615779,0.008820607326924801,0.9999910593032837,0.8835721035800033,0.6992439282653932,-0.3917463421821594,0.9999990463256836,0.8864261742625633,1.0711831662132707,0.1336418241262436,0.9999951720237732,0.8878384111372131,1.0788562276437954,-0.1336652636528015,0.9999979734420776,0.9260788915293294,1.3207539965603168,0.34192362427711487,0.5365828275680542,0.9073460096697248,1.3550104134324439,-0.04545559361577034,0.9819169044494629,0.9044331969822199,1.5524568645878738,0.55234694480896,0.7932366132736206,0.8840753079281316,1.6193240184705198,0.06740026921033859,0.9864050149917603,0.9267092384285451,1.0836386176040638,0.051600050181150436,0.4455581307411194,0.9336624843677076,1.107123897111797,-0.462759792804718,0.998167097568512,0.005578547716140747,0.8871322926998881,1.075019696928533,165.63501642643013,170.9278621755723,1.0,-0.08246423995534746,-0.050300895327161546,-0.2687090543672848,-0.3699917035420733,171.28805089423622,1.0340501213510778,68,2.2666666666666666
0.9685924935167024,0.5624536068253163,-0.20324353873729706,0.999980092048645,0.8743988501070948,0.692996660346402,0.040788814425468445,0.9999901652336121,0.8920089630773407,0.7015357667918588,-0.36883845925331116,0.9999989867210388,0.8890520451612157,1.0741856230467024,0.13460063934326172,0.9999950528144836,0.8928536584490696,1.0795151035075048,-0.13465853035449982,0.9999979734420776,0.9329539351977232,1.3270089679184913,0.332122266292572,0.5035430192947388,0.9151182815577957,1.3604191730300745,-0.03538928180932999,0.9810436964035034,0.908749263646734,1.5624536068253163,0.5128858685493469,0.7696664929389954,0.89157200650719,1.63144775068461,0.07931563258171082,0.9853026866912842,0.9366374813622816,1.0880903192419966,0.06654635816812515,0.4036572277545929,0.9543026695415129,1.1143543024075497,-0.41017478704452515,0.9978518486022949,0.004468202590942383,0.8909528518051426,1.0768503632771036,164.27939664456449,170.5029317772388,1.0,-0.027922395761454923,-0.055588080664934786,0.42920953184112615,-0.037820963085119945,146.70047038682904,1.0000754382052768,69,2.3
0.9728287741063166,0.5744335601782723,-0.1867189109325409,0.9999813437461853,0.8744387949731734,0.6966979923987564,0.0482921376824379,0.9999896883964539,0.902307534327799,0.7051421413272937,-0.35561174154281616,0.9999989867210388,0.8950758832884109,1.0814534086608074,0.13378305733203888,0.9999949336051941,0.9007773326033702,1.0860708191983348,-0.1338617205619812,0.9999979734420776,0.9360442376904544,1.337822897015857,0.3317700922489166,0.4934813380241394,0.9211302381383967,1.3711285907851767,-0.004495761822909117,0.9810966849327087,0.9124556319562647,1.5744335601782724,0.5022986531257629,0.7608697414398193,0.8984620838409803,1.6438323612036034,0.12859667837619781,0.9849230647087097,0.9468520801938435,1.0947053608317723,0.07284212857484818,0.3678467273712158,0.9757673767352169,1.1214211825286884,-0.38170915842056274,0.9977718591690063,0.0043843090534210205,0.8979266079458906,1.0837621139295712,165.2275655213165,171.16434094062865,1.0,0.0001679199258981634,-0.011032976802114014,0.20965826142034963,0.3331997419862844,132.07306590386852,0.9797876829429092,70,2.3333333333333335
0.9774458533565056,0.5834961158803499,-0.16041859984397888,0.999982476234436,0.8690257198252601,0.6995526191155141,0.06740640103816986,0.9999889135360718,0.9102851414431326,0.7061695975800659,-0.3352268934249878,0.9999989867210388,0.9018747595646017,1.0880649297254565,0.13328880071640015,0.999994695186615,0.9079957259008458,1.092790757303881,-0.1333860605955124,0.9999979138374329,0.9423430213414544,1.3467414612848707,0.3304199278354645,0.49156540632247925,0.9261487536388994,1.380236916085152,0.011495000682771206,0.981172502040863,0.9180556324570337,1.58349611588035,0.504601240158081,0.7550241947174072,0.9040652729097298,1.65278954715207,0.1643589735031128,0.9843000769615173,0.9529571381664849,1.099378694434416,0.09825566411018372,0.33740517497062683,0.9984201629767333,1.1269440589427073,-0.35086530447006226,0.9978021383285522,0.0034155547618865967,0.9049352427327237,1.0904278435146688,165.25134116488704,171.75415930235974,1.0,0.013803723040099658,0.0023828210928665923,0.10854933562977717,0.10732166511926997,132.5036415350054,0.9703248991168887,71,2.3666666666666667
0.9802637271383817,0.6017503810451793,-0.10676566511392593,0.9999839663505554,0.8604919877527165,0.6992469641803256,0.09042318165302277,0.9999878406524658,0.9246954857763041,0.7115491343039247,-0.29152029752731323,0.9999989867210388,0.8976802725777462,1.098448999435577,0.13076771795749664,0.9999945163726807,0.9293973784837469,1.1029362984054398,-0.13099679350852966,0.9999979138374329,0.9412435587647442,1.3602119904119774,0.30169418454170227,0.4944015443325043,0.9347875093742737,1.393698868293341,0.03158164396882057,0.9810660481452942,0.9261727040844419,1.6017503810451792,0.47415074706077576,0.7477728128433228,0.9125080997045738,1.6688710837007055,0.17610016465187073,0.9834866523742676,0.9390426182696706,1.0535523537343825,0.2656383812427521,0.30732086300849915,1.026650701001354,1.1307385106845016,-0.32698753476142883,0.9976985454559326,0.006292402744293213,0.9135388255307466,1.1006926489205084,166.9809250619368,174.30910281102155,1.0,0.0021687511515929648,0.0018741410591972582,-0.08495750536457934,-0.0038322653096839205,103.37481258803155,0.9415182249635071,72,2.4
0.9779370264544689,0.609055506636545,-0.0768297016620636,0.99998539686203,0.8589494548687955,0.6996382031238043,0.09850595891475677,0.9999866485595703,0.9305601881605454,0.7135883186621086,-0.269296258687973,0.9999989867210388,0.8938302346901378,1.1021190609403657,0.12663879990577698,0.9999947547912598,0.9354222133795448,1.1065010931130432,-0.12686027586460114,0.9999980330467224,0.93564109301257,1.3663040325140525,0.2982495427131653,0.5212809443473816,0.9358538391090413,1.399435995027279,0.04158084839582443,0.9822767376899719,0.9254771803817022,1.609055506636545,0.4826732575893402,0.7605634331703186,0.9152290922634607,1.6734229421605167,0.18924105167388916,0.9843748211860657,0.9091259313191111,0.6757488960510423,0.3756580352783203,0.2842423617839813,1.0393058051645312,1.1305723617702392,-0.2747599482536316,0.9972723126411438,0.007117152214050293,0.9146262240348413,1.1043100770267045,168.60920337269647,175.61067733324003,1.0,-0.00929459770636156,0.0060574677289103405,-0.0857769518572889,0.03125178297723587,100.96749034898228,0.9298333266139469,73,2.433333333333333
0.9760745900846769,0.6130665712570034,-0.021107230335474014,0.9999862313270569,0.8565926111431701,0.7016423553778423,0.13218683004379272,0.9999837875366211,0.9370353032348174,0.7155758129944049,-0.24024415016174316,0.999998927116394,0.8923130777751377,1.106682906925035,0.12411043792963028,0.9999948143959045,0.9408103609365601,1.109667250599888,-0.1243172138929367,0.9999980926513672,0.9330188906330813,1.3717711754077337,0.28313755989074707,0.5432834625244141,0.9376605652858562,1.4032018969171525,0.040025100111961365,0.983231246471405,0.9210399333131901,1.6130665712570034,0.4501733183860779,0.766738772392273,0.91782577245135,1.6767992580254896,0.16729073226451874,0.9849472641944885,0.9153562918985166,0.7636569185486073,0.40632694959640503,0.2602952718734741,1.046533822102873,1.12896826314841,-0.2762548327445984,0.9971699714660645,0.007090151309967041,0.9165617193558488,1.1081750787624614,168.42801637747652,176.46831588180353,1.0,-0.003476586523319082,0.007574451307959347,0.04500699807808638,0.011564593583783466,98.56119793946496,0.9290288109523324,74,2.466666666666667
0.9723711044474324,0.6082757447860204,-0.013156464323401451,0.9999871253967285,0.8509555465840457,0.6996740297352018,0.13478338718414307,0.9999818801879883,0.9373730278454421,0.7142455435536792,-0.23371633887290955,0.999998927116394,0.8883244222024195,1.1055434800953856,0.12073419988155365,0.9999948740005493,0.9404611518277888,1.107164659046386,-0.1209116205573082,0.999998152256012,0.9275686911800682,1.3693181721954846,0.2834150195121765,0.5552106499671936,0.9331467498077624,1.3992234342585363,0.052884362637996674,0.9836405515670776,0.9170253632162088,1.6082757447860205,0.4616324007511139,0.7662364840507507,0.9151237483385982,1.6719584104527265,0.18732164800167084,0.9851786494255066,0.9273015704119891,0.7815951921999335,0.44081488251686096,0.23801486194133759,1.0484393203405806,1.1227136106207312,-0.2787947952747345,0.9970420002937317,0.0074360668659210205,0.9143927870151041,1.1063540695708858,169.01126098049934,177.65388193669426,1.0,0.003493181517185055,0.010464308358491473,0.054202511119994155,0.022674365340018883,97.04148298351113,0.939437705069303,75,2.5
0.9743357023247282,0.6107755152083936,-0.017693614587187767,0.9999880194664001,0.8537353862525263,0.7059412437020564,0.13491477072238922,0.9999799132347107,0.9431880193227898,0.7155121467622312,-0.23360757529735565,0.999998927116394,0.8870957033565811,1.1107502745904307,0.12035202980041504,0.9999948740005493,0.9415910457167549,1.1104535876511314,-0.12052421271800995,0.999998152256012,0.9272158264699618,1.3739078460651046,0.28201407194137573,0.5677096843719482,0.9332883740309782,1.402474844053635,0.042638443410396576,0.984215497970581,0.9184983078256854,1.6107755152083936,0.4506745934486389,0.7655423879623413,0.9165606589959756,1.6735303014057357,0.17049865424633026,0.9852529168128967,0.9148803299308512,0.7580262971557187,0.4106091558933258,0.21911019086837769,1.0560049828431066,1.1218588372668044,-0.2707942724227905,0.9970055818557739,0.004876226186752319,0.9143433745366679,1.110601931120781,169.2239014846453,178.0971493106358,1.0,-0.012037346626206428,0.01909211473776093,-0.12138759058825432,0.06727741609781973,94.39916994889894,0.9470455152599805,76,2.533333333333333
0.9758333749005538,0.6140071236153646,-0.008209839463233948,0.9999887943267822,0.8554259055553286,0.7101939255901232,0.13833491504192352,0.9999783039093018,0.946741986665392,0.717079508782719,-0.22232715785503387,0.999998927116394,0.8881537173198856,1.1147666168114017,0.11866273730993271,0.9999949336051941,0.943726052811725,1.113655174790699,-0.11884727329015732,0.9999982118606567,0.9302586837049482,1.3781326566600154,0.2783116102218628,0.5857977867126465,0.9350955841896229,1.4060026426787757,0.04114612564444542,0.9847115278244019,0.9201017260761402,1.6140071236153646,0.44501280784606934,0.7694454789161682,0.9184682075825761,1.6761722644866257,0.16844192147254944,0.9852822422981262,0.9228509654253141,0.7233104302345054,0.39894604682922363,0.20340046286582947,1.0592703625210638,1.1221475484122327,-0.24760809540748596,0.996829628944397,0.0035009682178497314,0.9159398850658053,1.1142108958010504,168.45116814229632,178.16917144575558,1.0,-0.0020799231502349,0.010557843315545908,0.07821769763944907,-0.0671785575212473,93.47909971550803,0.9489264117104405,77,2.566666666666667
0.9744709617002663,0.6119216887261749,-0.041112639009952545,0.9999892711639404,0.854624207001639,0.7141682764124568,0.12490006536245346,0.9999768137931824,0.9483861132466408,0.7162887735247496,-0.24538929760456085,0.999998927116394,0.888048395644097,1.1133979167481394,0.11912773549556732,0.999994158744812,0.9421113830903045,1.1124360502189168,-0.11929793655872345,0.9999980926513672,0.9284048728638425,1.3775538639402034,0.2767762839794159,0.592751681804657,0.933457218776103,1.4042780638463936,0.018023056909441948,0.9849090576171875,0.9187107452492692,1.611921688726175,0.41939130425453186,0.7676430940628052,0.9175059825405125,1.6741513503716212,0.11720572412014008,0.9849583506584167,0.9266017975605239,1.0298761715393823,0.2689775824546814,0.18617700040340424,1.0608163091348868,1.113857481705802,-0.27825987339019775,0.9970112442970276,0.001079469919204712,0.9150798893672007,1.1129169834835282,168.94522170248985,178.31591665245446,1.0,0.0019671983522108758,0.0004235037853115441,0.032152515006499245,-0.08046123860999671,93.76646442263171,0.9516593315658421,78,2.6
0.9726670863732519,0.6105967995988413,-0.000949334935285151,0.9999893307685852,0.8523761059270472,0.7157055124571777,0.14707259833812714,0.9999749064445496,0.9509294285723311,0.7158049012541006,-0.2215360701084137,0.9999988675117493,0.886649153802964,1.1134356688901133,0.11938659101724625,0.9999930262565613,0.9419300333288836,1.1121208586490072,-0.1195593923330307,0.9999978542327881,0.9270882264815044,1.3782949375125844,0.2697523832321167,0.5928710103034973,0.9325917568019902,1.4040388003567468,0.011963860131800175,0.9845895767211914,0.9176466417642839,1.6105967995988413,0.40574344992637634,0.7563982605934143,0.9171987194464272,1.6728728018784074,0.11893212795257568,0.9832890629768372,0.9083100616912522,1.0723943550907247,0.2549070715904236,0.17008328437805176,1.0617670661211027,1.1102120555627248,-0.2572430968284607,0.9971337914466858,5.0634145736694336e-05,0.9142895935659238,1.1127782637695602,168.99161803141934,178.55513878032517,1.0,-0.0006509983355525377,0.0052574677211609105,-0.019246370450480128,0.035557357678964376,93.56262697152816,0.9557542553413785,79,2.6333333333333333
0.9686716488021723,0.610357851182719,0.05089842528104782,0.999987781047821,0.8464096904700104,0.7194343204613781,0.16367271542549133,0.999971866607666,0.9536622354802775,0.7148869591869621,-0.18880239129066467,0.9999988079071045,0.8839671235400379,1.1130527364036662,0.11716066300868988,0.9999918341636658,0.943305038913716,1.1111909379147424,-0.11736387014389038,0.999997615814209,0.9274577169104244,1.3777526244117002,0.25861304998397827,0.5901412963867188,0.9318732197874333,1.4040816369471905,0.007411307189613581,0.9837669730186462,0.9173415009167841,1.610357851182719,0.38507986068725586,0.7397761344909668,0.916402302074613,1.6715581495240326,0.10985513031482697,0.9802234768867493,0.8934893338187624,1.0879458688547836,0.2534778416156769,0.155270054936409,1.0614233938656505,1.1073792015471384,-0.19944052398204803,0.9971765279769897,0.0023186802864074707,0.9136360812268769,1.1121218371592043,168.17930164311235,178.92486148349863,1.0,0.0010404678497424537,0.002326669855167758,0.012902210483471408,-0.022328395840597384,93.6532900935148,0.9544769098499628,80,2.6666666666666665
0.9679258528823376,0.6102883316530299,0.06673240661621094,0.9999846816062927,0.8447868968244983,0.7203900657507245,0.16526904702186584,0.999968945980072,0.9566974436222592,0.7146200660435525,-0.17970407009124756,0.9999986886978149,0.8830595897028075,1.1144178802131952,0.11510150134563446,0.9999909400939941,0.9444122814098043,1.1124534185578092,-0.11530573666095734,0.9999974370002747,0.9276216576607896,1.37778503061515,0.26364338397979736,0.5873706936836243,0.9319556890862144,1.4057880486735266,0.008572778664529324,0.9829963445663452,0.9175098528477359,1.6102883316530299,0.4047067165374756,0.7266455292701721,0.9166179837492672,1.6716585579775993,0.11995746195316315,0.9773844480514526,0.8874419582240074,1.0898256959650447,0.25177001953125,0.14204996824264526,1.0623440405358275,1.1069111935329057,-0.1893051713705063,0.997148334980011,0.0029420554637908936,0.913735935556306,1.1134356493855022,167.9061541517711,179.12997548719713,1.0,0.000644989313731969,0.009674839705979535,-0.0029488682761110606,0.05478894490791359,93.71391144813448,0.9592585323034019,81,2.7
0.9659514012310878,0.6101860952726663,0.08177002519369125,0.9999798536300659,0.8437715674901879,0.721311741804171,0.1585972011089325,0.9999671578407288,0.9607868065924952,0.7141870281894604,-0.17717841267585754,0.9999985694885254,0.8825498673545467,1.1155691596179134,0.11361739784479141,0.9999902844429016,0.9458475119442284,1.112941677794739,-0.11380545794963837,0.9999972581863403,0.9283923230768016,1.3762825779250025,0.26710084080696106,0.5942504405975342,0.9343168708006688,1.4056698076619007,0.009676637127995491,0.9830659627914429,0.9179129669296779,1.6101860952726663,0.4168970584869385,0.7262727618217468,0.9169602928750819,1.6718061847824086,0.11490403115749359,0.9767507314682007,0.8866026192398891,1.0941569655887562,0.23442471027374268,0.1313742846250534,1.0621400327982213,1.1068795891425085,-0.1824418157339096,0.9970494508743286,0.0036325156688690186,0.9141986896493876,1.114255418706326,167.46210680767678,178.5243637690666,1.0,0.0030192748713663686,0.005664400021534502,0.018420647877065717,-0.03112130679790727,93.24043951769922,0.9619678130788398,82,2.7333333333333334
0.9637885260011083,0.6071748471388828,0.0808856338262558,0.9999754428863525,0.8430788233502073,0.7210443477131342,0.15441928803920746,0.9999657273292542,0.9612505945767128,0.7134052050810727,-0.18013672530651093,0.9999984502792358,0.8821250498790287,1.1146626589003346,0.11280615627765656,0.9999901056289673,0.948310198964759,1.1120782944222396,-0.11298507452011108,0.9999972581863403,0.9281329637067571,1.3710873581543217,0.2785876393318176,0.6087883710861206,0.9385317482938335,1.402382769096776,0.01010903436690569,0.9837009310722351,0.9173835073531267,1.607174847138883,0.42145347595214844,0.734498143196106,0.9173959479071367,1.6704309174283634,0.11480776220560074,0.9773954153060913,0.8884567662129038,1.086966714918105,0.2325020283460617,0.1216903105378151,1.0597214343853643,1.1063144046897033,-0.19378453493118286,0.9968889951705933,0.003897935152053833,0.9152176244218939,1.113370476661287,167.22120443710867,177.4207015558625,1.0,0.012862495867437781,9.116721693640076e-05,0.07215118773042659,-0.04080849028100902,93.42898360056454,0.9678015685164002,83,2.7666666666666666
0.9580155936506048,0.5989546782781006,0.0971624106168747,0.9999756217002869,0.8387371799111617,0.7168329188425088,0.18136705458164215,0.999965250492096,0.9568508344624475,0.7090977053407792,-0.16406871378421783,0.9999983906745911,0.8774536057624048,1.106557812570863,0.1133936196565628,0.9999890923500061,0.9464051082163952,1.1025730795221362,-0.11357368528842926,0.9999970197677612,0.9229714866277132,1.3614513487148365,0.2485378235578537,0.6038170456886292,0.9469409160252061,1.3900105378826342,0.0033848793245851994,0.9822564721107483,0.9122566660513229,1.5989546782781006,0.34098362922668457,0.7216734886169434,0.9136927842825683,1.6595425965465918,0.08057072758674622,0.9737111330032349,0.8875906923093316,1.0680184408010185,0.24520137906074524,0.11214449256658554,1.0514023014243243,1.1023272130148745,-0.1775132417678833,0.9967816472053528,0.003969848155975342,0.9119293569894,1.1045654460464998,167.29195846141627,172.8609988526078,1.0,0.014948231592412903,-0.0179199875950438,0.01623008142445412,-0.1353363676017826,92.3658522861179,0.9676389681215369,84,2.8
0.9542994131619312,0.5968267746969471,0.11270936578512192,0.9999728798866272,0.8363202176058374,0.7155693754784321,0.18320223689079285,0.9999638199806213,0.9556985065095739,0.7075196631606274,-0.15841324627399445,0.9999982714653015,0.8755972831721127,1.1037112712661437,0.11376426368951797,0.9999886751174927,0.9470364590606998,1.0991461381511964,-0.1139461025595665,0.9999969005584717,0.9213033171098616,1.3550599209938754,0.24193520843982697,0.6142277717590332,0.9617428169270361,1.3829229948154043,-0.007755813654512167,0.9825572371482849,0.9095731038443196,1.5968267746969471,0.32305431365966797,0.726343035697937,0.9168661328895299,1.648519402974696,0.04263128712773323,0.9737602472305298,0.88740033690891,1.0603594274518757,0.24842920899391174,0.10299820452928543,1.0478050216464265,1.1038184748236792,-0.17392009496688843,0.9965855479240417,0.004139930009841919,0.9113168711164062,1.10142870470867,166.91602951922894,167.4429371881054,1.0,0.010168322709434524,-0.006437192402706033,-0.03718460522838204,0.0896239475864897,92.12187135708132,0.9715673172304772,85,2.8333333333333335
0.946470588877664,0.5918563161420991,0.12712666392326355,0.9999707341194153,0.8285882096872262,0.7104537442764042,0.20525839924812317,0.999960720539093,0.9490309365428403,0.7004865103122864,-0.14172430336475372,0.999998152256012,0.8677542238667026,1.0936971605355286,0.11438628286123276,0.9999884963035583,0.9403704012153935,1.0855967210169386,-0.11459267139434814,0.9999969005584717,0.913887554027405,1.3442732775559523,0.23270687460899353,0.6167197227478027,0.9717007641155208,1.3684171140679802,-0.032674454152584076,0.9826034307479858,0.8998127400559429,1.591856316142099,0.30195096135139465,0.7265254855155945,0.9197014577262156,1.6302180223945213,0.0034585532266646624,0.9731113910675049,0.8802568612598713,1.0514212783185333,0.26689413189888,0.09383247792720795,1.0384665984895862,1.0955338379770707,-0.1620294600725174,0.9961328506469727,0.005168259143829346,0.9040623125410481,1.0896469407762337,166.3144504689173,162.4446733940196,1.0,0.0014456332216269954,-0.022607613514118552,-0.06981831608636055,-0.13109844040460808,89.47003985082095,0.9581348681965534,86,2.8666666666666667
0.934900339535862,0.5872608760749937,0.17191393673419952,0.999951958656311,0.8200929387980854,0.7076225105963949,0.2213914394378662,0.9999545812606812,0.9418102441426702,0.692380486179621,-0.11542145162820816,0.9999979734420776,0.859696872117882,1.0835118295169448,0.11457226425409317,0.9999884963035583,0.9328555811477949,1.0723525420978663,-0.11477366834878922,0.9999969005584717,0.9059607128361602,1.3338059807445177,0.21542756259441376,0.6141719818115234,0.9783545033339418,1.3488131057789008,-0.05324515700340271,0.9814524054527283,0.8921568560424006,1.5872608760749938,0.25833815336227417,0.7249382138252258,0.9160310766812312,1.6055066841778658,-0.03439689800143242,0.9701411724090576,0.8726398679686576,1.0487379470922042,0.28900477290153503,0.08484293520450592,1.0292468247278004,1.086855570664776,-0.12863366305828094,0.9942201375961304,0.007973045110702515,0.8962762266328385,1.0779321858074056,166.41035615265764,157.0072826760592,1.0,0.0008410446325542099,-0.016114055041051085,-0.004350784841327054,0.04627462200117215,87.34174973143689,0.949233045448931,87,2.9
0.9293506745338105,0.585373029625992,0.17985054850578308,0.9999319314956665,0.8161174801487411,0.7072824629383467,0.22912314534187317,0.9999484419822693,0.93875617755716,0.6885039266560247,-0.10828997194766998,0.9999977946281433,0.8562637325958231,1.0789095313460664,0.11460886150598526,0.9999884963035583,0.9297718164602292,1.0662305424795058,-0.11479531228542328,0.9999969005584717,0.9026709730353933,1.3293331567553373,0.21435952186584473,0.6093181371688843,0.9773909965316956,1.3403130459937052,-0.05763009190559387,0.9802494645118713,0.8890834551848281,1.585373029625992,0.2568185329437256,0.7222902178764343,0.9143187062910566,1.595912874085603,-0.04035847634077072,0.9672079086303711,0.8693299177260447,1.0473900184651916,0.29595881700515747,0.07672467082738876,1.0253640516226112,1.0835825662114977,-0.1233016699552536,0.9922010898590088,0.009858906269073486,0.8930177745280261,1.0725700369127862,166.4636133830274,156.2823064888332,1.0,5.6604219706740325e-05,-0.010793677095173593,-0.0058804386347053525,0.03959793600538094,86.37932808522315,0.9428778860453325,88,2.933333333333333
0.9243197943526668,0.5824439315618822,0.16882020235061646,0.999932587146759,0.8129518463630955,0.7045516132771291,0.22813045978546143,0.9999467730522156,0.9351052478307277,0.6850404687625302,-0.1131790429353714,0.9999977946281433,0.8524598724401954,1.0736004937959314,0.11498166620731354,0.9999887347221375,0.9259995572700368,1.0604221283827602,-0.11518935114145279,0.9999969601631165,0.8994388677460936,1.323604916009311,0.21368560194969177,0.6197221875190735,0.9807819366175036,1.3311312123550256,-0.06286578625440598,0.9809494018554688,0.88691527248266,1.5824439315618823,0.24815289676189423,0.7310150265693665,0.9139199917896593,1.5906561937351054,-0.05726301670074463,0.9677644371986389,0.8657907123798635,1.0429352555748286,0.2946400046348572,0.06962297111749649,1.0205980200125924,1.079777351022413,-0.12096184492111206,0.9918488264083862,0.010289102792739868,0.8892297148551161,1.0670113110893458,166.5874829469564,154.11270730272477,1.0,0.0012889621130161037,-0.006234705817541201,0.009507332235869333,0.03479543746343695,85.95083968597547,0.9349097917911111,89,2.966666666666667
0.9258443432265017,0.5841287379396711,0.16597621142864227,0.9999294281005859,0.8135450168365749,0.7060960133357574,0.22661884129047394,0.9999452233314514,0.9369162735228668,0.6855509570141534,-0.11493076384067535,0.9999976754188538,0.8529292404517224,1.074332094891237,0.11531172692775726,0.999988853931427,0.927515951555829,1.0605733158362234,-0.11553685367107391,0.9999969601631165,0.9001669119301696,1.3256328098191688,0.21722248196601868,0.625958263874054,0.9849505469807925,1.3297614278329632,-0.0568762943148613,0.9810988306999207,0.8890992242945388,1.5841287379396711,0.25799623131752014,0.7347757816314697,0.9213268712142031,1.5935690540552312,-0.05178278684616089,0.9674517512321472,0.8668143942278091,1.044231491788528,0.29437685012817383,0.06335557252168655,1.0209444886875392,1.08071690331474,-0.12681688368320465,0.9909548759460449,0.010823816061019897,0.8902225960037756,1.0674527053637302,166.90252130458487,154.3964914266017,1.0,0.0010173916109294365,-0.0046926686271760625,-0.002151128153290446,0.012206274563075202,85.65310883129057,0.9291071752241006,90,3.0
0.9252933013150827,0.5837762854136256,0.14169146120548248,0.999933660030365,0.8141332290001329,0.7061604763533419,0.22015157341957092,0.9999464154243469,0.9374551964430134,0.6860204640352638,-0.12999388575553894,0.9999977350234985,0.8532969419612997,1.0743778091702907,0.11536292731761932,0.9999892115592957,0.9292854156627011,1.0598905995318586,-0.11558681726455688,0.999997079372406,0.8999565856786611,1.3261073085225843,0.21689745783805847,0.6477599143981934,0.9884200559678055,1.3289610418712794,-0.052418798208236694,0.9823694825172424,0.8910411446894303,1.5837762854136255,0.26168352365493774,0.7511208653450012,0.933446105692369,1.5943241773178505,-0.04020288959145546,0.9695401787757874,0.8678896882385443,1.0428912217736177,0.2730565667152405,0.05879521369934082,1.0196308334033137,1.081093674207434,-0.1444932520389557,0.9912413954734802,0.010606825351715088,0.8912911788120004,1.0671342043510748,167.51738086215107,155.900825470678,1.0,0.006060369436912234,-0.005383365674504658,0.039873563583409405,-0.0054489482446144115,85.27725998385856,0.9276600404922759,91,3.033333333333333
0.9181097165171407,0.5839041114271988,0.1291736662387848,0.9999374747276306,0.8130680531862788,0.705007131041957,0.1713722050189972,0.9999480843544006,0.9364157845781803,0.6849705500933734,-0.14510545134544373,0.9999977946281433,0.8520244526120891,1.0731134773839779,0.11107823997735977,0.9999895691871643,0.9300752224216705,1.0585955652563364,-0.11129319667816162,0.9999971985816956,0.8979019996014549,1.324476788081298,0.20682883262634277,0.6764958500862122,0.9938020982320451,1.3237485138601206,-0.04939817264676094,0.9837310910224915,0.8896415393603967,1.5839041114271988,0.248155876994133,0.7723134160041809,0.9517684153515686,1.5901760835988747,-0.028360778465867043,0.9719324707984924,0.867547823858433,1.0453971345997093,0.24300292134284973,0.055573735386133194,1.0168330783620236,1.0798059163325353,-0.15097716450691223,0.991711437702179,0.010568946599960327,0.8910498375168798,1.0658545213201571,167.83277079275223,157.52031662291844,1.0,0.009409837877856557,0.003215959521595647,0.027294069418540103,0.06980679736095444,85.50413968457536,0.9246768151631443,92,3.066666666666667
0.9188299959491681,0.5844080427568094,0.1266995519399643,0.9999418258666992,0.8129935274249109,0.7047733892605337,0.17760756611824036,0.9999500513076782,0.9373061047690509,0.6855793607436041,-0.14537806808948517,0.9999978542327881,0.8519094184070904,1.0725957528008556,0.11086106300354004,0.9999901056289673,0.9318455315190134,1.0578706317631197,-0.11107686907052994,0.9999973177909851,0.8968230372855597,1.3242345998203535,0.20168891549110413,0.7035203576087952,0.9962730200761619,1.3208887517083003,-0.04516000300645828,0.9850981831550598,0.8898840883654134,1.5844080427568095,0.23587456345558167,0.7922530174255371,0.9722436959177094,1.587000439541519,-0.01992717944085598,0.9743520617485046,0.8700333178233154,1.0497994722451365,0.2465929090976715,0.053491972386837006,1.0162300465746803,1.079384610239764,-0.14487949013710022,0.9921315312385559,0.010126322507858276,0.8918774749630519,1.0652331922819875,168.3524150308034,161.07646042676427,1.0,0.007438885812966292,-0.0032499076910027925,-0.014846731948052645,-0.04874311770859809,85.60196152082287,0.9226623635352215,93,3.1
0.9216780322184088,0.590353843043835,0.14863494038581848,0.9999451041221619,0.815103547037416,0.7074894295555685,0.18754781782627106,0.9999518990516663,0.9437267307244753,0.6893275175834325,-0.12505647540092468,0.9999979138374329,0.8549066284486659,1.0743884091190927,0.10811742395162582,0.9999902248382568,0.9355891731016094,1.0576037834461773,-0.10834117233753204,0.9999973177909851,0.8985996107607606,1.3274790785324424,0.17511306703090668,0.7249280214309692,1.0027372453934267,1.3238892893524326,-0.043755970895290375,0.9860459566116333,0.8923802200328538,1.590353843043835,0.18494972586631775,0.8074448108673096,0.9880959836558024,1.590552143278998,-0.028706301003694534,0.9759972095489502,0.8721346267204754,1.0568264374643617,0.25287288427352905,0.052093811333179474,1.0186013774561737,1.0819658336962044,-0.10837008059024811,0.9924944043159485,0.009558826684951782,0.8952479007751376,1.065996096282635,168.84982079087462,162.70433069364873,1.0,0.00930633107010875,-0.013635711286134554,0.01403112368470036,-0.07872924436755331,84.43973439196942,0.9049954374637051,94,3.1333333333333333
0.9250701197532331,0.5975386929802983,0.18534603714942932,0.9999483227729797,0.8189853670286893,0.7120831517728353,0.22192338109016418,0.9999532699584961,0.9536727297930977,0.6976317504287858,-0.0885116383433342,0.9999979734420776,0.8588324755724198,1.0763660782307496,0.10610193014144897,0.9999902844429016,0.9399259630849396,1.0592036259454165,-0.10633867979049683,0.9999973177909851,0.9018646144791255,1.3319325100570787,0.16191354393959045,0.7454891800880432,1.010098607944652,1.329030799288491,-0.04935320466756821,0.9869353771209717,0.8953187217610696,1.5975386929802984,0.14850535988807678,0.8209447860717773,1.016563884960996,1.5994876727286569,-0.06658150255680084,0.9774693250656128,0.8758965301161287,1.0641668034880067,0.2820654511451721,0.04940447583794594,1.022000530620616,1.0844236715878794,-0.07129544019699097,0.9926942586898804,0.007580935955047607,0.8993792193286797,1.067784852088083,169.03044582224706,166.791683246536,1.0,0.00889988938613765,-0.013046792019617743,-0.003301613437662045,0.00478768436867531,84.29285539273971,0.8823606215972779,95,3.1666666666666665
0.9291597169609555,0.5982250379109751,0.2167198657989502,0.999945878982544,0.8221571374735809,0.7175732290142487,0.21236546337604523,0.9999545216560364,0.9709756633347316,0.698037966646758,-0.06421183794736862,0.9999980330467224,0.8665147554968853,1.076781218743384,0.09710048884153366,0.9999905228614807,0.9521565113816518,1.0605794836214408,-0.0973149910569191,0.9999973773956299,0.9027500107049778,1.3336642920097306,0.1817624270915985,0.7640255689620972,1.0171365512183856,1.3305718186867344,-0.03995624929666519,0.9877324104309082,0.8964646391410269,1.5982250379109753,0.200147345662117,0.8335368633270264,1.0484719689089914,1.6053407631850212,-0.0400664284825325,0.9787079691886902,0.8773670156006073,1.0665079657261014,0.27808815240859985,0.046587493270635605,1.0295600120487156,1.0851630031190296,-0.03154870867729187,0.992180347442627,0.010238081216812134,0.9093356334392686,1.0686803511824123,170.6100154823205,172.97383972957272,1.0,0.06652517692066635,-0.0008900843261559356,0.4212237990415694,0.0889658803090069,86.32702890373915,0.8771362974948811,96,3.2
0.9245627046581207,0.5977242793142701,0.22321343421936035,0.9999440908432007,0.8241638780915257,0.7215611820560058,0.2082878053188324,0.9999552369117737,0.9816122637449143,0.6961499268096758,-0.05738861486315727,0.9999980926513672,0.871585624320602,1.0753914074565027,0.0926520973443985,0.9999908208847046,0.9581160742874257,1.0601702764662644,-0.09285619109869003,0.9999974370002747,0.903510002450197,1.3337175709262092,0.18542291224002838,0.7819949388504028,1.0215743001912678,1.331460705782971,-0.033193979412317276,0.9885364174842834,0.8969980736754735,1.59772427931427,0.20603792369365692,0.8456488251686096,1.0590262067589842,1.6092174034382707,-0.03201459348201752,0.9799502491950989,0.8822130197520905,1.064474753446439,0.28819340467453003,0.04406473785638809,1.0383876896279902,1.084836692294321,-0.02057158760726452,0.9918540120124817,0.013318389654159546,0.9148508493040138,1.0677808419613835,171.54205376944557,174.51379157610342,1.0,0.04144175723642019,-0.006211187012506341,-0.18658723461641308,-0.03958866993471551,87.65697693746505,0.871625139036283,97,3.2333333333333334
0.9076032375017914,0.5955695849142727,0.22562703490257263,0.9999414086341858,0.8245350846844272,0.7238804694244683,0.20764577388763428,0.9999551773071289,0.9828549954522225,0.6947427715387801,-0.052390582859516144,0.9999982118606567,0.8722298048491411,1.0735632326237157,0.08926572650671005,0.9999911189079285,0.9587018184236874,1.0587236129931987,-0.08946474641561508,0.9999975562095642,0.9030441566384856,1.3335472840200477,0.18665188550949097,0.7960330843925476,1.022599724639786,1.3317471445961482,-0.022588638588786125,0.9891729950904846,0.8971207709404376,1.5955695849142728,0.2145605981349945,0.8553541302680969,1.058884814422109,1.6106681038094033,-0.011854358948767185,0.9809041619300842,0.8838553928892903,1.0627677353806406,0.2890527546405792,0.04120749980211258,1.0402530419385567,1.0836933621647977,-0.018110578879714012,0.9915940165519714,0.015287935733795166,0.9154658116364143,1.0661434228084572,171.9455769344241,174.23972490438697,1.0,0.011745910134661702,-0.0035770536294241996,-0.21763268197973556,0.01928479655961665,88.0291104678347,0.8705766545398632,98,3.2666666666666666
0.9060436716959027,0.5920424808877445,0.20905539393424988,0.9999418258666992,0.8254375919530257,0.7244564252138633,0.19403629004955292,0.9999557733535767,0.9852186388063892,0.6912418571278508,-0.06474945694208145,0.9999982714653015,0.8741329495415593,1.0709949211799625,0.08854370564222336,0.9999913573265076,0.9607598496631627,1.0565545440419597,-0.08875070512294769,0.999997615814209,0.9023316790173945,1.333309901899199,0.18122044205665588,0.810796320438385,1.02308697315625,1.3308933651872343,-0.015206584706902504,0.9897258877754211,0.8941368372699938,1.5920424808877445,0.2049913853406906,0.8652986288070679,1.0610129034829183,1.6095126558372248,0.00402562553063035,0.9817798733711243,0.8851689849519739,1.061849065547793,0.28543418645858765,0.03966500982642174,1.045003602866443,1.081570925732312,-0.04300587624311447,0.9916394352912903,0.017461448907852173,0.917446399602361,1.063774732610961,172.050171123202,174.95173999787306,1.0,0.029741258323372502,-0.002075711694097451,0.14148897064855706,0.011733717119076264,88.53482185010658,0.8732503452125382,99,3.3
0.9036216202905799,0.5862994849009167,0.1962549090385437,0.9999366998672485,0.82724780623726,0.7225764126142233,0.15471108257770538,0.9999538660049438,0.9914609128104268,0.6890489428845684,-0.07351067662239075,0.9999983310699463,0.8764799130334007,1.0684362706925767,0.08145398646593094,0.9999914765357971,0.964216303210169,1.0553963637858754,-0.08164212852716446,0.9999976754188538,0.8997009958371428,1.3315203996270666,0.19030682742595673,0.8224390149116516,1.0202464595833256,1.332713208345956,0.011425366625189781,0.989806056022644,0.8887647697619375,1.5862994849009167,0.2517566978931427,0.873055100440979,1.0574332879930475,1.605634168728667,0.07028690725564957,0.9817548990249634,0.8893939876566889,1.0555488535368698,0.25867754220962524,0.036678750067949295,1.0545726932197634,1.0778944757368474,-0.037004776298999786,0.9911927580833435,0.017691880464553833,0.9203481081217849,1.061916317239226,172.49799307367473,176.33656487627798,1.0,0.04916653577461781,0.016381889508213624,0.1519612875910474,0.143511902353126,89.64769792353168,0.886815780087637,100,3.3333333333333335
0.9004588581787314,0.5753626037038904,0.1955289989709854,0.9999305009841919,0.8268077257721546,0.7176850836686248,0.10711892694234848,0.9999541640281677,0.9921729079363932,0.6845006245217304,-0.06941340863704681,0.9999983310699463,0.878499232804212,1.0622707715635673,0.06466324627399445,0.999991238117218,0.9691733110383135,1.0504082824142607,-0.06485015153884888,0.999997615814209,0.8951248016342297,1.323203325574005,0.18666315078735352,0.8339224457740784,1.0149030967005699,1.3270839252360997,0.028204280883073807,0.9890567660331726,0.882478222561876,1.5753626037038904,0.24482671916484833,0.8800967335700989,1.0495076734733007,1.5971323524707026,0.08528555184602737,0.9808306097984314,0.8831191332870925,1.0389639371394492,0.21444959938526154,0.034708306193351746,1.0585518167818144,1.0711125220114865,-0.02034923806786537,0.9908677339553833,0.017620384693145752,0.9238362719212628,1.056339526988914,173.48311504046004,177.91703710429084,1.0,0.06958931050652876,0.00772905849421662,0.1566567879734326,-0.06462536084768952,91.07793627517192,0.9058674495174803,101,3.3666666666666667
0.9214363281885759,0.5741094838102588,0.19127312302589417,0.9999298453330994,0.835068023653342,0.7147546167038127,0.0906030684709549,0.9999558925628662,1.0030055389834995,0.6860937834831836,-0.053058695048093796,0.9999983906745911,0.8841779748421762,1.0626723511129759,0.05137661099433899,0.9999910593032837,0.9780316349890662,1.051867456713305,-0.05156416445970535,0.9999975562095642,0.8969378310142092,1.3234982284246681,0.16135497391223907,0.8475940227508545,1.0162941364676947,1.3289501363482255,0.032598622143268585,0.9886485934257507,0.882227953528029,1.5741094838102587,0.20594274997711182,0.8883597254753113,1.0535963925223246,1.5991394170921778,0.0863235667347908,0.9801863431930542,0.8827908850567027,1.0310133334545992,0.2135804444551468,0.033561285585165024,1.0700855086648058,1.0714380713843439,0.00024280005891341716,0.990879237651825,0.015214383602142334,0.9311048049156212,1.0572699039131404,173.84008875028042,179.99826616039738,1.0,0.05357126852970895,0.004960758601005369,-0.12231415327845437,-0.021130116562041015,91.46718392600762,0.91071558551113,102,3.4
0.9291681840745567,0.5696980461015597,0.19400383532047272,0.9999253749847412,0.8435169611651899,0.7070229745826241,0.08807855099439621,0.9999572038650513,1.016110781794691,0.686659939647319,-0.04136122390627861,0.9999983906745911,0.8893393364790833,1.060103023124736,0.047751858830451965,0.9999909996986389,0.9860955759669483,1.050672944720037,-0.04793236404657364,0.9999974966049194,0.897701421190223,1.320761277468818,0.15733544528484344,0.859612226486206,1.0155331396280456,1.3281319018714262,0.0373668447136879,0.9881449341773987,0.8796794338098274,1.5696980461015597,0.20093297958374023,0.8957926630973816,1.051563443710984,1.5974746224035516,0.09111501276493073,0.9793358445167542,0.8788754971028248,1.023258865490615,0.18854781985282898,0.03283468633890152,1.0781411463871873,1.0692017556736115,-0.010530868545174599,0.99028080701828,0.010831594467163086,0.9377174562230158,1.0553879839223863,174.02179239535366,178.43696132586152,1.0,0.06710068690518786,0.002120001811778795,0.1075794868863195,-0.022328259495257713,91.82786668258294,0.9183804057019164,103,3.433333333333333
0.9859437419845795,0.5739697132839915,0.19145748019218445,0.9999311566352844,0.8589491423060265,0.7098975686592799,0.08769948780536652,0.9999609589576721,1.0366866696291652,0.6979279865207256,-0.040481362491846085,0.9999984502792358,0.9001441192669252,1.0650059789373674,0.04934768006205559,0.9999908208847046,0.9957750343553202,1.056996201003741,-0.049498289823532104,0.9999973177909851,0.9049022783564719,1.3268109960664811,0.13345126807689667,0.8718529343605042,1.0240989590823422,1.3361586826018692,0.026109954342246056,0.9884387254714966,0.8837497013345597,1.5739697132839916,0.15001259744167328,0.9029858112335205,1.0569902347306326,1.6057779415063207,0.07359784096479416,0.979123592376709,0.8699360342351505,1.0153670369602177,0.14773786067962646,0.07361727952957153,1.0920245281367469,1.0718158605490604,-0.018409058451652527,0.9907993078231812,0.00633770227432251,0.9479595768111228,1.0610010899705542,174.06717263473791,178.83818962164483,1.0,0.044879593239826696,0.005677045388525547,-0.17079623726658774,0.026890865967232128,91.82936093111942,0.922850789973112,104,3.466666666666667
0.9777310619073379,0.5702350551484482,0.15506719052791595,0.9999373555183411,0.8625818568102295,0.7068059787379775,0.04610251635313034,0.9999645352363586,1.046395380452025,0.6980625129921417,-0.06332613527774811,0.9999985098838806,0.9041210540247367,1.0625506139029142,0.048478566110134125,0.9999911189079285,1.0015687712878805,1.0551705720113638,-0.0486292764544487,0.9999973177909851,0.9056465883632412,1.3236460854669831,0.14936628937721252,0.8832993507385254,1.0288445481182886,1.335511202805887,0.029759977012872696,0.9888421297073364,0.8816706892003422,1.570235055148448,0.1831115186214447,0.9110322594642639,1.0549085673285215,1.6054456544675955,0.0891413539648056,0.9796356558799744,0.8611498715076478,1.0079477374216694,0.10047783702611923,0.13698561489582062,1.10081812169483,1.0677010891556002,-0.09075828641653061,0.9914528727531433,0.004640549421310425,0.9528449126563086,1.0588605929571389,174.1118099336036,179.95809339073784,1.0,0.05682557823227627,0.00302574996342502,0.0959597646222392,-0.02100156712069484,92.32915688779559,0.9245130938067797,105,3.5
0.9786901132075303,0.5669148063475477,0.14515849947929382,0.9999431371688843,0.8693216564619566,0.7042271500484361,0.026912111788988113,0.9999678730964661,1.0567162884387171,0.6989224155684296,-0.08050300180912018,0.9999985694885254,0.9091282912018145,1.061691634457709,0.047281596809625626,0.9999915957450867,1.0101129206182216,1.0545007895964802,-0.04739589989185333,0.9999973773956299,0.9058993540612706,1.3219806949670643,0.17946332693099976,0.8934279084205627,1.0315556723377184,1.3363557722637993,0.05365561693906784,0.9892252683639526,0.8802739068469483,1.5669148063475475,0.25539499521255493,0.9184290170669556,1.053006269308073,1.6029853645164123,0.14032480120658875,0.980221688747406,0.8579596037946582,1.0250101553970479,0.04764582961797714,0.20900705456733704,1.1049222168594328,1.059776160423276,-0.11937607824802399,0.9920309782028198,0.002821207046508789,0.959620605910018,1.0580962120270945,174.7380699404407,179.75093289558066,1.0,0.06974317516289968,0.011141080861903083,0.10428287413824389,0.06498199197397692,92.281176943625,0.9329077558726971,106,3.533333333333333
0.9702597036811845,0.5614453589534957,0.15634627640247345,0.9999484419822693,0.8713140094242616,0.7018672489024401,0.026943305507302284,0.9999709129333496,1.0605072917318645,0.6970442444049034,-0.05928768590092659,0.9999986290931702,0.9144514659465839,1.0586844705335348,0.03784867376089096,0.9999920129776001,1.0152819007680685,1.0515734672162662,-0.037967536598443985,0.9999974370002747,0.9060096433265676,1.3172062071370452,0.1613626480102539,0.9029442667961121,1.029892524074786,1.3325614275878719,0.04492064192891121,0.9897909760475159,0.880004627187296,1.5614453589534956,0.2218507081270218,0.925415575504303,1.0493349815359578,1.5982359686692478,0.10240335762500763,0.9812363982200623,0.8518438894303418,1.0318477901268788,0.020522940903902054,0.28504645824432373,1.1103897119967097,1.0541482622341043,-0.11410387605428696,0.9926737546920776,0.0025720596313476562,0.9648666833573262,1.0551289688749006,175.79269457667465,178.79101785491105,1.0,0.0550586906243169,-0.00046799281530783115,-0.10131257598887265,-0.08093740093285902,92.85925614482711,0.9409191208729187,107,3.566666666666667
0.9910470701853741,0.5650968208293993,0.13373669981956482,0.9999530911445618,0.889129028615999,0.705521209539536,0.0018445955356583,0.999973714351654,1.0801524159438485,0.70269023092248,-0.07750067859888077,0.9999986290931702,0.9320018042154137,1.0657186926342939,0.04021522402763367,0.9999922513961792,1.0330355620709029,1.0618122581390987,-0.04033274203538895,0.9999972581863403,0.915865524101862,1.32225183266633,0.16368988156318665,0.9090448617935181,1.0400278526597895,1.3404764999930279,0.03858080878853798,0.9891945719718933,0.8866891657561624,1.5650968208293994,0.22001966834068298,0.929924726486206,1.0562533089652548,1.6079061160248604,0.08994823694229126,0.9805964231491089,0.8495532418975614,1.0477981015029731,-0.018379654735326767,0.35536274313926697,1.130657627746863,1.060771157023418,-0.164541557431221,0.9931160807609558,0.0015005171298980713,0.9825186831431583,1.0637654753866963,176.74833538743115,177.9653874918073,1.0,0.09004722490996388,0.01656047369594837,0.266080639707968,0.1307837732467481,94.57352098697281,0.9538819636696466,108,3.6
