nose_x,nose_y,nose_z,nose_visibility,left_shoulder_x,left_shoulder_y,left_shoulder_z,left_shoulder_visibility,right_shoulder_x,right_shoulder_y,right_shoulder_z,right_shoulder_visibility,left_hip_x,left_hip_y,left_hip_z,left_hip_visibility,right_hip_x,right_hip_y,right_hip_z,right_hip_visibility,left_knee_x,left_knee_y,left_knee_z,left_knee_visibility,right_knee_x,right_knee_y,right_knee_z,right_knee_visibility,left_ankle_x,left_ankle_y,left_ankle_z,left_ankle_visibility,right_ankle_x,right_ankle_y,right_ankle_z,right_ankle_visibility,left_wrist_x,left_wrist_y,left_wrist_z,left_wrist_visibility,right_wrist_x,right_wrist_y,right_wrist_z,right_wrist_visibility,trunk_lateral_inclination,center_mass_x,center_mass_y,left_knee_angle,right_knee_angle,person_height,center_mass_velocity_x,center_mass_velocity_y,center_mass_acceleration_x,center_mass_acceleration_y,body_orientation,torso_leg_ratio,frame,timestamp
0.7607605290869436,0.42444485424803474,0.20226478576660156,0.999999463558197,0.6874394725456744,0.5694631154505766,0.024290017783641815,0.9999987483024597,0.8567281297842199,0.5562987883748699,-0.02482006512582302,0.9999967217445374,0.7321695395794822,0.8841655726889737,0.026688355952501297,0.9999821782112122,0.8185278387329697,0.8775223946942886,-0.026841431856155396,0.9999818801879883,0.7399635276866027,1.1589696770904374,0.13158580660820007,0.9955096244812012,0.8193009204254602,1.1563713100052022,0.03645072504878044,0.9716997742652893,0.7488269269158586,1.4267184602335088,0.19668619334697723,0.9929554462432861,0.8260054143547189,1.4244448542480348,0.14472249150276184,0.9777272343635559,0.639213098567823,0.8936179666634262,0.08617959916591644,0.9962577819824219,0.9107371715191287,0.8948906665459518,-0.045666832476854324,0.992900550365448,0.008458763360977173,0.7753486891562259,0.8808439836916311,179.72859252053973,178.72618325339872,1.0,0.13678908469366913,0.08179925864459048,0.7887965118857244,0.3351377952338909,93.69066197279608,0.8380527523527428,0,0.0
0.7387024006609498,0.39718492442686515,0.23253342509269714,0.9999992847442627,0.6594063906137069,0.5350470474766555,0.0446416437625885,0.9999988079071045,0.8399353284220389,0.5329732669903301,0.0005847994470968843,0.9999969601631165,0.6989378002443696,0.865521255093017,0.02910507656633854,0.9999834299087524,0.8025993718496217,0.8577521828050416,-0.029253164306282997,0.9999833106994629,0.7097256373364778,1.1355545676773129,0.14639577269554138,0.9952387809753418,0.8044856561606804,1.1347966751576868,0.044455286115407944,0.9739980101585388,0.7205455999414822,1.397184924426865,0.21687395870685577,0.9922713041305542,0.8063717607485901,1.3988512276034628,0.13459816575050354,0.9777784943580627,0.6089438146795532,0.8715985933788015,0.08989499509334564,0.9962297677993774,0.8906344200203681,0.8688824374269145,-0.03371020406484604,0.9931524395942688,0.0013755261898040771,0.7507685860469956,0.8616367189490294,179.91958129109614,179.98084909975879,1.0,-0.0022993553326104495,0.05742137897167528,-0.9284097008212936,-0.150268391646261,92.53521832916115,0.8659458774881232,1,0.03333333333333333
0.737471342300286,0.3894109522316186,0.2314704954624176,0.9999991059303284,0.6549330449226287,0.529322807919806,0.03800060227513313,0.9999988675117493,0.8372610965960341,0.5273540087712377,-0.00857072975486517,0.9999971985816956,0.6945529098640825,0.8645389566610134,0.02865113690495491,0.9999843835830688,0.8014160478100066,0.8552032462513844,-0.028779393061995506,0.9999845027923584,0.7070068414650249,1.133220089296736,0.16069866716861725,0.9946888089179993,0.8039628512602711,1.1343142648818072,0.06503883004188538,0.9756470322608948,0.7180085036530544,1.3894109522316187,0.23860704898834229,0.9909093976020813,0.8072375816783928,1.3905653477997504,0.1598377674818039,0.9765413403511047,0.6087556539686291,0.8730666260181781,0.08578231930732727,0.9956212043762207,0.8897073250574767,0.8683641801683318,-0.0703420639038086,0.9933505654335022,0.001309514045715332,0.7479844788370446,0.8598711014561989,179.80507534026148,179.79062732875144,1.0,-0.005283468365269448,0.004606126349771915,-0.022318967780523336,-0.3929941232984154,91.74786899433988,0.8873454596210657,2,0.06666666666666667
0.735679668903995,0.3839886275098464,0.1986531913280487,0.9999988675117493,0.6545069121294649,0.5263616519774981,0.009713111445307732,0.9999988675117493,0.8338225255362798,0.5191490825524128,-0.0302874855697155,0.9999973773956299,0.6942974038413426,0.8636332282575286,0.026354795321822166,0.9999850988388062,0.8007273104168007,0.853700080057756,-0.026478443294763565,0.9999854564666748,0.7046707356735931,1.130075000536101,0.1539168804883957,0.9939782023429871,0.8028086333712178,1.1326850978205705,0.06277981400489807,0.9768937826156616,0.7148203346700119,1.3839886275098463,0.22935163974761963,0.9895838499069214,0.8076890292282289,1.3847566816060157,0.1529560089111328,0.9749452471733093,0.6076332747196191,0.8694566258515072,0.05463530868291855,0.9951273798942566,0.8869290523877941,0.8646746045361297,-0.07317717373371124,0.9935479760169983,0.00481143593788147,0.7475123571290717,0.8586666541576423,179.94051556062618,179.31826441042293,1.0,0.01275336871904293,0.009761041350333635,0.1334510934258976,0.038273095433455584,91.39652268548079,0.9029038706768997,3,0.1
0.7355015416179641,0.3826142751356313,0.168258398771286,0.9999983310699463,0.6530372269541255,0.5247317230758559,-0.02068888023495674,0.9999988675117493,0.8360273061070812,0.5181349730060424,-0.053744904696941376,0.9999974370002747,0.6956698556210327,0.8640600635669353,0.02418721653521061,0.9999855756759644,0.802162573742186,0.8538176811048018,-0.02431236393749714,0.9999861717224121,0.7058461342628928,1.1263329372765476,0.15142470598220825,0.992821455001831,0.802704544617531,1.1315126341876265,0.06301317363977432,0.9773231744766235,0.7118880860088024,1.3826142751356312,0.2255135029554367,0.9880014657974243,0.8098018333507941,1.3828973729027791,0.15017442405223846,0.972524881362915,0.6082618333436429,0.8709081332996274,0.01905563659965992,0.9943334460258484,0.8846095467682518,0.8653856261779352,-0.10275767743587494,0.9935224652290344,0.00439867377281189,0.7489162146816093,0.8589388723358685,179.1285429179589,178.4946334641379,1.0,0.007867569941348367,-0.0008032786777228037,-0.03591166704195459,-0.07759188399671438,91.6672587117022,0.9094562160993708,4,0.13333333333333333
0.7225623060578646,0.3618653180073933,0.20509275794029236,0.9999979138374329,0.644056002629314,0.5116395289658727,0.010935096070170403,0.9999988675117493,0.8240141666382703,0.505382641031588,-0.0292854942381382,0.9999975562095642,0.682700498932116,0.8484824395461136,0.02511858381330967,0.9999862909317017,0.7883846756721403,0.8389383814989508,-0.025249997153878212,0.9999870657920837,0.6916757369938543,1.10848202184573,0.1605539619922638,0.9910506010055542,0.7897130508286406,1.1150810723468056,0.06995739042758942,0.9777482151985168,0.6992331680485587,1.3618653180073932,0.24719004333019257,0.9855038523674011,0.7968384917498679,1.3641108752691695,0.1673503816127777,0.9695392847061157,0.5974846962273961,0.8566239916108176,0.04132332652807236,0.9932163953781128,0.8705836263648086,0.8510142314917509,-0.08270151168107986,0.9936767816543579,0.004240989685058594,0.7355425873021282,0.8437104105225322,179.7313253629367,178.6366715624804,1.0,-0.007357547197096933,-0.0077650947657409465,-0.0925207398694486,-0.04274427383890967,91.38444520033872,0.9279795718444229,5,0.16666666666666666
0.721504591617534,0.36051834898441976,0.19596341252326965,0.9999974370002747,0.6418907990161078,0.5097530282355399,0.006939054932445288,0.9999988079071045,0.8216642214070992,0.5031220938218853,-0.035739824175834656,0.9999976754188538,0.6798614868164825,0.8470330028368519,0.024809081107378006,0.9999867677688599,0.785916971241533,0.8365454320018865,-0.02494528517127037,0.999987781047821,0.6897346128711754,1.1075199652346688,0.16377750039100647,0.98963463306427,0.7885235817631544,1.1135090916406107,0.07577906548976898,0.977789044380188,0.6996558438305186,1.3605183489844197,0.25192439556121826,0.9832236170768738,0.794808529214466,1.3616162107827998,0.17213276028633118,0.9658871293067932,0.5976893640033892,0.854232162733148,0.05179079249501228,0.9912942051887512,0.8654215301898291,0.8491654051188311,-0.06935382634401321,0.9938430786132812,0.004506528377532959,0.7328892290290078,0.8417892174193692,179.92493786675078,179.0881337081102,1.0,-0.004591912259584342,0.0021610023185984714,0.018174202319925115,0.06555743280982995,90.77578348677238,0.9267108393734,6,0.2
0.720907953768116,0.3612637340358169,0.1924317181110382,0.9999971389770508,0.6395520943767632,0.5102457238707291,0.007388710044324398,0.9999988079071045,0.820855328868363,0.5015010041690054,-0.03670608624815941,0.9999977946281433,0.6795336482644633,0.8474451718024346,0.02519279718399048,0.9999873638153076,0.7848183410816795,0.8363811866312152,-0.02534087933599949,0.9999885559082031,0.6898490930040445,1.1077864467978922,0.16145728528499603,0.9877350926399231,0.7883239791350273,1.1130374517888193,0.07346861809492111,0.9775819182395935,0.6994940250683893,1.361263734035817,0.24403758347034454,0.9807385802268982,0.7936100527805169,1.3621340503704236,0.16868239641189575,0.9624996781349182,0.5957075090099044,0.8554934280245454,0.0659462958574295,0.9890943765640259,0.8668124499860712,0.8487420106481586,-0.0655091181397438,0.9939155578613281,0.0059452056884765625,0.7321759946730714,0.8419131792168248,179.91004951971635,179.51029211092356,1.0,-0.002970459060091319,0.002758529223693609,0.0105971186070209,0.003914092764570932,90.76297194894535,0.924604804878712,7,0.23333333333333334
0.7267096488231296,0.3696866376657696,0.19419309496879578,0.9999966621398926,0.6443189814483533,0.514101083287234,0.009299125522375107,0.9999987483024597,0.8270616140755387,0.506150229430648,-0.04628276079893112,0.9999979138374329,0.6849023206123599,0.854389896777115,0.02783997356891632,0.9999879598617554,0.7912040659066205,0.8432356920077986,-0.02800127863883972,0.9999892711639404,0.6950687641026996,1.1149391954006325,0.17118942737579346,0.9862188696861267,0.7936050014444844,1.119815822657685,0.07248042523860931,0.9782070517539978,0.7051061715397966,1.3696866376657695,0.24952486157417297,0.9794562458992004,0.7993396037176593,1.370622369701664,0.15994170308113098,0.9618856906890869,0.598943479803596,0.8611073619018008,0.05393766611814499,0.9870684146881104,0.8731419597156415,0.854240649194329,-0.06852316111326218,0.9941132068634033,0.005369454622268677,0.7380531932594901,0.8488127943924567,179.97813883541403,179.18754110163934,1.0,0.007461214169926795,0.009675138661989905,0.08089778359099477,0.053392832691726656,90.81094894972675,0.9189407466568449,8,0.26666666666666666
0.7308348896383656,0.3751626347807284,0.20021042227745056,0.9999961853027344,0.6477017202003245,0.5168049255275966,0.010668681934475899,0.9999986886978149,0.8296196443536276,0.5085048289959848,-0.0401032529771328,0.9999980330467224,0.6880628453101418,0.859255615894153,0.026552964001893997,0.999988317489624,0.7944516637930847,0.8483659495187668,-0.026718134060502052,0.9999898076057434,0.6979589642482915,1.121040430041439,0.1616327464580536,0.9846001267433167,0.7972293242481373,1.1246369317156182,0.06993585079908371,0.9783481955528259,0.7081841531178124,1.3765136607454318,0.23289282619953156,0.9774439930915833,0.8024627992536473,1.3751626347807284,0.14909249544143677,0.9598550796508789,0.601905068931176,0.8647251348665969,0.06197700649499893,0.9850092530250549,0.8764106851244835,0.8577682641235375,-0.05745609477162361,0.9943075180053711,0.005581378936767578,0.7412572545516133,0.8538107827064599,179.87288087063308,179.37930580669686,1.0,0.00029162510199512036,0.009983966920118817,-0.05291700834459333,0.001964454870189483,90.87756722838694,0.9167843802971031,9,0.3
0.7311088958323675,0.3775486207245315,0.20019379258155823,0.9999955296516418,0.6473550490730238,0.5163574972948474,0.009529327042400837,0.9999986290931702,0.8296881843490911,0.509327158721521,-0.03711346909403801,0.9999980926513672,0.6892217785459749,0.8593503254825773,0.025574196130037308,0.9999884366989136,0.7959160373111169,0.8482481859942991,-0.025740865617990494,0.9999901056289673,0.6984459344882823,1.121614636819026,0.15175586938858032,0.982538104057312,0.7981390181175861,1.1238753794016956,0.0669216439127922,0.9777332544326782,0.7074367829306843,1.378250759290926,0.22105081379413605,0.974361777305603,0.8032285254939413,1.3775486207245315,0.13175886869430542,0.9556893110275269,0.6015079979176065,0.8648771071359208,0.0591789074242115,0.9825253486633301,0.874013240909761,0.8576217934734,-0.0463552325963974,0.9943395256996155,0.004727303981781006,0.7425689079285459,0.8537992557384382,179.9921159701592,179.31270548774955,1.0,0.008583004018486162,-0.00035635159566024365,0.05578584358905797,-0.06957484543796702,91.0186974388174,0.9086921208153358,10,0.3333333333333333
0.7334581642904859,0.3801186672119074,0.1934329718351364,0.9999948143959045,0.6498577901621754,0.5174501923236119,0.0033650349359959364,0.9999985694885254,0.833000916114646,0.5111135474443442,-0.04222036898136139,0.9999980926513672,0.691973677998017,0.8633836809598513,0.024925794452428818,0.9999885559082031,0.7990699964762086,0.8513382360538373,-0.025092264637351036,0.9999904036521912,0.7012354788092804,1.1269870231466772,0.15556856989860535,0.9814491271972656,0.8011894285544835,1.1276024195812193,0.06657297164201736,0.9773050546646118,0.7096801743560989,1.383902274939494,0.21972298622131348,0.9730443954467773,0.8051806581105133,1.3801186672119075,0.142482727766037,0.9528986811637878,0.6036048484454015,0.8675049964837666,0.056904178112745285,0.9805455207824707,0.8761180568837573,0.8601640754840056,-0.05439857393503189,0.9943033456802368,0.004247695207595825,0.7455218372371127,0.8573609585068442,179.8703296090938,179.53401865550242,1.0,0.00500569334821432,0.007032355431114242,-0.027645772180834065,0.056687766992363775,90.52409051878746,0.9096938811343532,11,0.36666666666666664
0.7361192848938377,0.38161158380327825,0.19618569314479828,0.9999940991401672,0.6512997078625019,0.5181752484931333,0.006058210972696543,0.9999985098838806,0.8357487918404822,0.5121652296288687,-0.04549465328454971,0.999998152256012,0.6922832596943634,0.8645266988854408,0.026175636798143387,0.9999887347221375,0.7996416760041408,0.8525734262858229,-0.02634652890264988,0.9999907612800598,0.7013398159009433,1.1289290721988312,0.16980598866939545,0.9794305562973022,0.8014726428994083,1.1294318581296203,0.06878536194562912,0.9769665598869324,0.7103219957539159,1.3838974437768623,0.23502390086650848,0.9708608984947205,0.8056347810357479,1.3816115838032783,0.1481294482946396,0.9498904347419739,0.6047782556479516,0.8687070861570161,0.06195812299847603,0.9784575700759888,0.8783120066223886,0.860360910922054,-0.04695233330130577,0.9943943023681641,0.004024088382720947,0.7459624678492521,0.8585500625856318,179.9441654249087,179.43335165074419,1.0,-0.003393047930355144,0.0015827545385798355,-0.06755440358201217,-0.04386850083962524,90.39525531971115,0.909785115305959,12,0.4
0.7396833042981942,0.38431060180286175,0.1931769698858261,0.9999931454658508,0.6528481892049964,0.5198779899485649,0.005086041521281004,0.9999984502792358,0.8395268518668901,0.5138689119238491,-0.04755682498216629,0.999998152256012,0.6937859061096228,0.8672992109021965,0.02647526003420353,0.999988853931427,0.8008212949499561,0.855954981821284,-0.026647457852959633,0.9999910593032837,0.7028345268349117,1.13200803286679,0.1668819934129715,0.9773970246315002,0.8032033305128109,1.1328420531856167,0.06949308514595032,0.9765583276748657,0.712663223380554,1.3887512736523646,0.22984068095684052,0.9692615270614624,0.8077551931730627,1.3843106018028617,0.14711740612983704,0.9476764798164368,0.6057389807318639,0.8712299756147664,0.06452007591724396,0.9753281474113464,0.8814923698652557,0.8624053874178763,-0.045111797749996185,0.9944218993186951,0.004013627767562866,0.7473036005297894,0.8616270963617403,179.76545838850072,179.45589388645902,1.0,-0.0038051585412763596,0.007627785560454185,-0.003161771343416846,0.04730250424712628,90.67039773301754,0.9091793554023203,13,0.43333333333333335
0.7388468583834128,0.38265065179429897,0.2180955410003662,0.999992847442627,0.6501352476839685,0.5182917722494649,0.02330293320119381,0.9999984502792358,0.83699907676299,0.5122771664424918,-0.03478523716330528,0.9999982118606567,0.6912986846518941,0.864355766210664,0.02710440754890442,0.9999890327453613,0.7979614243663943,0.8531491864368576,-0.027277741581201553,0.9999914169311523,0.6999777707940257,1.128368016024242,0.16196885704994202,0.9764414429664612,0.8009246958294753,1.1288726430170093,0.06331245601177216,0.9771929383277893,0.7105332189642614,1.3850495202485473,0.21710041165351868,0.9682647585868835,0.8063167237548375,1.382650651794299,0.1213131919503212,0.9476727843284607,0.6038070117088941,0.8682646017374006,0.07876076549291611,0.9735075235366821,0.8792980801313507,0.8591191381365912,-0.03972094506025314,0.9946494102478027,0.0040302276611328125,0.7446300545091442,0.8587524763237607,179.52801903430046,179.39856711536623,1.0,-0.002156954832165964,-0.0008859319124892196,0.01259690865876007,-0.06536533212147333,90.78550874760964,0.906443607518887,14,0.4666666666666667
0.7370193407826053,0.3777815191702478,0.20534732937812805,0.9999925494194031,0.6483062707422311,0.5161670267535272,0.013374796137213707,0.9999984502792358,0.8339432600986788,0.5100261338923789,-0.03874161094427109,0.9999982714653015,0.6887741735401455,0.8613014389377708,0.02677740529179573,0.9999892115592957,0.7953704789771423,0.8502758567677933,-0.02694958820939064,0.9999917149543762,0.6975246433198456,1.1241566019219587,0.15998689830303192,0.9755759239196777,0.7991214465748216,1.1246288862273581,0.06281565129756927,0.9773328900337219,0.7080090534605088,1.3793697491396348,0.214837908744812,0.96721351146698,0.8043399798018002,1.3777815191702478,0.1234198659658432,0.9466273784637451,0.6013732506219621,0.8652791952069748,0.07378022372722626,0.9719911217689514,0.876983015585382,0.8554446525261536,-0.04690783843398094,0.9947595000267029,0.004128485918045044,0.7420723262586438,0.8557886478527821,179.5542321419839,179.60236371285717,1.0,-0.00075607056459869,-0.0009805530194298658,0.010734547191952666,-0.0007512967497498834,90.78226418985598,0.9140599565644225,15,0.5
0.7392888582861934,0.3788788343860892,0.19408024847507477,0.9999920129776001,0.6486479847851595,0.5160903499754703,0.008068044669926167,0.9999983906745911,0.8336965531398787,0.5102237511746655,-0.044155530631542206,0.9999983310699463,0.6888868395132723,0.8614203192784345,0.0274205319583416,0.9999891519546509,0.7958947065292885,0.8503821555938681,-0.02759268507361412,0.9999918937683105,0.6973224390299054,1.1245028940164168,0.16356712579727173,0.9735161066055298,0.7995891691582468,1.1256333217243102,0.05890016630291939,0.9771706461906433,0.7079805420652696,1.3788788343860892,0.21432001888751984,0.965306282043457,0.804989648313104,1.3802523200126628,0.11268751323223114,0.9451560378074646,0.601387407586892,0.8656605759568189,0.07140400260686874,0.9685239195823669,0.8772719342369159,0.8548180291159622,-0.04362017661333084,0.9947322607040405,0.003943353891372681,0.7423907730212804,0.8559012374361513,179.4372949605286,179.55392281429633,1.0,0.001416294290500685,-0.000349757707527351,0.0169179481962649,0.004913599923702936,90.75690745127692,0.910618518219106,16,0.5333333333333333
0.7387013488747858,0.37792493786837866,0.19453470408916473,0.9999920129776001,0.6484536486696334,0.51558304703351,0.009494778700172901,0.9999983906745911,0.83301293006723,0.5095859361345193,-0.04534674435853958,0.9999983906745911,0.6884297950891486,0.8607179068217297,0.02796638384461403,0.99998939037323,0.7955741506758551,0.849696081725982,-0.028138279914855957,0.9999921917915344,0.6968845247902898,1.123733138511371,0.16681799292564392,0.9722398519515991,0.7991212631587342,1.1254022688813339,0.062365610152482986,0.9771826863288879,0.7070754176757955,1.3779249378683787,0.2257043421268463,0.964119553565979,0.8043754307234914,1.3804869825420056,0.11500771343708038,0.9444934725761414,0.6011486402816707,0.8648147504090973,0.07760819047689438,0.9663113355636597,0.876244177548792,0.8540708035763535,-0.046661436557769775,0.9947288632392883,0.004034072160720825,0.7420019728825018,0.8552069942738558,179.54532598135677,179.55710472828676,1.0,0.0013058270081258672,-0.00047985209334745727,-0.0008830609125328778,-0.001052034551676345,90.73369520784422,0.910552388926872,17,0.5666666666666667
0.738640719063049,0.377941956348877,0.19025184214115143,0.9999918341636658,0.6483384648117639,0.5154253047685414,0.00745701277628541,0.9999983906745911,0.832424713686711,0.509625297700007,-0.04976395517587662,0.9999984502792358,0.6880885628898932,0.8603515364628753,0.028098488226532936,0.9999895691871643,0.7952017052352064,0.8493824643125376,-0.028270110487937927,0.9999924302101135,0.6966510116640561,1.1230665498970767,0.16720715165138245,0.9705609083175659,0.7989298699522537,1.1248652173100435,0.06124424934387207,0.9769457578659058,0.706466530888211,1.377941956348877,0.2258419543504715,0.9625717997550964,0.8039839606273776,1.3793140315102508,0.12197425216436386,0.9430909752845764,0.6008205523218143,0.8644722794313887,0.06870802491903305,0.9646590352058411,0.8751086521429838,0.8538200512353592,-0.05004958063364029,0.9947099089622498,0.0039028525352478027,0.7416451340625498,0.8548670003877065,179.66130150756712,179.63743767430532,1.0,-0.0007532248075728093,-0.000315303407821176,-0.015964685091436507,0.001274795135771395,90.726826278149,0.9102871889723456,18,0.6
0.738552369041625,0.3778741728290758,0.19793492555618286,0.9999915361404419,0.6479460166843314,0.5158042128915648,0.007591679692268372,0.9999983310699463,0.8321116898141483,0.509815659747303,-0.04457937553524971,0.9999984502792358,0.6883429134295321,0.8604891754023636,0.027341794222593307,0.9999895691871643,0.7953286919945988,0.8495125017309557,-0.027517955750226974,0.9999925494194031,0.6966326742249593,1.123180436598646,0.16473974287509918,0.9696123600006104,0.7991818459930911,1.1250260806191696,0.062201179563999176,0.9764991998672485,0.7060932831652228,1.3778741728290758,0.21663959324359894,0.9613943696022034,0.8041655809893704,1.3790055511961115,0.12447258085012436,0.9414629936218262,0.6013781021318375,0.8646226489899945,0.07709566503763199,0.9622973799705505,0.8746432769324531,0.8536341033764424,-0.037320882081985474,0.9947172403335571,0.004028886556625366,0.7418358027120654,0.8550008385666596,179.6802098514922,179.67710201202158,1.0,0.0002801941476657455,-0.0003435857114233544,0.008016605205369048,-0.00021885315577721106,90.82652762540013,0.9112480863293717,19,0.6333333333333333
0.7430025015969931,0.3808294134276541,0.20475387573242188,0.9999910593032837,0.6494730288984382,0.5170584441097694,0.0135588888078928,0.9999982714653015,0.8341099883034434,0.5110735883155737,-0.04385508969426155,0.9999984502792358,0.6899054271924983,0.8620854627870075,0.02755332551896572,0.9999895691871643,0.7971257276159107,0.8510917740789866,-0.027734125033020973,0.9999926686286926,0.6981536685908138,1.1240936589460275,0.15096737444400787,0.9690136909484863,0.8012890322015177,1.1264524179077597,0.041414376348257065,0.9768524169921875,0.707831933140257,1.3808294134276542,0.17694519460201263,0.9607821702957153,0.805805679980737,1.3817040244138035,0.07346907258033752,0.9416808485984802,0.6031882230065314,0.8665612616421099,0.07355963438749313,0.9599313139915466,0.8764578903315614,0.8557681766723072,-0.041179731488227844,0.9947494268417358,0.004017084836959839,0.7435155774042045,0.856588618432997,179.64424614889293,179.85247889228376,1.0,-0.00030966665891553547,-0.0030331977202206002,-0.004538189548020806,-0.02066407636312581,90.82950258436182,0.9064706098818357,20,0.6666666666666666
0.7416258828096165,0.3797860037807472,0.19989414513111115,0.9999908804893494,0.6483207126498128,0.5167693115005729,0.011414255015552044,0.9999982714653015,0.8333677519002022,0.5107572294742798,-0.043924540281295776,0.9999985098838806,0.6894864575289824,0.8614978528405257,0.027375493198633194,0.9999896883964539,0.7965784601775111,0.8505231962356176,-0.027557948604226112,0.999992847442627,0.6976840815740446,1.1233012396097564,0.15178851783275604,0.9678210616111755,0.8008978054325366,1.1256365844842402,0.042340103536844254,0.9765119552612305,0.7068254724846854,1.3797860037807472,0.18843254446983337,0.9595329165458679,0.8052721730634764,1.380580455892333,0.09775297343730927,0.9405192136764526,0.6030378741199859,0.8660681711263337,0.07460107654333115,0.9575941562652588,0.8754682115766547,0.8557252068952267,-0.04210115596652031,0.9946598410606384,0.004037916660308838,0.7430324588532468,0.8560105245380716,179.75224867833293,179.91648971510523,1.0,-9.174527406400212e-05,-0.00026707698656744,0.001634004571462034,0.020745020153339348,90.95855144216227,0.9082473760292886,21,0.7
0.7388054564627682,0.3799128928280531,0.19822630286216736,0.9999908804893494,0.6472939743453815,0.5168781074318829,0.000946523156017065,0.9999982714653015,0.8333131476513919,0.5108754374186979,-0.046813782304525375,0.9999985098838806,0.6894594747766923,0.8619557205283237,0.02609214559197426,0.9999898076057434,0.7968187956998772,0.8508700309992605,-0.02627178467810154,0.9999929666519165,0.6974622359472038,1.12387184487029,0.15665826201438904,0.9674330949783325,0.8012377513999462,1.1260122224489073,0.05145055055618286,0.9765275716781616,0.7067534042978771,1.379912892828053,0.20457100868225098,0.9596340656280518,0.8053869630732499,1.3808074240230976,0.11305148899555206,0.9406994581222534,0.6033003123980222,0.8661660883827532,0.07018351554870605,0.9574878811836243,0.8753068515826026,0.8558498661021362,-0.044236939400434494,0.994705855846405,0.0040309131145477295,0.7431391352382848,0.8564128757637921,179.67188288507242,179.9871764677683,1.0,-0.00014501286311938816,0.0019589397714055647,-0.0004051246429428519,0.01693516629095054,91.07116991227196,0.9092007778635464,22,0.7333333333333333
0.7398133659099524,0.3806947621488,0.1817370355129242,0.9999907612800598,0.6474238603231384,0.5180449086418099,-0.008986973203718662,0.9999982714653015,0.8343984777864527,0.5115191998219053,-0.05644673854112625,0.9999985098838806,0.6897093921612295,0.8636018814073053,0.02577958069741726,0.9999898672103882,0.797902223121367,0.852442786438689,-0.02595749869942665,0.999993085861206,0.6981662229780807,1.1255551070201402,0.16292829811573029,0.9668150544166565,0.8024023226974144,1.127784579387976,0.06074369698762894,0.9764532446861267,0.7078237884843868,1.3806947621488,0.22053992748260498,0.9596221446990967,0.806554694982856,1.3826927718722755,0.12865856289863586,0.9410151243209839,0.6041022131570958,0.8675338130790705,0.06306339055299759,0.9569147825241089,0.8763680595594984,0.856987507461537,-0.048118866980075836,0.9947176575660706,0.00437590479850769,0.7438058076412983,0.8580223339229972,179.6813507701968,179.99690642084877,1.0,-0.0029311855484249745,0.002897036457656083,-0.020782978332803834,0.006977254542537733,91.0878441627733,0.9112337729310275,23,0.7666666666666667
0.737204347378332,0.38108957598536786,0.1894833743572235,0.999990701675415,0.6469106793607183,0.5185501591575714,-0.006961784325540066,0.9999982714653015,0.8351415825095938,0.5119447473775312,-0.04926856607198715,0.9999985694885254,0.6895499614200534,0.8645107419961346,0.025255262851715088,0.9999901056289673,0.7983017260995062,0.8534669792802666,-0.02543395385146141,0.9999933242797852,0.6983673642789954,1.126581149453308,0.16712597012519836,0.966753363609314,0.8030923567665267,1.1293649556180476,0.06675506383180618,0.9768689274787903,0.7085014899266191,1.3810895759853679,0.2273896485567093,0.9598085880279541,0.8071995140416992,1.3843510661700023,0.1323259472846985,0.9418255686759949,0.6046539270915747,0.8682054308197833,0.0699259489774704,0.9549606442451477,0.8765771346476836,0.8574289362722451,-0.0379454679787159,0.9946393370628357,0.0044251978397369385,0.7439258437597799,0.8589888606382006,179.6467759017276,179.9280337733317,1.0,-0.004688264641490604,0.001308369705998994,-0.014229715975797495,-0.012908053820755962,91.22769175002279,0.9122544409052599,24,0.8
0.7317319954516253,0.37557616358443624,0.21397173404693604,0.999990701675415,0.6422192484492757,0.5169678848918542,0.01809534803032875,0.9999982714653015,0.8299901136353615,0.5088242307711227,-0.030505826696753502,0.9999986290931702,0.6851180675850836,0.8600099364412535,0.025251567363739014,0.9999901056289673,0.7943688004430496,0.8489905108359812,-0.025429898872971535,0.9999934434890747,0.6957298340917429,1.1209615702750177,0.1575588434934616,0.9657201766967773,0.7999846490801436,1.1248745481084046,0.052769534289836884,0.9769902229309082,0.7059661146170404,1.3755761635844364,0.19761721789836884,0.9578166007995605,0.804341225954417,1.3799103167709288,0.0984003096818924,0.9408057332038879,0.6024544720477875,0.864911595054079,0.10715633630752563,0.9510840773582458,0.8719990757540862,0.8540910578099954,-0.0070311748422682285,0.9947711825370789,0.005476623773574829,0.7397434340140666,0.8545002236386173,179.97353791487055,179.8125017621221,1.0,-0.009921274175863852,-0.008939131871703102,-0.038790975486499985,-0.07566637780800142,91.36848759653743,0.9150281764682198,25,0.8333333333333334
0.7229386355703342,0.37075510260320027,0.19482721388339996,0.9999907612800598,0.637202192109142,0.5156758961970185,0.004932738374918699,0.9999982714653015,0.8241202310815413,0.5058808181971061,-0.04059133306145668,0.9999986886978149,0.6815977192851056,0.8568900511426185,0.025167414918541908,0.9999901652336121,0.7900101076976778,0.8457944593847906,-0.02534542977809906,0.9999935626983643,0.6933356850835678,1.1166955954320696,0.15755397081375122,0.9638566374778748,0.7968347467387572,1.1209421709681202,0.055705077946186066,0.9761895537376404,0.7035446452166318,1.3707551026032003,0.20547077059745789,0.9561678171157837,0.8015167552488662,1.3761476706014026,0.11512036621570587,0.9393545389175415,0.6001984267179553,0.8627205251621965,0.09527643024921417,0.9491335153579712,0.8680856246705547,0.8511905603077319,-0.020871417596936226,0.9946818947792053,0.006610184907913208,0.7358039134913916,0.8513422552637046,179.71424449443978,179.63018515315736,1.0,-0.01060682193562239,-0.0014568954561975404,-0.005581280607780329,0.05775726641522127,91.56947900704833,0.9203275776189466,26,0.8666666666666667
0.7170391190368559,0.37011124605018486,0.1950826495885849,0.9999909996986389,0.6353343302241579,0.5172158560423081,0.004817434586584568,0.9999982714653015,0.8213998112030125,0.5057379491722525,-0.04028169810771942,0.9999987483024597,0.679873759534068,0.8564619575218034,0.024503272026777267,0.9999902248382568,0.7879624958397586,0.845202472287479,-0.02467982843518257,0.9999936819076538,0.6927402859261931,1.1162333515579437,0.1559443324804306,0.9623475074768066,0.795343187159686,1.1206526374909127,0.05813209339976311,0.9755569696426392,0.7032790415633904,1.3701112460501848,0.20677690207958221,0.9543614983558655,0.800117827613196,1.3755416811319132,0.12310447543859482,0.9373689293861389,0.5997741578555851,0.8626524539867213,0.08830800652503967,0.9482476115226746,0.8668604695177885,0.8507492694209026,-0.023829203099012375,0.9948415160179138,0.007749021053314209,0.7339181276869133,0.8508322149046412,179.54149365531103,179.53827825748675,1.0,-0.011998212130559936,-0.0012147886670344607,-0.010575373189215876,0.0018298733979905002,91.53256165617381,0.9209623238908332,27,0.9
0.714484419353683,0.3706354247548171,0.19506019353866577,0.9999909400939941,0.6336535175179813,0.5187802352428955,0.004872833378612995,0.9999982714653015,0.8193207638920271,0.5062014730301335,-0.04097349941730499,0.9999987483024597,0.6787338392155985,0.857108337603943,0.024501409381628036,0.9999901652336121,0.7866407819348284,0.8456395584222718,-0.024677934125065804,0.9999937415122986,0.692772979866886,1.1170716026300507,0.15432995557785034,0.9613319635391235,0.7955041247662098,1.1212743154732836,0.05736738443374634,0.9754093885421753,0.7036361209956159,1.3706354247548171,0.2064353972673416,0.953276515007019,0.8003896934097612,1.37646297923651,0.1221548318862915,0.9364615082740784,0.5999134260061156,0.8632773641607078,0.085682712495327,0.9473930597305298,0.8658988801792159,0.8513445716961704,-0.025906061753630638,0.9948695302009583,0.008486181497573853,0.7326873105752134,0.8513739480131074,179.36193950265934,179.2550145780842,1.0,-0.012952649638710944,-0.00048202883423385773,-0.006983252449531117,0.00541624007688618,91.52278872856489,0.9206727357260268,28,0.9333333333333333
0.7126632371518924,0.3708385358954024,0.20144617557525635,0.9999908208847046,0.6314541268149749,0.5197473744572829,0.006200960837304592,0.9999982714653015,0.817095638845455,0.5064377866380794,-0.03644784912467003,0.9999987483024597,0.6765909764041217,0.8574741493761301,0.023707885295152664,0.9999901056289673,0.7848229166749527,0.8459745537816981,-0.023883186280727386,0.9999937415122986,0.6919335518033766,1.1175104208124755,0.15577450394630432,0.9604765772819519,0.7945070843671064,1.121608744882619,0.057982735335826874,0.9751925468444824,0.7031510224774545,1.3708385358954023,0.20891141891479492,0.9518511891365051,0.8007007516348794,1.3770627843732137,0.1236288771033287,0.9349048137664795,0.5994168180922681,0.8636655186339002,0.08326643705368042,0.9473583698272705,0.8641048804694517,0.851124305813161,-0.020585354417562485,0.9948448538780212,0.00897565484046936,0.7307069465395373,0.851724351578914,179.15879156638704,179.37669563038907,1.0,-0.01731224099970678,8.72127753471701e-05,-0.03317901861378655,0.004338851639383771,91.54751643537165,0.9207236350407048,29,0.9666666666666667
0.7207243304349685,0.38702976939439654,0.19519397616386414,0.9999906420707703,0.6369674960814442,0.5264987762941767,0.0008532108040526509,0.9999982714653015,0.8242788674321598,0.512807995709996,-0.04600347578525543,0.9999987483024597,0.6840734050841771,0.8687161374184269,0.023793336004018784,0.9999900460243225,0.792367915161048,0.8565135648921021,-0.023968838155269623,0.9999936819076538,0.6995276979037834,1.1310752486605031,0.15504176914691925,0.9599390029907227,0.8017562572658722,1.1351884854061278,0.05183875560760498,0.9752794504165649,0.7117117080850731,1.3870297693943965,0.2002546340227127,0.9513654112815857,0.8101611976407125,1.3934875868678611,0.10719336569309235,0.9342517256736755,0.6052446720590503,0.8740199585017531,0.05926179140806198,0.9487643837928772,0.8718149308257439,0.8604165774891356,-0.03875604644417763,0.9947909116744995,0.009122073650360107,0.7382206601226126,0.8626148511552645,179.35423167812144,179.93420148647712,1.0,-0.010311867399371313,0.004273826787390239,0.05509418843889166,0.031981707611162015,91.4085169228647,0.9011098368481686,30,1.0
0.7221271329254674,0.3923310346214893,0.16797786951065063,0.9999905824661255,0.6362172772794464,0.5287135725536473,-0.014550494030117989,0.9999982714653015,0.8233534024409185,0.5157453821198525,-0.06901043653488159,0.9999987483024597,0.6845693876743706,0.8729251324117023,0.024705154821276665,0.9999901652336121,0.7912725851548114,0.8599611178346396,-0.024881813675165176,0.9999937415122986,0.7008380764854409,1.1353165719233624,0.15415416657924652,0.9599940180778503,0.8021690567309894,1.137736413547036,0.045873261988162994,0.9757617115974426,0.7144352497267845,1.3923310346214894,0.19740748405456543,0.9527311325073242,0.813074418840855,1.3971478180093386,0.10190676152706146,0.9359944462776184,0.6057459160008907,0.877505014507959,0.031336795538663864,0.9504568576812744,0.8735005026070143,0.8623462055538984,-0.07030265033245087,0.9947437047958374,0.008607298135757446,0.737920986414591,0.8664431251231709,179.48048221418208,179.83919450395476,1.0,-0.024086842197921104,0.0037314120834796433,-0.10478365917082832,-0.004264250345632736,91.0688787078488,0.8968595390457279,31,1.0333333333333334
0.7241713022716907,0.3980995875777841,0.1702975034713745,0.9999908208847046,0.6373998018923135,0.5304331952940812,-0.011777516454458237,0.9999982714653015,0.8247658778584853,0.5187582257394068,-0.06827989220619202,0.9999987483024597,0.6851220099299156,0.8764989864184491,0.026176204904913902,0.9999903440475464,0.7926807480111895,0.8633280630279343,-0.026355192065238953,0.9999938607215881,0.7018131191372512,1.1397621499238495,0.1484370231628418,0.9602779150009155,0.8031596399285023,1.14125079850493,0.04139087349176407,0.9763585329055786,0.7173978880959431,1.398099587577784,0.18907645344734192,0.9536775350570679,0.8156546017828971,1.4025857355070284,0.0960671529173851,0.9375706315040588,0.6060249502408435,0.8812617419569371,0.032827362418174744,0.9523953199386597,0.8755593142043283,0.8655613064645462,-0.07513714581727982,0.9948517084121704,0.007715880870819092,0.7389013789705525,0.8699135247231917,179.82456302159045,179.42193172620966,1.0,-0.016492247842620364,-0.001841841319599758,0.05816009574566471,-0.042228850890905466,90.87022356410023,0.8887211659516857,32,1.0666666666666667
0.7266656165168102,0.4057477426049138,0.16591589152812958,0.9999911785125732,0.6389651467115742,0.5333043476249416,-0.011554388329386711,0.9999982714653015,0.8271283552389967,0.5230076932926221,-0.0732211023569107,0.9999987483024597,0.6861901408345299,0.8816323120557944,0.027175623923540115,0.9999904632568359,0.7940152525119801,0.8683537068604191,-0.02735615149140358,0.9999939799308777,0.704289124367784,1.1457317871607795,0.1421642005443573,0.9610253572463989,0.8044872997104862,1.1457979166665722,0.028314512223005295,0.9772806167602539,0.7213659126527198,1.4057477426049139,0.1769266575574875,0.9552261233329773,0.8202016296795753,1.409137582799652,0.07875213027000427,0.9399751424789429,0.6087820165117847,0.8864361806953821,0.03656599298119545,0.9542667269706726,0.8788146871183125,0.8704763823549969,-0.07953021675348282,0.9950934648513794,0.006765633821487427,0.740102696673255,0.8749930094581068,179.8371534322896,178.746610685106,1.0,-0.02402803981795352,0.00017364278000060222,-0.05777502221923452,0.015734484691203768,90.70027397272888,0.8801937659537102,33,1.1
0.7267300956350913,0.4106457513888222,0.16803811490535736,0.9999914765357971,0.6397020487901252,0.535221377357447,-0.01015535183250904,0.9999982714653015,0.8289757232948618,0.5251375962194811,-0.07235123217105865,0.9999987483024597,0.6868575210807127,0.8850054091628237,0.029228832572698593,0.9999906420707703,0.7948600093183726,0.8718335912539311,-0.029412323608994484,0.9999940991401672,0.7058762422694949,1.1499177757176502,0.14150071144104004,0.961880087852478,0.8055180061504901,1.1491918804061754,0.026549071073532104,0.9783449172973633,0.7239875260357926,1.4106457513888222,0.17515800893306732,0.9569177627563477,0.8231274998742452,1.4129052860483204,0.07436768710613251,0.9427837133407593,0.6109987297059659,0.8899320833118052,0.04017762467265129,0.9556117653846741,0.8805369604123937,0.8737029105233652,-0.07992412894964218,0.9953122735023499,0.0066016316413879395,0.7408587651995426,0.8784195002083773,179.86726556770353,178.38035074401557,1.0,-0.01548170547942048,0.0018137411611396138,0.06858285413346117,0.01302258966977206,90.72456438339948,0.8757915918638606,34,1.1333333333333333
0.7270107392276429,0.4142346552380245,0.16365516185760498,0.9999916553497314,0.6410105850353549,0.5382286671631427,-0.010963954962790012,0.9999982714653015,0.830649037043554,0.5291328311688644,-0.07510042190551758,0.9999987483024597,0.6873919179279995,0.8904184857347898,0.029934564605355263,0.9999908208847046,0.7962578464531979,0.8776222634641373,-0.030113250017166138,0.9999942183494568,0.7079680373836733,1.1550420832457275,0.14709003269672394,0.9625142216682434,0.8072415319762888,1.1527899247137405,0.03181404992938042,0.9792333841323853,0.7272188896710281,1.4170673669398748,0.17924702167510986,0.9586513638496399,0.8262534593808036,1.4142346552380245,0.082948699593544,0.945351243019104,0.6138080840108359,0.8941305324599916,0.03486503288149834,0.9566766619682312,0.883620855613555,0.8776826234345391,-0.08151580393314362,0.9953593611717224,0.005928128957748413,0.7418248821905987,0.8840203745994636,179.75578495322955,178.12666912662306,1.0,-0.017990654489659256,0.012450507867248625,-0.0184943847196884,0.08058836364192817,90.79849560642394,0.8822059509610611,35,1.1666666666666667
0.7466902646618425,0.4275283665257073,0.15128430724143982,0.9999905824661255,0.6553794413202362,0.5576413731469868,-0.015725012868642807,0.9999980330467224,0.8491513145565117,0.5488631143856767,-0.08352340757846832,0.9999986290931702,0.7044009077062714,0.9183892644062147,0.029765430837869644,0.9999905228614807,0.8135932683415944,0.9061307852685329,-0.029943782836198807,0.9999939799308777,0.7262327648024354,1.1855693288830338,0.16302193701267242,0.9626817107200623,0.8270454598736126,1.1699346469713519,0.06632491946220398,0.978037416934967,0.7472060773341275,1.4519183801029643,0.21970097720623016,0.9596771597862244,0.8478377986906092,1.4275283665257072,0.1542089581489563,0.9452637434005737,0.630859570176152,0.9190538682920099,0.02804650366306305,0.9530770182609558,0.9060602186746927,0.9045049347049938,-0.11537545919418335,0.9952988624572754,0.005568385124206543,0.7589970880239328,0.9122600248373738,179.83100885793908,178.30439301108856,1.0,-0.025053602044108395,0.03141784078125045,-0.05176704035877109,0.14677183628573093,91.33294481584247,0.9168376254114631,36,1.2
0.7666589710519985,0.4432680334239482,0.15778343379497528,0.9999893307685852,0.6721010115905627,0.5809430794465443,-0.014791660010814667,0.9999978542327881,0.8701136090297361,0.5683160020838597,-0.0833098292350769,0.9999985694885254,0.7221776574951863,0.945670008013915,0.03102555312216282,0.9999901652336121,0.8343772051864414,0.9347870389732519,-0.03120991215109825,0.9999936819076538,0.746202915227768,1.21501017150745,0.16105152666568756,0.9624328017234802,0.8480936431402459,1.1870474827483255,0.05512453243136406,0.9773347973823547,0.7688797078728555,1.4939673230502193,0.19716788828372955,0.9602909088134766,0.8703338889486542,1.4432680334239483,0.11739303916692734,0.9455451369285583,0.6493037322119494,0.9463606310081698,0.027163613587617874,0.9511796832084656,0.9304920640484654,0.9337952958440054,-0.13045772910118103,0.9953969717025757,0.007783263921737671,0.7782774313408138,0.9402285234935834,179.55011256642308,178.15143545747407,1.0,-0.02178880928093629,0.010933521109912008,0.03092235407324427,-0.16566994711556018,92.27761219642419,0.9379092812770755,37,1.2333333333333334
0.7741049828541902,0.44864585290617565,0.15823161602020264,0.9999879002571106,0.6772329677126394,0.5923663468464236,-0.018609125167131424,0.9999975562095642,0.8773735007202806,0.5780098627552298,-0.08460939675569534,0.9999985098838806,0.7294537023988475,0.95864777104472,0.029646724462509155,0.9999897480010986,0.841685260866842,0.9484370106789427,-0.029851917177438736,0.9999934434890747,0.752587236158086,1.225224794093699,0.14332666993141174,0.9631140232086182,0.8542374224915446,1.188661746054115,0.05398065969347954,0.976664125919342,0.7781809783289491,1.508384026994864,0.14951322972774506,0.9619239568710327,0.8774487582988851,1.4486458529061756,0.10592252016067505,0.9465160369873047,0.6601738166259552,0.9588906700175372,0.028875727206468582,0.9453043937683105,0.9392586198797445,0.9485203909870976,-0.11869475990533829,0.9956210255622864,0.008743882179260254,0.7855694816328448,0.9535423908618313,179.79497349794502,177.8892537678913,1.0,-0.015885928450295374,0.015086456124038186,0.04691848041808206,0.030600576610604658,92.91555291575703,0.9589031203457965,38,1.2666666666666666
0.7806260932893664,0.4587180825432635,0.18839992582798004,0.9999871850013733,0.683156618396909,0.6001359496915752,-0.00659692008048296,0.9999974370002747,0.8861693222526684,0.5882786937944116,-0.06118283420801163,0.9999985098838806,0.737860234338485,0.9724852318414144,0.024752240628004074,0.9999892115592957,0.8501864239763585,0.9618455054142686,-0.02499466948211193,0.999993085861206,0.7593800503716757,1.2382702000367907,0.09076467156410217,0.9649356603622437,0.8611854311460615,1.1946048008492667,0.04229901731014252,0.9766436815261841,0.7883226224083816,1.5281845779038674,0.038443148136138916,0.9638369083404541,0.8842048774641006,1.4587180825432635,0.031419362872838974,0.9475479125976562,0.6691735685366433,0.9713702123845877,0.04275529831647873,0.9414286017417908,0.9491441777063623,0.9641684378311717,-0.11746623367071152,0.9958221912384033,0.0071288347244262695,0.7940233291574217,0.9671653686278415,178.9279394028459,177.72432344201897,1.0,-0.013090095745112022,0.008813548533546274,0.02206668965135564,-0.04754205931815975,92.94679936033961,0.9633389913987387,39,1.3
0.7875690999078417,0.4670440432287722,0.20045585930347443,0.9999847412109375,0.6881582418550588,0.609255320373779,0.004055769182741642,0.999997079372406,0.8920772447239282,0.5955608862609134,-0.0520610436797142,0.9999984502792358,0.7430858543359176,0.9838266043468054,0.022570360451936722,0.9999883770942688,0.8551411632962915,0.9720948253723999,-0.022825153544545174,0.9999926090240479,0.7639213255969136,1.2500551898204442,0.08880681544542313,0.9655013680458069,0.8669558396336497,1.2019080409941476,0.04469381645321846,0.9747416377067566,0.7959611063193721,1.5433751941655474,0.03771676495671272,0.9645153880119324,0.8892404128649098,1.4670440432287721,0.044110286980867386,0.9457441568374634,0.6776232184700931,0.9811527639212255,0.07313067466020584,0.9227190017700195,0.9572867332682236,0.9756641175060108,-0.08548922836780548,0.995876133441925,0.008152931928634644,0.7991135088161045,0.9779607148596026,178.24114845928062,178.1385849184165,1.0,-0.020594143399871985,0.009386987884367537,-0.055323875180189386,0.0036493143993745823,92.36558484148581,0.9659877605176371,40,1.3333333333333333
0.791922041647628,0.4717793797843626,0.23292191326618195,0.9999818205833435,0.691231493129512,0.6121959809465934,0.03032577410340309,0.9999967217445374,0.896901137465855,0.6003595601848378,-0.01911105588078499,0.9999984502792358,0.7474498086632634,0.9904507373239727,0.01864555850625038,0.999987006187439,0.8598834183858707,0.9778264505250241,-0.018923934549093246,0.9999919533729553,0.7683260933517018,1.2554142248744706,0.05798938125371933,0.9659897089004517,0.8696965451827526,1.2082569730374175,0.04354529455304146,0.9712692499160767,0.8006265866466828,1.5525180744404998,-0.03081549145281315,0.9642086625099182,0.8890771634365301,1.4717793797843626,0.017117027193307877,0.9402981400489807,0.6840948247081154,0.9861684844923934,0.13893142342567444,0.886630654335022,0.961731041287383,0.9832523831109641,-0.022724037989974022,0.9958804249763489,0.007005214691162109,0.803666613524567,0.9841385939244984,178.300281957827,178.23231207557802,1.0,-0.0013963698186296608,0.002806628261799455,0.1440171589560246,-0.04946724609399515,92.04727176092484,0.9676712212800377,41,1.3666666666666667
0.7917710326005094,0.47334697425977157,0.21357949078083038,0.9999776482582092,0.6929046163885431,0.6131871694041843,0.015362249687314034,0.9999961853027344,0.8969491937873486,0.6020735405407615,-0.033456094563007355,0.9999983310699463,0.7491201683158897,0.9921631091869026,0.015162995085120201,0.9999853372573853,0.8610402166540437,0.9787419872336506,-0.015409273095428944,0.9999908804893494,0.7700095310264826,1.2579519300101627,0.07665915787220001,0.9674087762832642,0.8709881183501871,1.213825607942179,0.07807500660419464,0.968767523765564,0.8026725918368932,1.5552837369533545,0.05035647749900818,0.9653393030166626,0.8871405195342661,1.4733469742597716,0.13135486841201782,0.9368278980255127,0.6888755961431577,0.9871537461413569,0.07275592535734177,0.8782168626785278,0.961823128886577,0.9852182829039091,-0.03629441559314728,0.9960282444953918,0.006565839052200317,0.8050801924849668,0.9854525482102766,178.22482944533377,178.86165840226357,1.0,-4.9841603282710306e-05,-0.003267824962309995,0.010372504564298224,-0.04674495235060125,91.59937958991458,0.9659035420941552,42,1.4
0.7901002748760283,0.47828565157224295,0.2062256783246994,0.9999738931655884,0.693260049878835,0.6132061595441524,0.0129336416721344,0.9999957084655762,0.8958538502196863,0.6029089175132234,-0.02681385539472103,0.9999982118606567,0.7497613914605517,0.9903863780573493,0.010983726009726524,0.9999833703041077,0.8619757014132337,0.9758667677530934,-0.011222779750823975,0.9999895691871643,0.7716213396642703,1.2586070509044165,0.0622699037194252,0.9689553380012512,0.8703657402793669,1.216239055102615,0.07538139075040817,0.9663463830947876,0.8030736160641638,1.5557670353125501,0.03238896653056145,0.9661390781402588,0.8841538952544464,1.478285651572243,0.12532846629619598,0.9323639869689941,0.6926051410269187,0.9841887877323799,0.07641159743070602,0.87101811170578,0.9601532947909794,0.9859175170078754,-0.04485637694597244,0.9961239099502563,0.00608178973197937,0.8058685464368927,0.9831265729052214,178.61744328214644,178.98709524875855,1.0,0.004179325006360239,-0.019501755258849805,0.031635673383037355,-0.12142820300241011,91.14687969362735,0.9436752470279341,43,1.4333333333333333
0.7900671503416609,0.47707699983825513,0.19823285937309265,0.9999648928642273,0.6920195037699464,0.6121363412502274,0.010137046687304974,0.9999942779541016,0.8946958167773402,0.6027459117066585,-0.03372429311275482,0.9999980926513672,0.7493302814239842,0.9873235982547688,0.010587063618004322,0.9999809265136719,0.8608205507150858,0.9727582906349717,-0.010826044715940952,0.9999884963035583,0.7714795985661579,1.2577649641236957,0.07988940179347992,0.969546914100647,0.8682319752276226,1.2168126538542674,0.12390705198049545,0.957956850528717,0.802976892263795,1.5545956519266397,0.06612257659435272,0.9665017127990723,0.88013030748064,1.4770769998382551,0.23515817523002625,0.9236600399017334,0.7032797807207368,0.981958085085872,0.12495839595794678,0.8096979856491089,0.9583018885428561,0.9849347353373833,-0.015631217509508133,0.9961131811141968,0.005550593137741089,0.8050754160695349,0.9800409444448702,178.62500714778233,179.12188875970077,1.0,-0.001206205938182823,-0.017840781418090954,-0.041596472166694064,0.012717667861678423,91.24185760060077,0.9369697869562447,44,1.4666666666666666
0.7882667489305187,0.47547964495724215,0.19238153100013733,0.9999546408653259,0.6907275009732168,0.610828331916319,0.008948528207838535,0.9999926090240479,0.8930960736713873,0.6018403046595046,-0.03676158934831619,0.9999979734420776,0.7482054577964742,0.984361326921438,0.010740621015429497,0.9999788403511047,0.8589052943947296,0.9699456876341995,-0.010980348102748394,0.9999876618385315,0.7712568885949871,1.2563945487377832,0.08530692011117935,0.9701077938079834,0.8661164365421655,1.2163075333696427,0.129339337348938,0.9497743248939514,0.8022725624060606,1.5523601682737433,0.08053265511989594,0.9669557809829712,0.8773758985673816,1.475479644957242,0.24596509337425232,0.9158144593238831,0.706156252219722,0.9791341222803229,0.13825178146362305,0.7467870116233826,0.9564822980772217,0.9833358814252756,-0.012341813184320927,0.9960362315177917,0.005320996046066284,0.8035553760956019,0.9771535072778188,178.86106674630474,179.18900805709612,1.0,-0.0021243408039861426,-0.010732429154911375,-0.007226995931553432,0.05562120627090447,91.32839840513039,0.9329260487126775,45,1.5
0.7878809056076339,0.47669580053226346,0.2240554392337799,0.9999365210533142,0.6906344722483642,0.6103795150762283,0.043873123824596405,0.9999899864196777,0.8919973062306121,0.6013743053946581,-0.00819137878715992,0.9999978542327881,0.7479088696910442,0.9824293684257926,0.010622245259582996,0.9999751448631287,0.8579523679787597,0.9688281977379682,-0.010863403789699078,0.9999863505363464,0.771521162114453,1.258623445604751,0.08892142027616501,0.9699773192405701,0.864359453689078,1.2204809993411485,0.1410401314496994,0.9387291073799133,0.8020558984820252,1.5515340875786994,0.10862903296947479,0.9640951156616211,0.8762690941785349,1.4766958005322635,0.26737236976623535,0.8967882990837097,0.7129145714358309,0.9732382514246815,0.20992548763751984,0.6784441471099854,0.9555553710737771,0.9827272226427568,0.054539550095796585,0.9956749081611633,0.00533410906791687,0.802930618834902,0.9756287830818805,178.9350756222052,178.7970708943431,1.0,-0.0013909347478759041,-0.007546552672791832,0.005604377189067778,0.024338764961979904,91.70565449039533,0.9248747759363508,46,1.5333333333333334
0.7878477467131603,0.4777201279245972,0.24402396380901337,0.9999200105667114,0.6941296604638474,0.6105253913747468,0.06641338765621185,0.9999867081642151,0.8919901867605767,0.6011533111434266,0.012676656246185303,0.9999977946281433,0.747749137498823,0.981964631617237,0.010276678018271923,0.9999716877937317,0.8574131845386354,0.9686894166860479,-0.010522497817873955,0.9999853372573853,0.7731446869364167,1.2617056317886508,0.09326891601085663,0.9701120853424072,0.862905870480369,1.2270309518616909,0.15204668045043945,0.927894115447998,0.8028731630354569,1.5515615556648241,0.12306471914052963,0.9613911509513855,0.874505978157213,1.4777201279245973,0.293753445148468,0.8787112236022949,0.7173114166425909,0.9652970528896103,0.2822681963443756,0.613389253616333,0.9553235656969581,0.981890090752748,0.11152883619070053,0.995269775390625,0.005553156137466431,0.8025811610187291,0.9753270241516425,179.33127971028176,178.56865092831117,1.0,-0.0007388489954921977,2.4930487577957592e-05,0.004893905209716977,0.0568442051862644,91.31197506693087,0.9210061963460845,47,1.5666666666666667
0.7960389038537017,0.490189248786303,0.23623013496398926,0.9998995065689087,0.7054294109599972,0.6211476011875583,0.07132308185100555,0.9999827146530151,0.9028314642698356,0.6081799553118481,-0.0005255513242445886,0.9999977350234985,0.7596897784809611,0.9933145897696052,0.014198260381817818,0.9999690651893616,0.8677675914812396,0.9803375795763419,-0.014447929337620735,0.9999846816062927,0.7838191819495044,1.2799642893785839,0.12240872532129288,0.9686842560768127,0.8701769693159814,1.2495666967410546,0.15379798412322998,0.9174190759658813,0.812488905319421,1.5697360728169334,0.17400112748146057,0.9557912349700928,0.8790204475980933,1.490189248786303,0.31568190455436707,0.8567905426025391,0.7358196750011807,0.9733115931879883,0.28792789578437805,0.5538566708564758,0.9672967495232341,0.9934155615414807,0.10474564135074615,0.9941835403442383,0.007593691349029541,0.8137286849811004,0.9868260846729736,179.16126518818328,178.4079208349908,1.0,0.012520348451318023,-0.00037584681081231957,0.1010146854014146,-0.003053540604213422,91.44825361514742,0.9133771852197003,48,1.6
0.7998052290407571,0.4974958348298897,0.22883374989032745,0.9998722076416016,0.7131016201267689,0.6292408673495924,0.06706954538822174,0.99997878074646,0.9075548312418878,0.6125452566055223,-0.00926141906529665,0.999997615814209,0.7661730242630588,0.9981673098087205,0.018806925043463707,0.9999659061431885,0.873288869052432,0.9858521022339898,-0.019058220088481903,0.9999837279319763,0.7885663146172884,1.2886609026041385,0.1356772482395172,0.9637606143951416,0.8734560026242221,1.2604110330046356,0.1518162190914154,0.8994944095611572,0.8164860084703172,1.575373226193963,0.18704122304916382,0.9455453157424927,0.8794686175266349,1.4974958348298897,0.3166705369949341,0.8273013234138489,0.7433070241156663,0.976684917877733,0.28932642936706543,0.5000191330909729,0.9736456235373575,0.9989967382870845,0.09873495995998383,0.9925636649131775,0.009729057550430298,0.8197309466577454,0.9920097060213552,178.84618767655596,178.58213347768614,1.0,0.01509782229488636,0.002601572365021618,0.018861230305293727,0.02233309930137329,91.6274944012446,0.9078366648961697,49,1.6333333333333333
0.805607297111508,0.49668257029420954,0.22456064820289612,0.9998576641082764,0.7174743801862757,0.6321524790475497,0.06233777478337288,0.9999759793281555,0.9086399390634279,0.6146924493461928,-0.015422177501022816,0.9999975562095642,0.7700398019889065,0.9993295768818654,0.021270010620355606,0.9999644160270691,0.8753549031582893,0.9885315409374589,-0.021519538015127182,0.9999834895133972,0.7906793626050118,1.2912239693953254,0.14378061890602112,0.9593953490257263,0.8741234134535464,1.2619133471336226,0.16320422291755676,0.8824471235275269,0.8173525776936943,1.576839167209055,0.21601565182209015,0.9364119172096252,0.8796090565434193,1.4966825702942095,0.34670406579971313,0.8016781210899353,0.7488767020978074,0.9666852187087113,0.27144142985343933,0.45175454020500183,0.9794190086123901,1.0004296953975185,0.07408703863620758,0.9918174743652344,0.010163694620132446,0.822697352573598,0.9939305589096621,178.70929518919428,178.40336841755388,1.0,0.016262149335008292,0.006719856992571785,0.008916496972632701,0.03195781811745081,92.29303799127119,0.9155342094988382,50,1.6666666666666667
0.8156167632962233,0.5041091468333657,0.22550518810749054,0.999839723110199,0.7253094071240952,0.6388720790044122,0.0685068666934967,0.9999733567237854,0.9150064575216325,0.6188853884119487,-0.016470234841108322,0.9999974966049194,0.779405256406628,1.0060502696394824,0.021278126165270805,0.9999600052833557,0.8831826526734882,0.9949300219931542,-0.021534094586968422,0.9999819397926331,0.8010750834003109,1.3000193985980943,0.13964544236660004,0.9576447606086731,0.8806826409456618,1.2689624647179298,0.15267843008041382,0.8645201921463013,0.8234704375520567,1.5871929867701355,0.20624668896198273,0.930754542350769,0.8859499041901023,1.5041091468333658,0.304330974817276,0.7755515575408936,0.7630827511820747,0.9707269845015872,0.27225440740585327,0.4085708558559418,0.989259940131895,1.0078376419305415,0.05873808264732361,0.9915441274642944,0.011554598808288574,0.831293954540058,1.0004901458163182,179.75670189293334,178.19409682431095,1.0,0.021687097172870085,-0.0023348149005192396,0.03961978271041028,-0.06787482272362122,92.26483456785076,0.9101339030565087,51,1.7
0.8181024855875294,0.5030055547338917,0.23312599956989288,0.9997966289520264,0.7289910317252141,0.6406547361076255,0.0736260712146759,0.999968945980072,0.917081051498397,0.6215290643115433,-0.012112287804484367,0.9999973177909851,0.7822910713540328,1.0057627207734885,0.021784698590636253,0.9999565482139587,0.8846730261730569,0.9946919026831648,-0.022038552910089493,0.9999808073043823,0.8051496851080672,1.29819578079337,0.13143566250801086,0.9556492567062378,0.8804855638242995,1.2649519945045289,0.15280833840370178,0.848954975605011,0.8245124598880602,1.5860703414107757,0.17311079800128937,0.9262245893478394,0.8848724585894305,1.5030055547338916,0.3082965016365051,0.7544868588447571,0.7660594370440302,0.9728436949724995,0.2704949975013733,0.36928093433380127,0.9950065627178877,1.008494274949794,0.0649978369474411,0.9910011291503906,0.0110606849193573,0.8334820487635448,1.0002273117283267,179.3784336835906,178.05658143712074,1.0,0.01934705436942705,0.0006695749518146986,-0.018212948894134797,0.023453073760195307,92.13405809339037,0.9132298433610008,52,1.7333333333333334
0.8208679099656773,0.49896336922682805,0.23012053966522217,0.9997929930686951,0.7345440860029351,0.6394182552282829,0.07047967612743378,0.9999673366546631,0.9199325059202267,0.6233367031029431,-0.012436972931027412,0.9999972581863403,0.7846556338065814,1.0033239210055278,0.024216003715991974,0.999955952167511,0.8869703406818572,0.9925514522082785,-0.024472137913107872,0.9999806880950928,0.807293998931707,1.2920592067903633,0.13549180328845978,0.9528599381446838,0.8794196101264969,1.2614988504953089,0.14767640829086304,0.8372587561607361,0.8228320497780146,1.578788153543069,0.1758018136024475,0.9218705296516418,0.8827634742468595,1.498963369226828,0.29528889060020447,0.7382232546806335,0.7664658682841561,0.9719923624038156,0.2552110254764557,0.335263729095459,0.9968554642284255,1.0061347694020808,0.04248065501451492,0.9906564950942993,0.009324312210083008,0.8358129872442193,0.9979376866069031,178.6187471147267,177.58507752710776,1.0,0.03596959925389776,0.002363204113970336,0.13373199538090527,0.013598640540228413,91.83020081716069,0.9223802533998229,53,1.7666666666666666
0.8315652474616355,0.4965334706647755,0.24671149253845215,0.9997637271881104,0.7369725549729016,0.6384132471200858,0.07604359090328217,0.9999647736549377,0.9230659812341634,0.6247393028003843,0.0023031674791127443,0.999997079372406,0.7860227558514375,1.0013674816667195,0.023564878851175308,0.9999547004699707,0.887981909770841,0.9905733616788112,-0.023818306624889374,0.9999801516532898,0.810681453743492,1.2793921195309008,0.11386295408010483,0.9525904655456543,0.880687647923836,1.25581492727162,0.1458846479654312,0.8275865912437439,0.8226485732217953,1.5643498673800895,0.12230002880096436,0.9213669300079346,0.8812405109760044,1.4965334706647755,0.2793557345867157,0.7317599654197693,0.7654140081663015,0.9706165141435495,0.26567262411117554,0.3034825325012207,0.9978128195774482,1.0033617706642572,0.06814347952604294,0.990023672580719,0.007941514253616333,0.8370023328111392,0.9959704216727653,177.33634413182145,178.29314531113414,1.0,0.020120558953672922,-0.0024429257764948466,-0.12336846896933419,-0.037521465635323055,91.65318520135025,0.934137925052292,54,1.8
0.837404655600045,0.49749629030526255,0.24299156665802002,0.9997615218162537,0.7418373345653044,0.6401537996036685,0.07364479452371597,0.9999639391899109,0.9284490699125758,0.6289423862912227,-0.0021024304442107677,0.999997079372406,0.7907494591271244,1.0014751358918674,0.022503722459077835,0.9999534487724304,0.8929693931157445,0.990429357826849,-0.02277780883014202,0.9999797344207764,0.8152941756044221,1.2718439003238862,0.09014539420604706,0.9509882926940918,0.8859503873838702,1.2502498155951576,0.1457524597644806,0.8110735416412354,0.8252241141059729,1.5582465269564294,0.06619773805141449,0.9191426634788513,0.8835735910050753,1.4974962903052624,0.2484496384859085,0.7189255952835083,0.7733368287632884,0.9671286283941084,0.253987580537796,0.27499672770500183,1.002837242825695,1.0049318267742255,0.026033496484160423,0.9898945093154907,0.00649753212928772,0.8418594261214345,0.9959522468593582,176.79849354992464,179.00331165250176,1.0,0.023795958472184017,-0.016487330366569502,0.028071793589048464,-0.10848950400248634,91.54188465371116,0.9368637773575984,55,1.8333333333333333
0.8399616238342607,0.49802870981362074,0.23491792380809784,0.9997503757476807,0.7465729937725256,0.6407729867886732,0.07252056896686554,0.9999620914459229,0.9317121387903659,0.6298056088987052,-0.0028804135508835316,0.9999969601631165,0.7935645345555967,1.0020142954719606,0.01994844526052475,0.9999516010284424,0.8955406248528937,0.9907847140982863,-0.020230041816830635,0.9999788403511047,0.8178101935196649,1.271262096459774,0.07467661798000336,0.951654314994812,0.8890605781208266,1.249238651935202,0.14539799094200134,0.7978612780570984,0.8261339566747757,1.5596367943540808,0.04748684912919998,0.9202840328216553,0.8852715806960965,1.4980287098136207,0.24588772654533386,0.7128595113754272,0.7744578784601615,0.968124997360454,0.26913729310035706,0.2488853484392166,1.005638688234753,1.0058209070376116,0.03106510266661644,0.9892001152038574,0.006346255540847778,0.8445525797042451,0.9963995047851234,176.5077652968638,179.43629121106176,1.0,0.010742649750081781,-0.008505079753119076,-0.10139186608917339,0.06202557409768308,91.12754042457816,0.9358564160553184,56,1.8666666666666667
0.8426477549063207,0.4976416073005611,0.22262783348560333,0.9997527599334717,0.7497239214815704,0.6404679779293694,0.0618152841925621,0.9999614953994751,0.9335928840369315,0.6312665962445496,-0.009973285719752312,0.9999969005584717,0.795352943411446,0.9984790840855111,0.018807847052812576,0.9999505281448364,0.8968878524525193,0.9891850326882115,-0.01908830739557743,0.999978244304657,0.8179093692271274,1.2637345008618799,0.0689832791686058,0.9509912729263306,0.8916677675485288,1.2469735358983418,0.14399968087673187,0.783056378364563,0.8251845594548797,1.5526353155419155,0.04045268893241882,0.9194408655166626,0.8851525719294586,1.4976416073005612,0.2394130527973175,0.7038012146949768,0.7711475115453591,0.9684679976989081,0.2627425789833069,0.22575731575489044,1.0050753142198277,1.004705047235297,0.031701989471912384,0.9885278344154358,0.005326449871063232,0.8461203979319827,0.9938320583868613,176.58198886980287,179.6711935025115,1.0,0.013960682839153235,-0.01601190940518801,0.023695562207409576,-0.05522789174329803,92.0332443895294,0.9337908367595964,57,1.9
0.8467849988213603,0.4990710563529196,0.21156194806098938,0.9997692108154297,0.7554661642623536,0.6419569395026063,0.04675237089395523,0.9999635815620422,0.9406104501577415,0.6351652896936285,-0.02044212445616722,0.9999969601631165,0.8017329230858207,0.9925820316443457,0.019579147920012474,0.9999517202377319,0.9043274537329056,0.9853031246990467,-0.01983294077217579,0.9999785423278809,0.8194183019377973,1.2537218033368025,0.10870375484228134,0.9489501714706421,0.8973461888111076,1.2497345156049056,0.12141726911067963,0.77958083152771,0.827544796699499,1.530045862380842,0.11748583614826202,0.915611743927002,0.8885296024459937,1.4990710563529195,0.21887452900409698,0.6962325572967529,0.7672011812732356,0.9750263160680477,0.21086840331554413,0.2131442129611969,1.010654747904074,1.0055836796743909,0.006942886859178543,0.9882277846336365,0.003919720649719238,0.8530301884093632,0.9889425781716962,177.8101706157746,179.48717148269108,1.0,0.03360807466785888,-0.06069359172437035,0.15100073401686348,-0.3437674231619791,93.45880246218466,0.9320256575790098,58,1.9333333333333333
0.8567782010282082,0.5023754609193049,0.182271808385849,0.9997878670692444,0.7624401969700333,0.6429705236713854,0.008964722976088524,0.9999663233757019,0.9484162050294693,0.638172052774591,-0.0344015434384346,0.999997079372406,0.8073816627341681,0.9880613576358174,0.017163051292300224,0.9999526143074036,0.9109447532201294,0.9829010171928392,-0.0173929613083601,0.9999784231185913,0.819291278959459,1.2491930241858102,0.09100689738988876,0.9492930173873901,0.9016911580534316,1.2508241793635329,0.08758020401000977,0.7828147411346436,0.8261819601563728,1.514302461783932,0.07196257263422012,0.9152164459228516,0.891030855820442,1.502375460919305,0.14085109531879425,0.6988577842712402,0.7589145300246433,0.9795346059613688,0.12541504204273224,0.24168337881565094,1.0135673140219998,1.0054897690104005,-0.0741356909275055,0.9888123273849487,0.0027639269828796387,0.8591632079771487,0.9854811874143282,178.87756782725998,179.55146654142533,1.0,0.03557745656385602,-0.043277476769679496,0.01521566382006327,0.14020547023650973,94.56734337175392,0.9239792533592677,59,1.9666666666666666
0.8886068804327019,0.5217405747480693,0.16600845754146576,0.999807596206665,0.7954417132008347,0.6668223693944536,-0.01834927499294281,0.9999693632125854,0.9892189993033627,0.6613198414343742,-0.05561644583940506,0.9999972581863403,0.8414055555713572,1.0212599159194538,0.017129160463809967,0.9999558925628662,0.9499032376596956,1.018453188209232,-0.01735173538327217,0.999979555606842,0.8439038115630635,1.2724683785630617,0.0872834101319313,0.9516609907150269,0.9355345090928586,1.2959263969735855,0.04609068110585213,0.7998537421226501,0.8543448386450879,1.5217405747480695,0.06376760452985764,0.920106053352356,0.9245253745626428,1.5563925531234934,0.052890144288539886,0.7219995260238647,0.7718664884170963,1.0154178436721357,0.003884152742102742,0.3132098317146301,1.050500330072252,1.0403749659422643,-0.12694251537322998,0.9897637367248535,0.0030557215213775635,0.8956543966155265,1.0198565520643428,178.17129323333512,179.45591431662248,1.0,0.0335032369156694,-0.017138484038124978,-0.025243886184573325,0.20612355205203495,95.9070874296744,0.9593966918439856,60,2.0
0.913349202183639,0.5368499931275984,0.1346864402294159,0.9998254776000977,0.8171489785656301,0.6821693000622333,-0.054424334317445755,0.9999722242355347,1.016745980715871,0.6764750087573012,-0.06382410228252411,0.9999973773956299,0.8630266386147479,1.0455083679932462,0.012999767437577248,0.9999591708183289,0.975012409036777,1.042564025769941,-0.013177065178751945,0.9999807476997375,0.8605116087026405,1.2913789002938356,0.0926138162612915,0.9507953524589539,0.9575324020144621,1.3259593534923415,0.04220544546842575,0.8119248747825623,0.8726419054833089,1.5368499931275983,0.08901338279247284,0.9222452044487,0.9458245533803842,1.5929071543759956,0.05190888047218323,0.7410740852355957,0.7798638797719054,1.0383876483696044,-0.0781228095293045,0.3803204596042633,1.0738671423917132,1.0576819913809157,-0.14013980329036713,0.9905391335487366,0.003090381622314453,0.9190195238257625,1.0440361968815934,176.58488758427382,178.98171092826558,1.0,0.018777386293009908,0.003497694841042996,-0.11431442996867576,0.15508643094059593,95.69039062299824,0.9736661572042037,61,2.033333333333333
0.9345805627821686,0.5579648417895176,0.15437307953834534,0.9998416900634766,0.8389429383400979,0.7002269320191485,-0.03787406161427498,0.9999748468399048,1.0442489551792502,0.695611676799636,-0.04512271285057068,0.9999974966049194,0.8864168147933785,1.073491486260791,0.003004777943715453,0.999962329864502,1.000954699731527,1.0699594296273292,-0.00327082397416234,0.9999819397926331,0.8819991807845934,1.3176357044517333,-0.0006739919190295041,0.952157199382782,0.983454068363306,1.360315914518348,0.03134974092245102,0.8229061365127563,0.8932488865075696,1.5579648417895176,-0.08412858843803406,0.9243206977844238,0.9703674655997976,1.635668848368028,-0.041076213121414185,0.7591117024421692,0.7912236127376898,1.0650241947963766,-0.05105653405189514,0.4406881034374237,1.0961235089752872,1.0790326543136886,-0.10472702980041504,0.9912402629852295,0.002441585063934326,0.9436857572624527,1.07172545794406,176.28334749738622,179.27181818352204,1.0,0.0069394651575201615,0.00527004253808482,-0.09689764500105118,0.013223553313015318,95.48198597322968,0.9783212038821736,62,2.066666666666667
0.9573291933800756,0.5702354623372394,0.1686459630727768,0.9998568296432495,0.8594886448946301,0.7148870202709081,-0.031683895736932755,0.9999772906303406,1.069954493879829,0.712665707893362,0.0016140242805704474,0.9999976754188538,0.9094051952182204,1.0968233372740526,-0.008842160925269127,0.9999651908874512,1.0247485495006985,1.0941353471450672,0.00852237083017826,0.9999829530715942,0.8997314947124541,1.3324655956902773,-0.0488126166164875,0.9533538222312927,1.005689575266805,1.3895901085741367,0.04488664120435715,0.8261854648590088,0.910887989910131,1.5702354623372394,-0.16640236973762512,0.923059344291687,0.9917515585729533,1.6725806634610672,-0.04815596342086792,0.7677493095397949,0.8007538259598959,1.0888069388755814,-0.04854816943407059,0.4954797327518463,1.1129405657115736,1.0996259378837687,-0.07332722097635269,0.9917758703231812,0.0011494457721710205,0.9670768723594595,1.09547934220956,174.96275794535794,179.1288073983082,1.0,0.01750827279585172,-0.001468647470656527,0.0791046554933357,-0.052082769505975304,96.11098306266472,0.9984181380498429,63,2.1
0.9741544972503475,0.5803927840589873,0.13190361857414246,0.9998690485954285,0.8759597127730686,0.7261187397587383,-0.07638923078775406,0.9999794363975525,1.0880471111220469,0.7265271892500218,-0.03378961607813835,0.9999976754188538,0.9283868881386197,1.1149532233941029,-0.006547027733176947,0.9999675750732422,1.0441234417317977,1.1131270347047324,0.006285200826823711,0.9999836087226868,0.9149229353294164,1.3465282672004866,0.007915277034044266,0.9519609212875366,1.0227627987577792,1.4109484616650936,0.06086995452642441,0.8298861980438232,0.9263975422729406,1.5803927840589873,0.008124989457428455,0.9228095412254333,1.0082094129680956,1.6984931541357855,0.05002322793006897,0.7783052325248718,0.810658293803601,1.1075826199234537,-0.09724111109972,0.5452975630760193,1.1265081493640972,1.11878182224011,-0.0922454446554184,0.991959810256958,0.00020778179168701172,0.9862551649352087,1.1140401290494175,173.86354922423834,178.79501658061042,1.0,0.019864000190767363,-0.002271534475907075,0.01608616882203561,-0.006088666137678131,96.77498563529068,1.0152887854722843,64,2.1333333333333333
0.9701004245588742,0.5760545421925917,0.15318259596824646,0.9998804926872253,0.8707427730344488,0.718865086465961,-0.05110185593366623,0.9999814033508301,1.0798859817644098,0.7210159405123261,-0.025915469974279404,0.9999976754188538,0.9247227834964914,1.1060541147550564,-0.003571395529434085,0.9999696612358093,1.036519274379714,1.1051728374204988,0.00332539901137352,0.9999839067459106,0.9082794069027963,1.3304617284934224,0.050332628190517426,0.9528315663337708,1.0156718373038984,1.400794452267876,0.06509532034397125,0.8377317190170288,0.9196896047482204,1.5760545421925918,0.03662943094968796,0.924325168132782,1.0008558637015101,1.6862413091335842,0.057824186980724335,0.7893263697624207,0.8050961022058394,1.100184088913986,-0.05010393261909485,0.5902889966964722,1.1113998172195683,1.1086867810435233,-0.0686504989862442,0.9920069575309753,0.0011022388935089111,0.9806210289381027,1.1056134760877776,173.14912601338318,178.93738277691173,1.0,0.012574022655206405,-0.002042497113697942,-0.0562731623232706,0.0016728641449894018,97.48509571756955,1.0070983564372622,65,2.1666666666666665
0.975283026221891,0.5766163440968717,0.151582732796669,0.9998900890350342,0.8735250794391345,0.7195337279213796,-0.05751273036003113,0.9999831914901733,1.081609790124315,0.7221152339793546,-0.02847236953675747,0.999997615814209,0.9279834382782642,1.1079391710714719,-0.002096760319545865,0.9999715089797974,1.0388279834324523,1.107342004808907,0.0018642417853698134,0.9999841451644897,0.9099568240053147,1.3274086672070486,0.10117284208536148,0.9535285830497742,1.0176240950819193,1.4008927431714913,0.0670371800661087,0.8457566499710083,0.9210490271171161,1.5766163440968717,0.1091994047164917,0.9264971017837524,1.0026999488883939,1.6892980639753248,0.06479570269584656,0.8011845350265503,0.8074325235622872,1.1025418367401036,-0.050801753997802734,0.630818247795105,1.1109163798860653,1.1096618063935708,-0.05164528638124466,0.9919630289077759,0.0013205409049987793,0.9834057108553582,1.1076405879401894,172.75587862592164,178.83081061343609,1.0,0.007621199902615921,0.0001823380004440009,-0.03761413954624782,0.016847093609078413,97.6727419350232,1.0101314855599777,66,2.2
0.9678557076942961,0.5722506928741425,0.14360566437244415,0.9998968839645386,0.8697416282070848,0.7117721089997794,-0.06859160214662552,0.9999847412109375,1.073897241612876,0.7168147910651662,-0.030806267634034157,0.9999973177909851,0.9202783113413602,1.100139621964304,-0.0022524953819811344,0.9999733567237854,1.0308032642404974,1.0996349140764325,0.0020419233478605747,0.9999845027923584,0.9037489544551464,1.3197935395307652,0.1220417246222496,0.9545655846595764,1.0124393948457546,1.3868413559170636,0.0831286683678627,0.8533049821853638,0.9153687485847757,1.5722506928741424,0.15104500949382782,0.9300752282142639,0.9958725493406342,1.673088598218388,0.1071147546172142,0.8141573667526245,0.8033272422041318,1.0955633492285848,-0.06502421200275421,0.6672927141189575,1.0978833624930764,1.0983643507300966,-0.03834216669201851,0.9914016127586365,0.0025976896286010742,0.9755407877909288,1.0998872680203684,173.0612181289078,179.6538655791674,1.0,-0.007440496166435507,-7.090122329829514e-05,-0.11284348248125954,-0.0018944403549981022,97.15237013840381,1.008656638149746,67,2.2333333333333334
0.9642119522339874,0.5713008152830009,0.15129795670509338,0.9999015927314758,0.8708030146692094,0.7059841362653098,-0.056822411715984344,0.9999861121177673,1.0708148416525585,0.7146941614221688,-0.029587771743535995,0.9999967217445374,0.9171422315902187,1.097320438267618,0.0001242821163032204,0.999975323677063,1.0275010824574395,1.096676819603023,-0.00024267977278213948,0.9999851584434509,0.9013044008781967,1.3207733462487838,0.18492132425308228,0.954412043094635,1.0108641515192338,1.3832743955329772,0.11990729719400406,0.860395610332489,0.9129574410331129,1.571300815283001,0.2850648760795593,0.9315603971481323,0.9931274842073714,1.6653034097192996,0.2063780128955841,0.8236386775970459,0.8027342254724952,1.0928482231688297,-0.054799359291791916,0.6993892788887024,1.0883733542103629,1.0907956357854516,-0.02961350418627262,0.9837431311607361,0.004499346017837524,0.9723216570238291,1.0969986289353206,173.282648561241,179.72371546239455,1.0,-0.00404701690621566,0.0012285828655445735,0.02636801822158201,0.010157400352136223,96.41895800727384,1.007856750727682,68,2.2666666666666666
0.9633869956094502,0.5741096844427462,0.15097513794898987,0.9998841285705566,0.8738542683498309,0.7037845242129093,-0.06897881627082825,0.9999873042106628,1.0709110859581707,0.7145477589451146,-0.01754765585064888,0.9999918341636658,0.9179311209960564,1.0956046342289862,-0.0002803114475682378,0.9999770522117615,1.0267977247002675,1.0956443149949173,0.00016211174079217017,0.9999850988388062,0.9034273973195297,1.3242019508748657,0.17335020005702972,0.9535751938819885,1.0121333746674646,1.3833648193674437,0.12666641175746918,0.8608856201171875,0.9135683130627871,1.5741096844427462,0.2627667486667633,0.9330605864524841,0.9928868189781338,1.6631795078835243,0.2047957479953766,0.8294553160667419,0.8036296365720548,1.092541486731023,-0.07950831949710846,0.7266437411308289,1.0811491849726402,1.0889964024886991,-0.007082540541887283,0.9011525511741638,0.005561619997024536,0.9723644228481619,1.095624474611952,174.04593348968086,178.98289831272137,1.0,0.0027440753150116404,-0.00871571386378948,0.05638333251525396,-0.08257448888303968,96.4392502842764,0.9965990034208164,69,2.3
0.9576509759821034,0.5705712011334307,0.14473016560077667,0.9998750686645508,0.8709460690658849,0.6985989899632393,-0.06742455065250397,0.999988317489624,1.0650353620694035,0.7109990148095173,-0.018677864223718643,0.9999855160713196,0.9127786667517054,1.0867657607965309,0.0005059983814135194,0.99997878074646,1.0207821450012036,1.088580020873856,-0.0005893391789868474,0.9999853372573853,0.9001118828127478,1.3191507276053562,0.17147783935070038,0.9525350332260132,1.006314866235887,1.3742601392687794,0.12804754078388214,0.8606802225112915,0.9088317104580405,1.5705712011334307,0.2592913508415222,0.9341347813606262,0.987520939671092,1.6508744633774637,0.20564362406730652,0.8348802328109741,0.800403631571452,1.0864248414142716,-0.07447213679552078,0.7483221292495728,1.0639349449650928,1.0771725279774425,-0.01830362156033516,0.8165332078933716,0.0064431726932525635,0.9667804058764544,1.0876728908351934,174.8936725336917,179.01221246701976,1.0,-0.001407676418006361,-0.014305772584054651,-0.03170115274435549,-0.043211728026625845,97.11337965596925,0.9881533186069834,70,2.3333333333333335
0.957782674305433,0.5709592027512747,0.14586208760738373,0.9998418688774109,0.8699167140025656,0.6968366340249297,-0.060424815863370895,0.9999890923500061,1.062745308136669,0.711749159344198,-0.030857345089316368,0.9999780654907227,0.911789752596377,1.0837246701426213,0.008091932162642479,0.9999802112579346,1.0184692428843325,1.0853646558468364,-0.008187162689864635,0.9999853372573853,0.9023210846114026,1.3202395482678495,0.17486527562141418,0.9509082436561584,1.0040726044543595,1.3704705497443632,0.11689897626638412,0.8616839051246643,0.9091132995903356,1.5709592027512747,0.24683937430381775,0.9355273246765137,0.9856231659485576,1.6451303780621518,0.17456617951393127,0.841783344745636,0.803318423956109,1.0849963859871086,-0.05321618914604187,0.7637167572975159,1.051587544167771,1.0668499659204422,-0.018541354686021805,0.7398680448532104,0.007764548063278198,0.9651294977403547,1.0845446629947288,176.15562415383476,179.0478417356352,1.0,0.0024400067305690282,-0.006845322475846692,0.029014096400225915,0.056078374225231646,97.05783931385623,0.9805933682065018,71,2.3666666666666667
0.9724211030104298,0.5843171876751386,0.14563313126564026,0.9998276233673096,0.8812868797475361,0.7026005961363686,-0.06256864964962006,0.9999897480010986,1.071638525402287,0.7223030982075852,-0.029934708029031754,0.999974250793457,0.9199739852654741,1.0894886781765167,0.0054427520371973515,0.9999813437461853,1.0265870679203208,1.0925188822114094,-0.005533228162676096,0.9999850988388062,0.9153683637232977,1.3350229366244082,0.16192439198493958,0.9546935558319092,1.0120412804984265,1.3819733219682404,0.11255247890949249,0.8713477253913879,0.9195083727711983,1.5843171876751385,0.22496025264263153,0.941103458404541,0.9939393610575262,1.658478574379619,0.16493159532546997,0.854728639125824,0.8256428678866826,1.0942872515680007,-0.04348677769303322,0.773871123790741,1.0503445601719448,1.0689948022477302,-0.014740286394953728,0.6685786247253418,0.010173231363296509,0.9732805265928974,1.0910037801939632,177.97397865114084,179.1312044220171,1.0,0.00045046260120621464,-0.02121003505895846,-0.016163997569011938,-0.11505572677592951,97.33839107668118,0.9548348828178878,72,2.4
0.9761250429007929,0.5905130309566564,0.1559949815273285,0.999824583530426,0.8827184953018711,0.7076691912326295,-0.054591767489910126,0.9999904036521912,1.0746512009211455,0.7276866665030145,-0.01756313070654869,0.9999722838401794,0.9230218508038949,1.0922508314995802,0.00404159864410758,0.9999823570251465,1.0291051485120082,1.0950006507488708,-0.004132991190999746,0.9999849796295166,0.921704952777864,1.344749614529717,0.16743488609790802,0.9581703543663025,1.0146373337174528,1.3858211315990219,0.10609760135412216,0.8810511231422424,0.9263236486771271,1.5905130309566564,0.23348358273506165,0.9461160898208618,0.997776337844729,1.663994389201552,0.1470898985862732,0.8669859766960144,0.8374666693839099,1.099492554830803,0.0010534032480791211,0.7816181778907776,1.0505322708912388,1.0594236773471308,0.027917111292481422,0.6050257086753845,0.010304152965545654,0.9760634996579516,1.0936257411242254,178.62453093139555,179.37937588669013,1.0,-0.0014574580717561074,-0.005048072274700631,-0.013100172589567858,0.11133863369506461,97.46749037572836,0.9424871289149257,73,2.433333333333333
0.974430217196627,0.5940811406460715,0.17021474242210388,0.9997920989990234,0.883393951682054,0.7129769856353855,-0.03712194040417671,0.9999907612800598,1.075610208890445,0.7314099010362661,-0.006528554018586874,0.9999663233757019,0.9249828578427856,1.0944471821761699,0.004268410615622997,0.9999831914901733,1.0295260355193965,1.096978242059961,-0.0043662055395543575,0.9999847412109375,0.9254469995468775,1.3489869467902684,0.1717253029346466,0.9588879346847534,1.0155869374297197,1.3858134563280817,0.10845806449651718,0.8844452500343323,0.930288328677514,1.5940811406460715,0.24439120292663574,0.9482781291007996,1.0014811589379988,1.6656442171440826,0.15535776317119598,0.8743499517440796,0.8440603925897628,1.1018809889170291,0.016808293759822845,0.7830492854118347,1.0528706871518465,1.0562076589586744,0.02280932478606701,0.5498364567756653,0.009472101926803589,0.9772544466810911,1.0957127121180654,178.97286361833687,179.87719564387558,1.0,-0.003784729882576125,0.0014834553141146282,-0.017681787582578767,0.04974447784210074,97.60886422083459,0.9389200115605593,74,2.466666666666667
0.9645146637431394,0.5922548988791505,0.17927901446819305,0.9997843503952026,0.8790304939101963,0.7160370785034555,-0.03031778894364834,0.9999911785125732,1.068018606979568,0.7294174948421197,0.0018118784064427018,0.9999629855155945,0.9230740821589645,1.0924443921145575,0.004063529893755913,0.9999840259552002,1.0262991835090465,1.0947575583546256,-0.004164059646427631,0.9999847412109375,0.9240900576514428,1.3469998853257676,0.1719590127468109,0.959543764591217,1.01183807396378,1.3783964281842056,0.114676333963871,0.8878387212753296,0.9346548482164104,1.5922548988791505,0.2517765164375305,0.9498479962348938,1.0001808970095147,1.6592403958014992,0.17177997529506683,0.8810157179832458,0.8428782989174602,1.1020835109741967,0.03504418954253197,0.7852872014045715,1.0478552763721356,1.0457679853740283,0.039510950446128845,0.5010629296302795,0.006888717412948608,0.9746866328340055,1.0936009752345917,177.76208482486427,179.45819548215712,1.0,-0.005724953585683654,-0.0004212385828081468,-0.015220784684179839,-0.014865741088934606,97.95758043961695,0.9422226621097691,75,2.5
0.9550527183340667,0.5903983020474434,0.17474684119224548,0.9997871518135071,0.8740236558983198,0.7174025805614991,-0.027188804000616074,0.9999915361404419,1.0596164974804974,0.7277263059326516,0.0010952469892799854,0.9999600052833557,0.9207346298436382,1.0907077572294914,0.00908118300139904,0.9999850392341614,1.0214437705198258,1.092173840883751,-0.009180912747979164,0.9999852180480957,0.9218656581952805,1.3448124736269638,0.17405067384243011,0.9599441885948181,1.0083403228019177,1.3734239311776297,0.10635466873645782,0.8920271992683411,0.9321294573248302,1.5903983020474433,0.24895894527435303,0.9519654512405396,0.9990663757383439,1.6534381655381232,0.16216696798801422,0.8879797458648682,0.8415791148322013,1.1031161298905043,0.017780378460884094,0.7897682189941406,1.0434421910559535,1.0410788896320435,0.006060146726667881,0.45707082748413086,0.005324125289916992,0.971089200181732,1.091440799056621,177.86184675118605,179.22943472225634,1.0,-0.014447896907216545,-0.0021742316579804895,-0.06533350336448496,-0.013120321168211579,97.96627416370835,0.9449419403985395,76,2.533333333333333
0.9507267008251751,0.5887709429787921,0.17235282063484192,0.999775767326355,0.8709650889609658,0.7179437900754025,-0.028899619355797768,0.9999917149543762,1.0556103356007367,0.7264831863160044,-0.0024927393533289433,0.9999552369117737,0.918690734027019,1.0893987828960905,0.010010598227381706,0.9999858736991882,1.0182500946939692,1.0900006227322432,-0.010116946883499622,0.9999855160713196,0.9205833437073946,1.3432394508205723,0.17397846281528473,0.9591550827026367,1.006267087261986,1.3707149283578008,0.1018761619925499,0.8940143585205078,0.9305188952487607,1.5887709429787922,0.2508118748664856,0.9531266093254089,0.9983822235858076,1.6502093944381988,0.1565782129764557,0.8930492997169495,0.8403839147165019,1.1033699163997834,0.01329264510422945,0.7923269867897034,1.042345503968432,1.0370200178693565,-0.01670580357313156,0.41643455624580383,0.004409581422805786,0.9684704143604941,1.0896997028141668,178.10994605742448,179.17161915163928,1.0,-0.010492799211147014,-0.002592281468690934,0.030126739113824665,-0.0032207625204762613,97.66777216708947,0.9460847050633426,77,2.566666666666667
0.9499798991283782,0.5972616166879531,0.15306662023067474,0.9997358918190002,0.8737975666718556,0.7229707678382109,-0.03600127249956131,0.999991774559021,1.0592339528525048,0.730076015468243,-0.024518001824617386,0.9999499320983887,0.9210858172322809,1.0952315998118078,0.011915589682757854,0.9999866485595703,1.0208300032531559,1.0952748823929304,-0.012031527236104012,0.9999858140945435,0.9250471017177209,1.3503696512288452,0.18420343101024628,0.9554397463798523,1.0110310821730246,1.3760225292216892,0.10033348947763443,0.8939158916473389,0.9350418967842725,1.597261616687953,0.2689749300479889,0.9523195624351501,1.0038259829047729,1.6580408041021675,0.1537759006023407,0.8964294195175171,0.843845092222358,1.1112078619269417,-0.009583057835698128,0.7881061434745789,1.0466333839476512,1.037806058180492,-0.016078006476163864,0.3781414330005646,0.003649681806564331,0.9709579102427184,1.095253241102369,178.57129680294986,179.46451353420403,1.0,-0.01995623434567431,-0.0016514084057622288,-0.07104681294368179,0.007209041600932024,97.26436482326793,0.9361970640138361,78,2.6
0.9493936262994633,0.5970261742340378,0.158625528216362,0.9997363686561584,0.871388052247282,0.7241852549633386,-0.03365994244813919,0.9999921917915344,1.057317840726646,0.7299167141266413,-0.022330164909362793,0.9999485611915588,0.9181074076085418,1.094724423483149,0.011423548683524132,0.9999874234199524,1.0171559105422412,1.0941547877483178,-0.01154277939349413,0.9999860525131226,0.9238465253496605,1.350210053902463,0.17714035511016846,0.9578651785850525,1.0097903313472087,1.3721583775326105,0.09091204404830933,0.9008800983428955,0.9347801315140266,1.5970261742340377,0.25278347730636597,0.9554886817932129,1.0037655834652697,1.6561264909278344,0.13224256038665771,0.9040864109992981,0.843074522139556,1.112853205486141,-0.017577601596713066,0.8007310628890991,1.0470251762981406,1.0395028283359953,-0.02076263166964054,0.3444507420063019,0.0029440224170684814,0.9676316590753915,1.0944396056157335,178.75038700342722,179.69775045528706,1.0,-0.024261639229407893,-0.005932833121985868,-0.031406277372123766,-0.031231312746757035,96.85669724848363,0.9353676622896584,79,2.6333333333333333
0.9479358545205328,0.6038957120898046,0.12285444885492325,0.9997442364692688,0.8730631811764031,0.7286862992886334,-0.05926801636815071,0.9999925494194031,1.058974993821896,0.7354657445051019,-0.050778549164533615,0.9999495148658752,0.9168973168519379,1.095163438030455,0.01187925785779953,0.9999882578849792,1.0164881774205707,1.09410976451732,-0.011996878311038017,0.9999867677688599,0.9265795818780515,1.3538424425217717,0.15662047266960144,0.9594334959983826,1.0134562280971713,1.3722556699078854,0.06946320831775665,0.9065759181976318,0.9398587597118948,1.6038957120898047,0.22622868418693542,0.95790696144104,1.0084606939962237,1.6590886394535496,0.10366086661815643,0.9108997583389282,0.8456115291027317,1.1180996379651498,-0.05312860757112503,0.8127885460853577,1.0519960537087834,1.0618751902328418,-0.0774276927113533,0.32419276237487793,0.003465712070465088,0.9666927471362543,1.0946366012738875,179.10370087691396,179.62675937502775,1.0,-0.042553063506985234,-0.03852711273484533,-0.13862851950110006,-0.24839241874848828,96.21454620820002,0.9146779064872224,80,2.6666666666666665
0.9573739196025983,0.6176183914445176,0.10705660283565521,0.9997508525848389,0.8774818214871364,0.7412600564574082,-0.06382054835557938,0.9999929666519165,1.0667093257341218,0.747360735591728,-0.07570261508226395,0.9999527335166931,0.9218559407223753,1.1081563645510226,0.01647951267659664,0.9999889135360718,1.02314765531906,1.1051155790422882,-0.016614938154816628,0.9999874234199524,0.9365857038849338,1.3666904830077826,0.16455724835395813,0.9587469696998596,1.0242801061208193,1.382217125413825,0.06297527253627777,0.9107573628425598,0.9507955375470073,1.6176183914445177,0.23965239524841309,0.95917147397995,1.0203945531251355,1.6639173585741334,0.1037222370505333,0.9166954159736633,0.8472619218578279,1.1311874249718907,-0.04877989739179611,0.8268977403640747,1.0657028469619716,1.098444723137246,-0.09479950368404388,0.35391470789909363,0.003082871437072754,0.9725017980207176,1.1066359717966554,179.98029607815818,178.97560340501153,1.0,-0.04088218863066467,-0.005491673713647496,0.01629883287782566,0.2519921997240543,95.1766119712311,0.9156966179288197,81,2.7
0.9520546927979646,0.6192493863994486,0.09622503072023392,0.9997690320014954,0.8760712381941692,0.7458504118154488,-0.06878907233476639,0.9999933838844299,1.0668110871218999,0.751857102799519,-0.08290769159793854,0.9999570250511169,0.9207976756874424,1.1119753775194368,0.016224084421992302,0.9999894499778748,1.0231536024081436,1.108829818587483,-0.016374807804822922,0.9999881386756897,0.9368051045128256,1.367316280619453,0.15991966426372528,0.957707941532135,1.0262998713718339,1.3770222961207474,0.06578683853149414,0.9146012663841248,0.9543314095615122,1.6192493863994486,0.22257836163043976,0.9605938196182251,1.0242759259065315,1.6527729431519598,0.11158575862646103,0.9219875335693359,0.841887292757268,1.1332642590792201,-0.042530789971351624,0.8414949774742126,1.0852088377886937,1.1212519421586846,-0.08858264237642288,0.41639289259910583,0.003025442361831665,0.971975639047793,1.1104025980534598,179.60770113923238,178.90734192355507,1.0,-0.028234972193170067,0.0010102126595836597,0.09703020763632887,0.04949586982459153,95.20460283536457,0.9347037034256099,82,2.7333333333333334
0.9522366025253278,0.6180648333347727,0.1021939069032669,0.999788224697113,0.8726532599741885,0.7475133514250768,-0.06258895993232727,0.9999937415122986,1.0638754322066553,0.7512310946743007,-0.0870741754770279,0.9999610185623169,0.9176897051086835,1.1112140613519026,0.018623391166329384,0.9999896287918091,1.0205581719665207,1.1066329990986465,-0.018771875649690628,0.9999886155128479,0.9364042961640243,1.3654639036830567,0.15142862498760223,0.9574142694473267,1.0254260016422876,1.3713968187981251,0.05389348417520523,0.918411135673523,0.9569152650770871,1.6180648333347727,0.19944289326667786,0.9612768292427063,1.0277751520997136,1.6447572727897584,0.09838096797466278,0.9253746867179871,0.837053580671024,1.1294515939784993,-0.0376846045255661,0.8552708029747009,1.0923919916648162,1.115349593030416,-0.12580808997154236,0.4739557206630707,0.001873105764389038,0.969123938537602,1.1089235302252745,179.56760232696263,179.43906888865692,1.0,-0.01885137092031144,-0.008449564102423172,0.06897435840287298,-0.06959442007093553,94.50902711335645,0.9390901582317294,83,2.7666666666666666
0.9589331358460882,0.6269019830386177,0.09832707792520523,0.9998058676719666,0.8722842313883185,0.7598706938625519,-0.06468234956264496,0.999994158744812,1.0661784830453165,0.7567404963051289,-0.08788450807332993,0.999964714050293,0.9224725994820864,1.122907699035946,0.017932642251253128,0.9999896883964539,1.0267439150897353,1.1178051211431612,-0.01806819625198841,0.9999889731407166,0.9467816174176669,1.3714069267590592,0.15205322206020355,0.958399772644043,1.0363579010528612,1.3686970196045407,0.06286457180976868,0.9229305386543274,0.9687861257155762,1.6269019830386178,0.20773443579673767,0.9630047082901001,1.0392681743450958,1.6369478028866122,0.10603679716587067,0.9296252727508545,0.8411071407381321,1.1306330995768268,-0.037088923156261444,0.8688544034957886,1.1082601568286694,1.124914709817199,-0.11905596405267715,0.5263752341270447,0.0015597045421600342,0.9746082572859108,1.1203564100895536,179.33536485957754,178.42712506158213,1.0,-0.0401299478888586,-0.006971560771710317,-0.15910288325378588,0.011872394171957247,95.06944708832447,0.9634820740219562,84,2.8
0.9703249320874904,0.6354809283371701,0.10736189782619476,0.999822735786438,0.8831717937852962,0.7700814076310681,-0.04495740309357643,0.9999945163726807,1.0786402801174466,0.7603236814548165,-0.07559789717197418,0.9999681115150452,0.9317774111709471,1.1357917053987585,0.017457058653235435,0.9999896883964539,1.0377662547507809,1.1289803994123908,-0.017600728198885918,0.9999892115592957,0.9604789759302665,1.3876385427635365,0.1320224553346634,0.9603014588356018,1.0526847673243724,1.380239360535312,0.0308353491127491,0.9281009435653687,0.9832765350302455,1.6469081065330295,0.15542814135551453,0.9646239280700684,1.0552206207664856,1.63548092833717,0.06447578221559525,0.9329639077186584,0.8517668357094039,1.1384784114768394,-0.011765474453568459,0.8812189102172852,1.1281398480393314,1.140611708045658,-0.11503554880619049,0.5736017227172852,0.004792332649230957,0.984771832960864,1.1323860524055747,178.52346419473238,177.1712709351023,1.0,-0.030135206996560457,-0.032043213594927795,0.07941352345558475,-0.18745292521893636,93.89364538769091,0.9747789935763238,85,2.8333333333333335
1.0060811058953147,0.6586665662220422,0.10812145471572876,0.9998388290405273,0.9138145572510817,0.7968083720594444,-0.03409380093216896,0.9999948740005493,1.1156168477024078,0.7854319511211346,-0.07254348695278168,0.9999711513519287,0.9626033991088678,1.170764838731447,0.017132410779595375,0.9999899864196777,1.0728934800452627,1.1637499117185919,-0.017261192202568054,0.9999895691871643,0.9936528414057852,1.4358289114156886,0.03589918464422226,0.9632417559623718,1.089396782947014,1.4205786552034239,-0.02976566180586815,0.9333058595657349,1.0171503546166076,1.7007947994795714,-0.024479825049638748,0.967032253742218,1.0912414484742619,1.6586665662220423,-0.058160774409770966,0.9367747902870178,0.8816305929214789,1.1675065406714409,-0.021685214713215828,0.8924494981765747,1.1728016046028749,1.1793027573618846,-0.16264142096042633,0.6161324381828308,0.0054006874561309814,1.0177484395770653,1.1672573752250195,178.38666096980313,176.76725160908668,1.0,-0.007839169752990432,-0.03165745020288903,0.17334979221254165,0.011090841592583094,93.79384501912791,0.9901799511895178,86,2.8666666666666667
1.0360126278750688,0.6802235788826716,0.11272837221622467,0.9998530745506287,0.9395787270782473,0.8238390363342822,-0.019494298845529556,0.9999951124191284,1.1435487099642692,0.8084827204130616,-0.07343918830156326,0.9999738335609436,0.9901415318115423,1.2022454035664223,0.019511209800839424,0.9999902844429016,1.1022627075132858,1.1956493561290542,-0.019688688218593597,0.9999899864196777,1.0234749556061362,1.4786165733558763,0.038218870759010315,0.9657145142555237,1.1239621670330995,1.443277364951353,-0.0472843274474144,0.9378197193145752,1.0467702809946449,1.7461500656684137,-0.013883953914046288,0.9691473841667175,1.1235466913858523,1.6802235788826716,-0.06008889153599739,0.9400113821029663,0.9074927640683738,1.1889708597140984,-0.021431488916277885,0.9024099707603455,1.2090696718414384,1.2126520669945757,-0.19006511569023132,0.6544315218925476,0.007082760334014893,1.046202119662414,1.1989473798477381,178.09915950528043,174.89153988375736,1.0,-0.010165709097414473,-0.018858327080227857,-0.016000602582319026,0.10472411112391454,94.24399329133921,1.0060281232916,87,2.9
1.0333457547167675,0.6816920990234153,0.10865852981805801,0.9998654127120972,0.9399281974610572,0.8248361130949173,-0.024039287120103836,0.9999952912330627,1.1437718965693113,0.8094011480928821,-0.08029265701770782,0.9999762177467346,0.9908097717844082,1.2038377482284974,0.018935665488243103,0.9999905228614807,1.1028797794862697,1.1976155859750441,-0.01910940557718277,0.9999902844429016,1.0251818592087827,1.4786790004255526,0.06018131226301193,0.9668163657188416,1.1252688002683588,1.4459523959373861,-0.022454524412751198,0.9400038123130798,1.04774798334711,1.744955901717081,0.031663838773965836,0.9704561829566956,1.1246566358551242,1.6816920990234154,-0.018741978332400322,0.9416069984436035,0.9081563210729902,1.1857027009038028,-0.049170106649398804,0.911263644695282,1.2102169619607477,1.2134988721465774,-0.18966899812221527,0.6888282299041748,0.0071115195751190186,1.046844775635339,1.200726667101771,177.7155696889909,174.69959245027312,1.0,-0.003482967331702065,0.0038525019672301392,0.05034847873254508,0.17098104823945295,94.46851344657722,1.0099236852222586,88,2.933333333333333
1.0323517238562818,0.6896108397519704,0.1391526609659195,0.9998732805252075,0.9509651647466167,0.8343528935308202,-0.009588662534952164,0.999995231628418,1.1577191451218445,0.8191551745532435,-0.05031454563140869,0.999978244304657,1.0016069935437526,1.218118907836034,0.018502632156014442,0.9999908208847046,1.1145644899585483,1.2120358410478274,-0.018677053973078728,0.9999906420707703,1.0372869755117065,1.4968458317647793,0.04416055232286453,0.9666975736618042,1.1386815663167242,1.4557074776968617,-0.034986160695552826,0.9416742920875549,1.0597342288970346,1.7640548123939426,-0.003929913509637117,0.9712308049201965,1.1378787894653897,1.6896108397519705,-0.055619724094867706,0.9427004456520081,0.9193077715291583,1.1911529095523246,-0.0334012508392334,0.918245792388916,1.2248395624349127,1.2264481267143925,-0.15354396402835846,0.7195695638656616,0.006920486688613892,1.0580857417511504,1.2150773744419308,177.50714505417517,174.15099149981606,1.0,-0.008668425644887545,0.0013246906773087934,-0.039772382556340864,-0.019895016101787108,94.43477222910671,1.0247793811764732,89,2.966666666666667
1.0469282259719617,0.7024425324036974,0.1290574073791504,0.9998824596405029,0.9635320021842843,0.8451642871518134,-0.01789112016558647,0.999995231628418,1.1723691360771276,0.831889157190549,-0.05128052085638046,0.999980092048645,1.0145668681747335,1.2334211401446442,0.018242087215185165,0.9999909400939941,1.1274582895542609,1.2279528701222875,-0.018411384895443916,0.9999908208847046,1.0497092428577255,1.5162870085816376,0.037696875631809235,0.9678369760513306,1.1519743933455588,1.468785921910181,-0.022510994225740433,0.9429070353507996,1.072131775864853,1.7889724149569757,-0.007772416807711124,0.972584068775177,1.152695989610393,1.7024425324036974,-0.026424631476402283,0.9438178539276123,0.9315899288184607,1.203876010372366,-0.0247245691716671,0.9251673817634583,1.2408042065043794,1.2409829809511717,-0.15938690304756165,0.7474132776260376,0.005966275930404663,1.071012578864497,1.2306870051334657,177.61881287191815,174.36442356713025,1.0,-0.0075791225321839425,-0.003109545280547245,0.008804451820560978,-0.03256215376655098,94.71523448291073,1.0234362502009935,90,3.0
1.0658841822431202,0.7256046209277696,0.12540054321289062,0.999891459941864,0.9812475985638651,0.8633052173427339,-0.01644330658018589,0.9999952912330627,1.1933487268686165,0.8513592010184456,-0.05399944633245468,0.9999818801879883,1.0338018069484054,1.25806392279808,0.01799701526761055,0.9999909400939941,1.1488594894274597,1.2523117013724483,-0.018201570957899094,0.9999909400939941,1.0673393460357725,1.546583296513003,0.030529310926795006,0.9691110849380493,1.1747531414943415,1.4865119928785626,-0.012864719144999981,0.9437405467033386,1.093377980265926,1.823561170368513,-0.025154758244752884,0.9738272428512573,1.1752335301547348,1.7256046209277696,-0.016999801620841026,0.9444848299026489,0.9537671221297556,1.228125106082448,-0.005181929562240839,0.9309764504432678,1.2645405140618498,1.263935700410589,-0.15278054773807526,0.7725204229354858,0.0052648186683654785,1.0913306481879326,1.2551878120852642,178.74026521839275,173.80600775387714,1.0,-0.0065515488185004965,0.0012505116352962223,0.008960529295772993,0.03364851813801126,94.7211177983169,1.0173109282448458,91,3.033333333333333
1.076588268970998,0.7429773482090274,0.12112580239772797,0.9998942613601685,0.9903542701576091,0.8757661248831451,-0.01838192157447338,0.9999948740005493,1.2049171287954585,0.8650756108747862,-0.054163265973329544,0.9999833703041077,1.0458931929687825,1.2744386859268373,0.01775362528860569,0.9999901652336121,1.1623120195812708,1.2671006353404282,-0.017975594848394394,0.9999905228614807,1.0784147085030968,1.5647881122157443,0.04361042380332947,0.9682576656341553,1.1884137670958461,1.4945871819740215,0.0011643185280263424,0.9395092129707336,1.1064054279790614,1.845408204035791,0.002762522315606475,0.9738161563873291,1.188063339193411,1.7429773482090274,0.01717158779501915,0.9409435391426086,0.9769273124136587,1.2448732986253266,0.00303977495059371,0.93129563331604,1.2787887263197764,1.2768763560095717,-0.16018055379390717,0.794970691204071,0.0046568214893341064,1.1041026062750268,1.2707696606336327,179.30522216128625,173.37368850992087,1.0,-0.0003152275033576592,0.006455106486667291,0.048239206260110114,0.039655893410933965,94.32414496201149,1.006301407905423,92,3.066666666666667
1.0685175685577564,0.7352025486290416,0.11290039122104645,0.9998880624771118,0.9820997322241107,0.868729447866451,-0.02108917012810707,0.9999939203262329,1.1917297478671496,0.8583842055974039,-0.06924490630626678,0.9999846816062927,1.0362924878617736,1.2637082107606987,0.01759694330394268,0.999988853931427,1.1516334302112439,1.2564902875536879,-0.017811596393585205,0.9999900460243225,1.068541172501487,1.5515857068353562,0.07670584321022034,0.9663304090499878,1.1760236294468422,1.484531921926022,0.04702376946806908,0.9301522374153137,1.0969923352975477,1.8301476487725035,0.06504467129707336,0.9732586145401001,1.1767995751832747,1.7352025486290417,0.09855692088603973,0.9353669881820679,0.9824601671579746,1.2365469899240327,0.046265047043561935,0.9014126062393188,1.267503562126767,1.2637335782174668,-0.14825338125228882,0.8150439262390137,0.004545539617538452,1.0939629590365088,1.2600992491571934,179.43997700722562,174.07249369456406,1.0,-0.004719939631349356,0.001969319492994912,-0.03262783043442262,-0.03279667909362658,94.23159944054126,1.0022396292948588,93,3.1
1.062463701978016,0.7287828646848832,0.12033414840698242,0.9998795986175537,0.9758793430665446,0.8645992202997849,-0.01638992503285408,0.999992847442627,1.183509926137885,0.8548024528279887,-0.06286881864070892,0.9999858140945435,1.0299352824423356,1.2581783904433446,0.015168175101280212,0.9999869465827942,1.1445378557913832,1.2487287899414723,-0.015416043810546398,0.9999892711639404,1.061085143794591,1.5419513641383866,0.08345450460910797,0.9640130996704102,1.167464894585186,1.474860993361232,0.07946846634149551,0.9165605902671814,1.0900537370795553,1.8188938226453288,0.07782267034053802,0.9720759391784668,1.1693136210431576,1.728782864684883,0.14313413202762604,0.9269315600395203,0.9849160635727356,1.2297879369890938,0.07287836819887161,0.8612542152404785,1.2589252948037981,1.2546479497097878,-0.0983433946967125,0.8330096006393433,0.0043319761753082275,1.0872365691168593,1.2534535901924084,179.70720991817026,174.6278373294505,1.0,0.0015855575173876072,0.010563082476854837,0.04974247597475138,0.06821569231317108,93.10665002504265,1.006013834784083,94,3.1333333333333333
1.0718040356899288,0.7298258237693008,0.1703573316335678,0.9998654127120972,0.9746464810834522,0.8656189335203675,0.039260704070329666,0.9999914169311523,1.180967794080455,0.8550981949508046,-0.030784761533141136,0.9999869465827942,1.0286258090714526,1.2590023310625695,0.01666105166077614,0.9999828338623047,1.1424510869206783,1.2471016502910834,-0.016903620213270187,0.9999877214431763,1.0595542137263634,1.538193879422999,0.0912678986787796,0.9639739990234375,1.1623572495049908,1.4778017402952142,0.07935976982116699,0.9129615426063538,1.088640676510187,1.8164922508556585,0.08404405415058136,0.9698600769042969,1.1667967533907007,1.729825823769301,0.12831555306911469,0.9196726083755493,0.998679145301285,1.2286341809227046,0.16041205823421478,0.7969086170196533,1.2568965816600735,1.2517240697049488,-0.027218827977776527,0.8491694927215576,0.004659026861190796,1.0855384479960655,1.2530519906768265,179.64526528569166,176.0775809167874,1.0,-0.0006315699251958488,0.011144898558029186,-0.01689834518086948,0.004558903470039271,91.8445114417616,1.0030460910443715,95,3.1666666666666665
1.0556537150531415,0.7099822605028605,0.16549739241600037,0.9998592734336853,0.9508285259503642,0.8469850556288738,0.044782932847738266,0.9999895095825195,1.1504758334171752,0.8361286013587937,-0.03226923942565918,0.9999879598617554,1.0043445873559629,1.2271507051065043,0.019512448459863663,0.9999786019325256,1.1128467321211397,1.2146671853385826,-0.01970927231013775,0.9999862909317017,1.0319976876059151,1.498546724550802,0.12458914518356323,0.963649570941925,1.1313625329891397,1.4440819785651293,0.09688762575387955,0.9084727168083191,1.060073415890434,1.7692465350957254,0.15770995616912842,0.9670901894569397,1.1362702092788746,1.7099822605028605,0.18876686692237854,0.9101280570030212,0.9871177102317211,1.195551263148546,0.19896110892295837,0.7258573770523071,1.2227732801814784,1.217305988792623,0.02199665829539299,0.8633686304092407,0.004936337471008301,1.0585956597385513,1.2209089452225435,179.89662532139,176.44310439891132,1.0,0.010736222038258811,0.004079586683086612,0.09051096936486215,-0.05402012692421486,91.44969144674812,0.9821610464621247,96,3.2
1.0543027701754957,0.7048160811570466,0.18143056333065033,0.9998548626899719,0.9445750868117392,0.8434968627941576,0.06591436266899109,0.9999877214431763,1.1415118686351693,0.8325102831665993,-0.021015802398324013,0.9999889135360718,0.9983988530448042,1.2159594771642368,0.022644080221652985,0.9999741315841675,1.1045107494847113,1.2038976595683917,-0.02281591296195984,0.9999848008155823,1.0243232906445383,1.4874945361478182,0.1351850926876068,0.962731122970581,1.1219902623566331,1.436225956366859,0.1043035164475441,0.9034444689750671,1.0521602960703655,1.7561255158172462,0.17626255750656128,0.9625851511955261,1.1278551494159867,1.7048160811570465,0.21224847435951233,0.8953337669372559,0.986877581932411,1.1789744917877465,0.23575718700885773,0.6592645645141602,1.2115014812170668,1.2055717988396824,0.058536238968372345,0.8761257529258728,0.005033016204833984,1.0514548012647578,1.2099285683663141,179.5375209204917,176.94828759652893,1.0,0.005495919247352512,-0.013800063007856958,-0.03786363469021247,-0.13096900086021096,91.73774893802751,0.967719192902299,97,3.2333333333333334
1.0579772237675606,0.7066364309845959,0.18010999262332916,0.9998474717140198,0.9445547328800364,0.8441947197862871,0.06559912860393524,0.9999861121177673,1.140715221678672,0.8330666581715496,-0.022245176136493683,0.9999897480010986,0.9984260845170965,1.214229407819907,0.02412523701786995,0.999970018863678,1.103892009724742,1.2024720790748038,-0.024290163069963455,0.9999833703041077,1.0240947092865824,1.487715833132062,0.134847491979599,0.9618967175483704,1.1208670740638766,1.4412933555723364,0.10097131878137589,0.8993748426437378,1.0514768338481872,1.754987993603957,0.17347101867198944,0.9586262106895447,1.1271284087876352,1.706636430984596,0.20058050751686096,0.883356511592865,0.9882911064250716,1.1781240766029848,0.21961498260498047,0.5998238921165466,1.2102977722747335,1.2022594844352443,0.05051629990339279,0.887539803981781,0.005101114511489868,1.0511590471209191,1.2083507434473553,179.51234073003275,177.2861030536822,1.0,0.0029875002127333103,-0.006258747994482301,-0.019627245901685627,0.059021121345975036,91.92212765668948,0.9578250131907808,98,3.2666666666666666
1.066505985007744,0.7203701840426459,0.1780511885881424,0.9998404383659363,0.9517801184661732,0.8536756911426887,0.07093349099159241,0.9999841451644897,1.1489224786496612,0.838732728920139,-0.029758919030427933,0.9999905228614807,1.00677688360109,1.22209831489158,0.029919499531388283,0.9999681711196899,1.111633056648664,1.2109467860602354,-0.030088990926742554,0.9999831914901733,1.0332242214180865,1.500855506108275,0.14991779625415802,0.960267186164856,1.1277083362109874,1.4628471670103596,0.09983886778354645,0.8964009284973145,1.0587850562914967,1.7662318839536093,0.20904269814491272,0.9535073637962341,1.1347271718782046,1.720370184042646,0.21087154746055603,0.8721391558647156,0.9988610054116481,1.1871206610895058,0.19936184585094452,0.5449451804161072,1.218625883778037,1.210278406570203,0.018234314396977425,0.8978822231292725,0.0068028271198272705,1.059204970124877,1.2165225504759078,179.9180547744757,177.9097830304669,1.0,0.0058443961646216375,-0.0013833764244271407,0.021329430033724013,0.03698985899230842,92.41958020422744,0.9395753476343042,99,3.3
1.0691182624192033,0.7257401472598413,0.1769799143075943,0.9998363256454468,0.9555602158848308,0.8577230353184039,0.08167986571788788,0.9999819397926331,1.151757190280916,0.8411309503297512,-0.031145229935646057,0.999991238117218,1.0126997911056632,1.2249731949018623,0.03626922518014908,0.9999657273292542,1.1151414426344644,1.2142901448804477,-0.03643912822008133,0.9999827146530151,1.0391211012817547,1.5060048342711425,0.15035021305084229,0.9589876532554626,1.129631259650902,1.4782686548550292,0.09568939357995987,0.8943748474121094,1.062153039305939,1.7670712291946655,0.1990479975938797,0.9492552280426025,1.135754801041682,1.7257401472598413,0.20654301345348358,0.8622375130653381,1.0017117192512623,1.1901340172858832,0.21694371104240417,0.49460139870643616,1.2216958675678824,1.2127422591766641,0.015577991493046284,0.9072449207305908,0.007533431053161621,1.0639206168700637,1.2196316698911551,179.6708252835614,178.27564178595992,1.0,0.014670150157802452,-0.0011469655452253011,0.06872669706039729,0.0018730997841879826,92.89008058403523,0.9355589219624817,100,3.3333333333333335
1.0768895307112847,0.7230242453405578,0.20465166866779327,0.999835193157196,0.9619410009554369,0.8557115369818551,0.11028037965297699,0.9999799728393555,1.151464594635371,0.8398622828688168,-0.008751047775149345,0.9999918341636658,1.0137760387344505,1.2185737762012727,0.037554942071437836,0.9999640583992004,1.1147377542790502,1.2108971183662909,-0.03771187365055084,0.9999822974205017,1.0372236308146932,1.5040186940021139,0.1451958864927292,0.9591454863548279,1.1274930786864965,1.475553387213033,0.09092558175325394,0.8957523107528687,1.0605376531120645,1.762666419888082,0.18629613518714905,0.9469441771507263,1.1303083993896426,1.7230242453405578,0.20052310824394226,0.8560159206390381,1.0012367985145048,1.1880949606441027,0.2549394965171814,0.44844359159469604,1.2198135239995014,1.210736153014607,0.08180094510316849,0.9152073860168457,0.007207006216049194,1.0642568965067505,1.2147354472837817,179.54534705759949,177.89250839913902,1.0,0.015238198710541297,-0.02406641712740059,0.004640719153649697,-0.1802494525924281,93.78158985790166,0.9297631535701386,101,3.3666666666666667
1.0801479503890499,0.7298956898714419,0.1959373503923416,0.999815821647644,0.968059849500103,0.8679043137331255,0.09239231795072556,0.9999765753746033,1.1591069197564101,0.8490134206989256,-0.017687074840068817,0.999992311000824,1.0199599629913543,1.2215209248425336,0.0361846424639225,0.9999616146087646,1.1208828506392252,1.2151634677885204,-0.03634409233927727,0.9999817609786987,1.0423796485599424,1.509579269369978,0.1451743245124817,0.9567161202430725,1.1304217988448808,1.4822321796569005,0.09159277379512787,0.8912045359611511,1.0643706668725919,1.7690480008661487,0.19209349155426025,0.9412299394607544,1.1296497110360408,1.729895689871442,0.2003401815891266,0.8428930640220642,1.0054757851346325,1.19251797054437,0.22465157508850098,0.4060664772987366,1.226516934165471,1.2165151805565952,0.04464254900813103,0.9223551154136658,0.00855913758277893,1.0704214068152897,1.218342196315527,179.60590947755125,177.775806125257,1.0,0.0175025009757846,-0.005964364316486525,0.016711273620024523,0.1375919485904939,94.74517358680856,0.9186651483425561,102,3.4
1.0874071541774188,0.744923355211298,0.19056198000907898,0.9997807741165161,0.9810866184853589,0.8841838412838022,0.07925350964069366,0.9999732375144958,1.1715834944447672,0.8639743770588382,-0.022163700312376022,0.9999926686286926,1.031394674610221,1.2338645004439208,0.03462172672152519,0.9999603629112244,1.134798775276517,1.2288340400109528,-0.0347871370613575,0.9999815821647644,1.053859422322162,1.5223691263473202,0.14762157201766968,0.950983464717865,1.1399480571205722,1.496085431930765,0.09563635289669037,0.8812893033027649,1.0745942896022969,1.781958462291627,0.1970054805278778,0.9342904090881348,1.139117369333787,1.744923355211298,0.20086722075939178,0.8279119729995728,1.0133679397927264,1.2222319506791572,0.2038511335849762,0.3679873049259186,1.2418162416920435,1.2368326460167445,0.03000691533088684,0.9279894232749939,0.009073257446289062,1.083096724943369,1.231349270227437,179.8855765214531,178.7049188100537,1.0,0.022150196167510818,0.014167348080194157,0.03490077421116618,0.1570142332668005,95.4017244838503,0.9132989998531473,103,3.433333333333333
1.0871553032024344,0.747087747719162,0.2123328000307083,0.9997606873512268,0.9889400850017579,0.8832036356282426,0.10370612144470215,0.999970018863678,1.1737409782297599,0.8655080240904751,-0.0017090154578909278,0.9999930262565613,1.0350806315524845,1.2350207189459632,0.033694781363010406,0.9999586343765259,1.1399595161389335,1.2300632131812517,-0.033863771706819534,0.9999811053276062,1.056020080887998,1.519812882392975,0.13213494420051575,0.9508153200149536,1.1415001829666427,1.497331105312517,0.09554468840360641,0.8784435987472534,1.0754971922526315,1.7832993310356868,0.16560088098049164,0.9328855276107788,1.1397805356976292,1.747087747719162,0.19629032909870148,0.8213866353034973,1.0151199939622337,1.2299586418321007,0.24411682784557343,0.33363038301467896,1.2477813467567336,1.2456145805679062,0.07859774678945541,0.9332841634750366,0.00793793797492981,1.087520073845709,1.2325419660636074,179.9774698633231,179.27523000360864,1.0,0.026681931705344417,0.0011683305353575896,0.03431245312925779,-0.098921765343198,94.76536340028771,0.9107387161743675,104,3.466666666666667
1.0881855685667419,0.7504946261124511,0.20091943442821503,0.9997078776359558,0.9952711467058187,0.8848961335089105,0.09562118351459503,0.9999659657478333,1.1803184272507201,0.8705494134182302,-0.0111972875893116,0.9999932646751404,1.0409882324184232,1.237414942348316,0.0308319590985775,0.9999551177024841,1.1455980106584422,1.2324852564074402,-0.03100007399916649,0.9999800324440002,1.0639993801280723,1.5208548427960324,0.12440681457519531,0.9463678002357483,1.1440639075176646,1.502611756345067,0.09298075735569,0.86405348777771,1.07795688295484,1.7859084046032947,0.1493491232395172,0.9272319674491882,1.1420421345162024,1.7504946261124512,0.1931248903274536,0.8051770329475403,1.018234432740634,1.2318154592277775,0.2178807556629181,0.30190277099609375,1.250522650820525,1.2473820196401948,0.04711209610104561,0.9372432231903076,0.006423085927963257,1.0932931215384327,1.2349500993778781,178.3729699233911,179.8580875116057,1.0,0.027698255512731855,-7.192970588798426e-05,0.007335549404233735,-0.00945530339989744,94.69123223550339,0.9080946886860567,105,3.5
1.0870084248365075,0.7485016837435347,0.1983981728553772,0.9996981620788574,1.0007986408739185,0.8843973320818987,0.08415825664997101,0.9999646544456482,1.1853140797566086,0.8722194554450441,-0.0003301813849247992,0.999993622303009,1.0447084588359423,1.2355693947621715,0.02374929189682007,0.9999533891677856,1.148063681633335,1.2300746817009083,-0.023912625387310982,0.999979555606842,1.065239541715285,1.5132138883701183,0.10554637759923935,0.9439378380775452,1.1439514260342027,1.5008654159769677,0.09206072241067886,0.8521180152893066,1.0777648617170088,1.7783146389648423,0.11616076529026031,0.9223089218139648,1.1413271112771177,1.7485016837435348,0.1698993742465973,0.7908487319946289,1.0162020077225007,1.2326378081165537,0.20856371521949768,0.2738057076931,1.2531127573435321,1.2468112893022028,0.04231038689613342,0.9408574104309082,0.005456835031509399,1.0963860702346386,1.2328220382315398,178.4758893867314,179.73713419362625,1.0,0.03145479409310639,-0.00819125025502677,0.029402874775252406,-0.06314615095501806,94.08398207417746,0.9126890947126243,106,3.533333333333333
1.0912126670545428,0.7510812589069652,0.11327488720417023,0.9997246265411377,1.0095285701147019,0.8874243753277339,-0.011775163002312183,0.9999675154685974,1.1946662769648488,0.8759215371545974,-0.06171681359410286,0.9999940395355225,1.057114581751923,1.2333224976457926,0.020052079111337662,0.9999551177024841,1.1599564550964723,1.2295222370148913,-0.02023475244641304,0.9999796748161316,1.0735008263018804,1.5039881764326,0.07412465661764145,0.9441234469413757,1.151168661294775,1.5015024915290949,0.07090970128774643,0.8480926156044006,1.08269991760024,1.7731035081111701,0.06235507130622864,0.9243189692497253,1.1469059414454763,1.7510812589069653,0.12993071973323822,0.7909098863601685,1.0078492500499763,1.240561948062036,0.07478742301464081,0.31954002380371094,1.2600553655321343,1.254634894658616,-0.09022703766822815,0.9461346864700317,0.005132615566253662,1.1085355184241976,1.231422367330342,178.49327417497105,179.12789077182805,1.0,0.057254158614896744,-0.05050611779859544,0.19578072350683404,-0.32251218350377914,95.71688659426361,0.9056811329270247,107,3.566666666666667
1.09457627877522,0.7398344711347508,0.07249267399311066,0.9997482895851135,1.0101724874043798,0.8769776118386706,-0.0504678376019001,0.9999701976776123,1.194758117526172,0.8729226601721187,-0.08123531937599182,0.9999943971633911,1.059653646105108,1.2242342899935144,0.01730429008603096,0.9999579787254333,1.1602824256796467,1.2212723105877346,-0.017465775832533836,0.999980628490448,1.0678064631974324,1.479401096639195,0.08959539234638214,0.9462697505950928,1.1473122401799403,1.4860812942045765,0.0626349151134491,0.8559321165084839,1.075389178305806,1.7463860602824057,0.10089728981256485,0.9297136664390564,1.1384415808552022,1.7398344711347506,0.11377713829278946,0.8064772486686707,0.9944550241549327,1.23253551163398,-0.014913437888026237,0.37994810938835144,1.25251153440139,1.247434424819777,-0.09915921092033386,0.9511591196060181,0.0018191635608673096,1.1099680358923774,1.2227533002906246,179.79680529257277,179.19804846513472,1.0,0.05413695017765173,-0.014716026821696192,-0.020485180808945142,0.25911512942018533,96.42357785267623,0.9285042791285064,108,3.6
