nose_x,nose_y,nose_z,nose_visibility,left_shoulder_x,left_shoulder_y,left_shoulder_z,left_shoulder_visibility,right_shoulder_x,right_shoulder_y,right_shoulder_z,right_shoulder_visibility,left_hip_x,left_hip_y,left_hip_z,left_hip_visibility,right_hip_x,right_hip_y,right_hip_z,right_hip_visibility,left_knee_x,left_knee_y,left_knee_z,left_knee_visibility,right_knee_x,right_knee_y,right_knee_z,right_knee_visibility,left_ankle_x,left_ankle_y,left_ankle_z,left_ankle_visibility,right_ankle_x,right_ankle_y,right_ankle_z,right_ankle_visibility,left_wrist_x,left_wrist_y,left_wrist_z,left_wrist_visibility,right_wrist_x,right_wrist_y,right_wrist_z,right_wrist_visibility,trunk_lateral_inclination,center_mass_x,center_mass_y,left_knee_angle,right_knee_angle,person_height,center_mass_velocity_x,center_mass_velocity_y,center_mass_acceleration_x,center_mass_acceleration_y,body_orientation,torso_leg_ratio,frame,timestamp
1.2483033137655462,0.8558618652042891,-0.41297268867492676,0.9998776912689209,1.3167458602189654,0.9922135977226305,-0.19284303486347198,0.9999847412109375,1.1612244749625962,0.994736007213778,-0.21267402172088623,0.9999940395355225,1.2857208903656665,1.3343768753878158,0.005624826997518539,0.9999600052833557,1.2033355930090075,1.3338216350845333,-0.0057687945663928986,0.9999712109565735,1.280664232251399,1.6055043871102426,0.010452331975102425,0.9764277338981628,1.2137534296953754,1.6078624724468555,0.012541964650154114,0.9130321741104126,1.2836715216349273,1.8656078686168065,0.18356183171272278,0.9719069004058838,1.2200805465602713,1.855861865204289,0.17146185040473938,0.8985440731048584,1.3493596715555038,1.3558753902885998,-0.20604386925697327,0.7580500841140747,1.143489455267301,1.3556738253202016,-0.3024917244911194,0.9808608293533325,0.0010032355785369873,1.2445282416873371,1.3340992552361746,178.26911178568966,179.28436189491237,1.0,-0.056261841386216614,-0.0083261348303775,-0.4477144599068871,0.012729018448407528,94.79487006397413,0.908034802006086,0,0.0
1.2530105958163937,0.8624778733360041,-0.3964596390724182,0.9998895525932312,1.3333593189637813,1.0003584060554747,-0.18463961780071259,0.9999860525131226,1.1589262597036012,1.0085174676110187,-0.19942578673362732,0.999994158744812,1.3004101917047246,1.3389722151405528,0.005205326247960329,0.999963104724884,1.1994670036170192,1.3395293510705828,-0.005343778990209103,0.9999731183052063,1.2948991812720458,1.6134063579714233,0.005646231584250927,0.9772542119026184,1.2081548326199325,1.6147064923040897,0.008120710030198097,0.9188043475151062,1.2971763351773098,1.8702524930403157,0.17362523078918457,0.9733538031578064,1.2129428606085635,1.8624778733360041,0.1554076373577118,0.9074828028678894,1.3639319650042785,1.3615723393297934,-0.1910228431224823,0.7815273404121399,1.138455126177292,1.3660366505746386,-0.2731130123138428,0.9822063446044922,0.003231436014175415,1.249938597660872,1.3392507831055678,178.34161625610008,179.2987391340701,1.0,0.0011322451577110647,-0.0036962546427164633,0.43653614625132114,0.035335880058948686,95.87395095359844,0.9044678424951685,1,0.03333333333333333
1.2514492298886277,0.863229341246677,-0.39315932989120483,0.9999000430107117,1.336481916426996,1.003546676054358,-0.1821269541978836,0.9999871850013733,1.1596254335221796,1.014354926304337,-0.19079992175102234,0.999994158744812,1.3029146416421309,1.3404054913173522,0.004682348575443029,0.9999659061431885,1.1995452202891959,1.3412611413232018,-0.004815802909433842,0.9999748468399048,1.3037448285645172,1.615718979165397,0.004223853349685669,0.9778014421463013,1.2101520259084615,1.6165670957146008,0.0028629584703594446,0.924049973487854,1.3000912527603528,1.8675497786331432,0.18019375205039978,0.9744013547897339,1.2104171282478333,1.8632293412466772,0.15507520735263824,0.9154275059700012,1.3667820817336351,1.3632014297898039,-0.19423940777778625,0.8026806116104126,1.138960408596608,1.36817471652921,-0.25942462682724,0.983406126499176,0.0042757391929626465,1.2512299309656634,1.340833316320277,178.99603728123455,177.8552164689883,1.0,-0.0011038376640602212,0.00030900675652044066,-0.01677750025396529,0.030066178966089208,96.16487886487268,0.9104603664735678,2,0.06666666666666667
1.2564483793020653,0.868546003807533,-0.36661437153816223,0.9999091625213623,1.3394285735034976,1.0094828239652176,-0.15624694526195526,0.9999880790710449,1.164932478547261,1.0206563886776199,-0.1758098155260086,0.9999939799308777,1.3049332259530142,1.3470018816771967,0.0057676928117871284,0.9999683499336243,1.2017661167686835,1.349930380818361,-0.00590772507712245,0.9999763369560242,1.3047832909122572,1.62288689557153,0.014872878789901733,0.9783189296722412,1.2144593056479516,1.624730445996984,-0.0016890022670850158,0.9292197227478027,1.302947305322361,1.8719733282053834,0.19738121330738068,0.9754392504692078,1.2156196001258184,1.868546003807533,0.15254029631614685,0.922672688961029,1.3709653138672968,1.368941417762143,-0.1715277135372162,0.8214297890663147,1.143839598857952,1.3740915578099437,-0.24984297156333923,0.9843975901603699,0.0044019222259521484,1.253349671360849,1.3484661312477788,179.60882596927365,177.62801444780982,1.0,-0.023124957172299822,0.01531611860179895,-0.16466209551528474,0.11222892421746675,97.46147965928375,0.9197062352446902,3,0.1
1.255515214673379,0.8676729517144514,-0.34425032138824463,0.9999164938926697,1.339600715233937,1.0100703099667112,-0.14267656207084656,0.9999887347221375,1.162225057668023,1.0198075134340732,-0.16229377686977386,0.9999934434890747,1.30531766044321,1.3464140510762794,0.006236380431801081,0.9999704957008362,1.2020718075095027,1.3503777613685823,-0.0063768974505364895,0.9999776482582092,1.3039704162719878,1.6221882798678249,0.010195043869316578,0.9792054295539856,1.215895878438355,1.624098614644393,-0.002663924591615796,0.9342405796051025,1.304159877208749,1.8740323675790151,0.17598232626914978,0.9769870042800903,1.2168827990562638,1.8676729517144515,0.1463509351015091,0.9295694231987,1.371812098600431,1.3686455455775652,-0.1631365269422531,0.8382424116134644,1.1433348345554672,1.3740092708846094,-0.23849663138389587,0.9850623607635498,0.00383836030960083,1.2536947339763564,1.3483959062224309,179.67699096019777,177.34092641628334,1.0,0.008155172496181388,0.005494259262209189,0.23228361328564734,-0.0729003657973956,98.01854193759905,0.9200436835413266,4,0.13333333333333333
1.2574211247455516,0.8679930251620455,-0.3378944993019104,0.999923825263977,1.3401181729917095,1.0103837673198899,-0.1374872475862503,0.9999895095825195,1.1631015646503355,1.0221008750306246,-0.15493980050086975,0.999993085861206,1.3061208286325265,1.3469451056660728,0.006438618991523981,0.9999724626541138,1.2037225097318045,1.351307404035485,-0.006580629386007786,0.9999787211418152,1.3082586497367044,1.6228565076810932,0.002072633011266589,0.9799262881278992,1.2184285744532193,1.624354313299074,-0.009548390284180641,0.9385024309158325,1.3031376184527717,1.8733145905987896,0.164327472448349,0.9780735373497009,1.2161581225405833,1.8679930251620456,0.13640275597572327,0.9355385303497314,1.3714557932592697,1.3688266181109865,-0.15771391987800598,0.8536580801010132,1.142410553601297,1.3739208812613992,-0.22525867819786072,0.9856976866722107,0.004618018865585327,1.2549216691821654,1.349126254850779,178.38472470295676,176.38315887906006,1.0,0.00763227655541339,0.003742199882118806,-0.003974366240973942,-0.013287805415394455,98.20749739908005,0.9225162183731273,5,0.16666666666666666
1.2567333741997178,0.8674558196772171,-0.3403463363647461,0.9999305009841919,1.3387390727704045,1.009387881668464,-0.1361304372549057,0.9999901652336121,1.160338334968669,1.0213077056613646,-0.15682727098464966,0.9999927878379822,1.3078852295983165,1.346419695854037,0.0067090257070958614,0.9999739527702332,1.2049132770832314,1.3520748859994896,-0.00685178954154253,0.9999794960021973,1.31169682231489,1.6221414282733357,0.0016343494644388556,0.9806599020957947,1.2202403629636287,1.6239721778067115,-0.010067632421851158,0.9423425793647766,1.30368804886493,1.873233593860943,0.16277986764907837,0.9790484309196472,1.215431697980137,1.867455819677217,0.13505889475345612,0.9408414363861084,1.3722420008435776,1.367893366094963,-0.15589216351509094,0.8674721717834473,1.140001703479792,1.3705445671200134,-0.21408697962760925,0.986426591873169,0.004700422286987305,1.256399253340774,1.3492472909267632,177.38111774790858,175.64218952743866,1.0,0.01590474581998701,0.0062282087769005255,0.06130966447977803,0.01843025622752817,98.37411777574255,0.9245495488753743,6,0.2
1.25647287275417,0.8682174895220612,-0.3669191002845764,0.9999368786811829,1.3381801270675608,1.0090446445851269,-0.15455099940299988,0.9999908208847046,1.159761994492021,1.020167684805706,-0.17292256653308868,0.999992847442627,1.3078316060474866,1.3463941086404747,0.006792781408876181,0.9999755024909973,1.2035325395534113,1.3524808009308382,-0.006934213452041149,0.9999805092811584,1.310136484310996,1.6222624941971855,0.002661885228008032,0.9810082316398621,1.2198872755832608,1.6250165592278523,-0.012197702191770077,0.9456271529197693,1.3032640174572236,1.8728012500450584,0.16727380454540253,0.9796814322471619,1.2142710807377697,1.8682174895220611,0.13327111303806305,0.9456034898757935,1.3720465724457622,1.3675244768625363,-0.17775607109069824,0.8797363042831421,1.13959997741975,1.3705357814213663,-0.23600801825523376,0.9871367812156677,0.004386574029922485,1.255682072800449,1.3494374547856565,177.95003295212348,175.24294108599517,1.0,-0.004670481294161842,0.0022637814526924147,-0.15595060078709017,-0.030046577193719004,98.48046910405544,0.9234998532952009,7,0.23333333333333334
1.2569488785405507,0.869617288723626,-0.353049099445343,0.9999422430992126,1.3381878023301754,1.0093408712673142,-0.14613908529281616,0.9999914169311523,1.1596358513220086,1.019538204524847,-0.1698947250843048,0.9999927878379822,1.3087570800429462,1.3470528529808037,0.007372159510850906,0.999976634979248,1.2039555102431463,1.352595475213556,-0.007511910982429981,0.9999810457229614,1.3094104073021455,1.6229710529606338,0.0027517364360392094,0.9808102250099182,1.2214859543711163,1.62551526443727,-0.015148947946727276,0.947638750076294,1.3026414167751639,1.8726362624298118,0.16148418188095093,0.9799396991729736,1.2134945267021247,1.869617288723626,0.12484407424926758,0.9495055675506592,1.371576438911331,1.3683243176389137,-0.16591352224349976,0.8910353779792786,1.1389789315944738,1.3710767289850052,-0.2479638159275055,0.9879252314567566,0.004019945859909058,1.2563562951430463,1.34982416409718,178.31129543967168,174.4496886280975,1.0,0.0014446819249985551,-0.0010529037758464045,0.04717273623636823,-0.025584303573164865,98.00796658745902,0.9211584695507956,8,0.26666666666666666
1.2590733818521773,0.8713959177005033,-0.3597138226032257,0.9999469518661499,1.3384602351716741,1.0098071398640645,-0.15204593539237976,0.9999919533729553,1.160388866785972,1.0195626950498375,-0.17373637855052948,0.9999927282333374,1.3092375905568272,1.3478624126199419,0.007448071148246527,0.999977707862854,1.2042488529594628,1.3533140508494832,-0.007588103413581848,0.9999815821647644,1.310476379209408,1.6238054970206444,-0.0004993582842871547,0.9807310104370117,1.2204178510216337,1.6266122481086878,-0.013839011080563068,0.9493968486785889,1.3038523619277844,1.8735496158378577,0.16028060019016266,0.9799805879592896,1.2134630715726065,1.8713959177005033,0.12481699138879776,0.952914297580719,1.3710142515910317,1.3690218123013573,-0.17024078965187073,0.9008991122245789,1.1393797585352976,1.3719954194015875,-0.2388353794813156,0.9883555769920349,0.003843843936920166,1.256743221758145,1.3505882317347127,178.22347218184026,174.98673992144566,1.0,-0.001966740476824229,0.0006363774012125143,-0.026930833778715635,0.01333706193796115,97.91302714552958,0.9181962533349942,9,0.3
1.2591000407146444,0.8714406547562276,-0.35564523935317993,0.9999511241912842,1.3379596101347773,1.0096722807696406,-0.14739781618118286,0.9999923706054688,1.160957704041974,1.0190572975233048,-0.16687670350074768,0.9999924898147583,1.3075810244494352,1.347879975678616,0.007113265339285135,0.9999787211418152,1.2027959154052097,1.3532455652766633,-0.007253657095134258,0.9999820590019226,1.308984821220506,1.6239441742698726,-0.004397076554596424,0.9809004068374634,1.2193788698482984,1.6275359577324053,-0.012424878776073456,0.9512010812759399,1.3040630613343467,1.8736324232277841,0.1582610011100769,0.9804622530937195,1.214015322411502,1.8714406547562277,0.13241633772850037,0.9561252593994141,1.3706565782892393,1.368972929791177,-0.1636677086353302,0.9099396467208862,1.13717318140057,1.3710117630757126,-0.23713746666908264,0.9887648820877075,0.0036979317665100098,1.2551884699273226,1.3505627704776395,178.57940493620328,175.28049191528254,1.0,-0.012284412400632331,4.7505412357427955e-05,-0.08308179267021491,-0.0047416797728742745,98.0639709387451,0.9179057345293827,10,0.3333333333333333
1.2614836270413712,0.8752503064311585,-0.3733413815498352,0.9999551773071289,1.339444170410589,1.012238373882091,-0.16085486114025116,0.999992847442627,1.1617137194755003,1.021083191322488,-0.18309864401817322,0.999992311000824,1.3104924514704905,1.350774316597124,0.007154792547225952,0.9999797344207764,1.2046755498101083,1.3560320780292119,-0.007294345647096634,0.999982476234436,1.310546416096981,1.6273919896484932,-0.0008754135924391448,0.981120228767395,1.2161812326187669,1.631032176560131,-0.012347089126706123,0.9528817534446716,1.3061047938475474,1.8776590084394007,0.15969516336917877,0.9811375737190247,1.2172677254849769,1.8752503064311585,0.13502268493175507,0.9591027498245239,1.3732554342833634,1.3718359827034277,-0.1690724641084671,0.9183220863342285,1.141467283035674,1.3739089216563987,-0.24846497178077698,0.9890718460083008,0.00347784161567688,1.2575840006402994,1.353403197313168,178.97207030143372,177.85910817284426,1.0,-0.0015528692709691698,0.00021229786187026064,0.07706111145946128,0.0011798216309515425,97.73259882627471,0.9141581629659215,11,0.36666666666666664
1.2613761790038762,0.875317595015887,-0.3467681407928467,0.9999581575393677,1.3412001425184303,1.0098526741115696,-0.14935483038425446,0.999993085861206,1.1648638257012631,1.0209019452128656,-0.1743679940700531,0.9999920725822449,1.3096449370524652,1.350775343765838,0.0065073175355792046,0.999980628490448,1.2049749118601119,1.355997684719734,-0.0066478862427175045,0.9999830722808838,1.3091427422428674,1.627544559178535,-9.234376921085641e-05,0.9818549752235413,1.2183507561685036,1.6311345017308136,-0.010965874418616295,0.9555928707122803,1.3061942993688913,1.8778976909573784,0.15886740386486053,0.9822404980659485,1.218565170463154,1.8753175950158871,0.1330609768629074,0.962395429611206,1.3751914399810885,1.3704435541295292,-0.16286766529083252,0.9253756999969482,1.1435236537469107,1.374602691221512,-0.245174840092659,0.9895794987678528,0.004344731569290161,1.2573099244562884,1.3533865142427859,179.42921347991125,177.2670535732034,1.0,-0.001946676661268706,7.383844110410811e-05,-0.003069507340033757,-0.0010790991699932064,98.14444154301356,0.9136891081150915,12,0.4
1.2600769728574182,0.8746582485115026,-0.3554408550262451,0.9999614953994751,1.34004530630992,1.008255585879604,-0.14851780235767365,0.9999934434890747,1.1643111162548885,1.0200344235852155,-0.16878505051136017,0.9999920725822449,1.3084049658187917,1.3504537296357924,0.006554689258337021,0.9999814033508301,1.2041881826698062,1.3554382114520682,-0.006694721523672342,0.999983549118042,1.3074013737925083,1.626684671233856,0.0024611831177026033,0.9822982549667358,1.2187861671843434,1.6303344135265725,-0.007555075921118259,0.9579549431800842,1.3055446149296925,1.876581055091067,0.17336365580558777,0.9828119277954102,1.2177743191934665,1.8746582485115026,0.1393365114927292,0.9651856422424316,1.3747073298422974,1.3695687871821378,-0.16501176357269287,0.9321979880332947,1.1429933067607412,1.3738808244694065,-0.24102087318897247,0.9900726675987244,0.004634588956832886,1.256296574244299,1.3529459705439302,179.7824575928637,176.72295707984506,1.0,-0.0016342495337335916,0.0034361299213254335,0.00248620749026511,0.026864227685739647,98.02092163439889,0.9150549918437166,13,0.43333333333333335
1.2591721196636798,0.8740430376388538,-0.35891157388687134,0.99996417760849,1.3402582306788853,1.0077936516878094,-0.15499182045459747,0.9999937415122986,1.163539408465668,1.0195150209548938,-0.16874298453330994,0.9999920725822449,1.307321583570927,1.349084938340702,0.004906260408461094,0.9999821782112122,1.202264697348823,1.3544955349327983,-0.00504364725202322,0.999984085559845,1.3066113765175564,1.6259687739070232,-0.007569984532892704,0.9828285574913025,1.2147767587543241,1.6297369599019218,-0.01185721717774868,0.9600483179092407,1.304639151216256,1.875355179241723,0.14961743354797363,0.9836070537567139,1.2173693930743152,1.8740430376388537,0.12980955839157104,0.9677481651306152,1.3733553936667098,1.368691498776142,-0.16794700920581818,0.9381370544433594,1.14204057780871,1.3733914340246418,-0.23773989081382751,0.9904688000679016,0.004613667726516724,1.254793140459875,1.3517902366367502,179.69385994645504,178.00522551815428,1.0,-0.0077680873831366655,-0.004914826483116955,-0.04568604019453249,-0.06218412840294406,98.4605332521338,0.9136032529723597,14,0.4666666666666667
1.2591742088929194,0.87522735008341,-0.3499162793159485,0.9999666810035706,1.3409209999320477,1.0083528168759612,-0.15081919729709625,0.9999940395355225,1.1635532012262908,1.0208348847316422,-0.16703450679779053,0.9999919533729553,1.309367243876481,1.3499015981037625,0.004943209234625101,0.9999828338623047,1.2036634034715616,1.3552876237542382,-0.005080907139927149,0.9999844431877136,1.3078256305823353,1.6268686758344806,-0.0049695721827447414,0.9832522869110107,1.2126822578945562,1.6308592952501568,-0.017639191821217537,0.9620500802993774,1.3048866414246112,1.876057624368611,0.16088628768920898,0.984112024307251,1.2171047562974524,1.87522735008341,0.11738155037164688,0.9700268507003784,1.3744381728602275,1.369546978562939,-0.164890855550766,0.9436548948287964,1.1425142326511877,1.3742989352565598,-0.23620712757110596,0.9908285140991211,0.004910498857498169,1.2565153236740212,1.3525946109290004,179.6431803536968,179.16231261546952,1.0,0.008227963299341825,0.0007116425779739992,0.12411683413803253,0.043665921509694706,98.19517221204198,0.9126408018776753,15,0.5
1.2602115157959957,0.8763550602572836,-0.3519569933414459,0.999968945980072,1.3408985392580233,1.0089519346298048,-0.14880390465259552,0.9999942779541016,1.1640001246145684,1.021551877370775,-0.1676016002893448,0.999991774559021,1.3098064464389683,1.3508040330549997,0.005003166384994984,0.9999832510948181,1.2041110831242086,1.3560802927138604,-0.005142999347299337,0.9999845027923584,1.3082070745449048,1.6276919949314312,-0.005238586105406284,0.9835436344146729,1.2118925958859454,1.6319022087932253,-0.015476638451218605,0.9631916284561157,1.305314106407046,1.8768462417678775,0.14715322852134705,0.9845985174179077,1.2176418451476003,1.8763550602572836,0.11971001327037811,0.9718614220619202,1.3757298271260903,1.3703856510114436,-0.1624569594860077,0.9486641883850098,1.1423259066638398,1.3751213078101878,-0.23061934113502502,0.991133451461792,0.004953950643539429,1.2569587647815883,1.35344216288443,179.66571043059704,179.73127726033897,1.0,-0.0013474829508759107,0.00022704211841166887,-0.043412715135272874,-0.002197847896480961,98.05466511720904,0.911918821688375,16,0.5333333333333333
1.2609180731317102,0.8764339136714216,-0.34714406728744507,0.9999704957008362,1.3405657483418831,1.0089827601013794,-0.1328698694705963,0.9999943971633911,1.1646272629816188,1.021463784827922,-0.16168980300426483,0.9999915361404419,1.3103384134423957,1.3508211697159374,0.006939024664461613,0.9999833106994629,1.2042954857211423,1.3560612899721947,-0.007088412530720234,0.9999842643737793,1.3079377149416118,1.626973506133295,-0.004220093600451946,0.9832651019096375,1.2130419810704711,1.6315537223371457,-0.016101885586977005,0.9632713198661804,1.305065699716975,1.8768715757433945,0.14791902899742126,0.9845419526100159,1.2166270352821271,1.8764339136714216,0.11915791034698486,0.9730896353721619,1.375684680773878,1.3700983117568357,-0.14755123853683472,0.9531940221786499,1.142612572726073,1.3750588861659445,-0.2300688475370407,0.9915749430656433,0.00490725040435791,1.2573169495817689,1.3534412298440661,179.83962481286494,179.02030301315156,1.0,0.002558430374685562,9.793034927026075e-05,0.02684220832842243,-0.0008872675251656916,97.8822564090332,0.9116919716332904,17,0.5666666666666667
1.2607289763569705,0.8759803136185057,-0.352969229221344,0.9999721050262451,1.3406124763177876,1.0085712973479408,-0.140339195728302,0.9999945759773254,1.1650381348231256,1.0213122101917904,-0.16686487197875977,0.9999915361404419,1.3112849579317203,1.3499951722315855,0.007051435764878988,0.9999839067459106,1.2049058767053125,1.3558133531678573,-0.007201024796813726,0.9999846816062927,1.3097853939466606,1.6264788167071407,-0.007723433431237936,0.9827790856361389,1.2131606785917346,1.6313479659937147,-0.016230911016464233,0.9627835154533386,1.3052662389228482,1.8759803136185056,0.1483858972787857,0.9841359853744507,1.2162914523033912,1.876913581126442,0.12012948095798492,0.9741008281707764,1.3750409071899796,1.3699178642740741,-0.14851580560207367,0.9566362500190735,1.1429748542233726,1.3753296638251296,-0.24215605854988098,0.9915329813957214,0.005010068416595459,1.2580954173185164,1.3529042626997214,179.27308207261328,179.0144142408862,1.0,0.007319642283513737,-0.002849205132051641,0.037153271482322975,-0.022995782621335316,98.04007690949527,0.91095273227904,18,0.6
1.2628444602213418,0.8774282854229009,-0.351911336183548,0.999973714351654,1.344294194464465,1.0096009387996234,-0.14121553301811218,0.9999946355819702,1.1672178374357738,1.0207197291704593,-0.166916161775589,0.9999915957450867,1.3145356796845808,1.3518590075768078,0.0070335776545107365,0.9999842643737793,1.2075345077033586,1.3573976399131347,-0.00718331104144454,0.9999849200248718,1.316062489267467,1.628583375479007,-0.013386966660618782,0.9821891188621521,1.2192147680262144,1.6338925916180644,-0.015338851138949394,0.9619621634483337,1.3090538320324225,1.877428285422901,0.14765188097953796,0.9835318922996521,1.2178860975150931,1.8800646738076696,0.12954342365264893,0.9747759103775024,1.377892811468927,1.3729788106584548,-0.14916369318962097,0.959352433681488,1.145368563725549,1.3758232071109,-0.25781095027923584,0.9917041659355164,0.0043649375438690186,1.2610350936939698,1.3546283237449712,178.0705818874534,177.27179287457508,1.0,0.006452300208083042,-0.004040553282972861,-0.00671918690446958,-0.009065066824119178,97.93235270405422,0.9104740878112393,19,0.6333333333333333
1.2652023474288674,0.8782874231406466,-0.37124103307724,0.9999750852584839,1.3496080232830452,1.0105211222459451,-0.16743776202201843,0.9999948143959045,1.170233591321868,1.0220345665566866,-0.16865143179893494,0.9999916553497314,1.3163435330055593,1.3507173260952732,0.001165039953775704,0.9999845623970032,1.209301056376435,1.356576092859758,-0.0013110830914229155,0.9999850988388062,1.3154423479883075,1.627323054077714,-0.031079497188329697,0.9812882542610168,1.2214751872737108,1.6355880213234848,-0.009969739243388176,0.9606083631515503,1.31061580900168,1.8782874231406466,0.12496940791606903,0.9826737642288208,1.219720628083999,1.8828415391261075,0.13170650601387024,0.9752027988433838,1.3807536342132884,1.3744407784396044,-0.16994723677635193,0.9622118473052979,1.1469061556728708,1.3773722141156617,-0.24395541846752167,0.9916090369224548,0.004514187574386597,1.262822294690997,1.3536467094775155,179.0848948894262,177.0950220623026,1.0,0.0015352428480782689,-0.02058250464760471,-0.037737899117532545,-0.12670948788435715,98.71749584185766,0.902148794418234,20,0.6666666666666666
1.2649017191271843,0.8726189076104023,-0.3739319145679474,0.9999761581420898,1.3494660387812978,1.0080648876850646,-0.16864439845085144,0.9999949336051941,1.1673505114703453,1.0181180352555048,-0.1778348833322525,0.9999918937683105,1.3128768433725884,1.3449642267807498,0.0014124721055850387,0.9999849200248718,1.2057995990441075,1.3507813911362923,-0.0015510981902480125,0.9999855756759644,1.3085908467601624,1.62171411978239,-0.023885617032647133,0.9811370968818665,1.2170664050612345,1.6304834385938536,-0.009500058367848396,0.9610306024551392,1.3067838475518896,1.8726189076104023,0.131495863199234,0.9825176000595093,1.2169451604611659,1.87713784541071,0.13082486391067505,0.9761468172073364,1.3784180368316845,1.3716353107923456,-0.16963793337345123,0.9642118811607361,1.143526705335611,1.373542639907175,-0.24380990862846375,0.9918279051780701,0.003953754901885986,1.259338221208348,1.347872808958521,179.52537036400452,177.66512548143382,1.0,0.0028925537134483095,-0.012139947410959952,0.0101791891147084,0.06262486595973848,99.30799496959683,0.9018476081678789,21,0.7
1.2681247273080303,0.8728838781059223,-0.37359780073165894,0.999977707862854,1.3512231644007924,1.0086549788087504,-0.16440130770206451,0.9999950528144836,1.1692031267087655,1.0154055758038014,-0.17884507775306702,0.9999920725822449,1.3141365260174191,1.3436279185951046,0.001928068115375936,0.9999849796295166,1.20607051260141,1.3475262627423932,-0.0020677729044109583,0.9999856352806091,1.3067613663621207,1.6203629102391823,-0.02192036435008049,0.9806695580482483,1.2193027376701169,1.6297741699345494,-0.009709777310490608,0.9609213471412659,1.3077740354879823,1.8728838781059223,0.1259676218032837,0.9819200038909912,1.2180032896210207,1.8773089435842045,0.12360018491744995,0.9766656756401062,1.3808500645669408,1.3719603726701202,-0.16703514754772186,0.9666107892990112,1.1438700285179813,1.3727622016891006,-0.24342946708202362,0.9919794797897339,0.0026545822620391846,1.2601035193094146,1.345577090668749,178.24362472885988,177.01507449131944,1.0,0.0047524674917280045,-0.01919538398884173,0.014496404764679461,-0.054989846087238725,98.38376713694473,0.8927954779942133,22,0.7333333333333333
1.2697123270809465,0.8722170944864742,-0.3765242397785187,0.9999788999557495,1.350858246617367,1.008652646927935,-0.1647162139415741,0.9999951124191284,1.170434851770142,1.014024485622035,-0.18178781867027283,0.9999921917915344,1.31497675475557,1.3406729853332449,0.002307481598109007,0.9999850988388062,1.207320310946569,1.3446350733337753,-0.0024477604310959578,0.9999858140945435,1.3066080880194673,1.6196486417391798,-0.021244943141937256,0.9806569218635559,1.2186786096408586,1.6275119161466864,-0.008699211291968822,0.9612595438957214,1.3084819482450076,1.8722170944864742,0.1294831931591034,0.9817953705787659,1.219034171929592,1.8758931570924033,0.12432561069726944,0.9775022864341736,1.3806421557952147,1.3694227793926883,-0.16570736467838287,0.9681858420372009,1.1438556995824378,1.3719330764205164,-0.24563822150230408,0.9919812083244324,0.0021134912967681885,1.2611485328510694,1.34265402933351,177.8566836843533,177.78266881796014,1.0,0.013493393804938459,-0.017776306674514644,0.06967268581145297,0.011229405500533148,98.27573558232487,0.885408320374913,23,0.7666666666666667
1.2713336976753205,0.8722987899160478,-0.35166841745376587,0.9999783635139465,1.351240014929135,1.0092879941640653,-0.14956672489643097,0.9999949336051941,1.173806729501522,1.0139453965672685,-0.16119496524333954,0.9999918937683105,1.316577035306435,1.3400186250654362,0.002313781064003706,0.9999856352806091,1.211076021652093,1.3443923951082848,-0.0024614527355879545,0.9999862909317017,1.3085314190433721,1.6193914256839288,-0.027944019064307213,0.9798243641853333,1.221166668888264,1.6273653954281948,-0.010671700350940228,0.9595000147819519,1.3081518288190472,1.872298789916048,0.113883376121521,0.9817895889282227,1.2189750124813385,1.8762146584233281,0.12043960392475128,0.9779610633850098,1.3835071531399654,1.3663681849467786,-0.15504582226276398,0.9645423889160156,1.143603707805805,1.3698264548636019,-0.22530093789100647,0.9898513555526733,0.0018326938152313232,1.263826528479264,1.3422055100868604,178.4363987268791,177.45313195396633,1.0,0.021433510730545252,-0.0017601977673769446,0.05916249112619513,0.11928442234868075,98.35713100748815,0.883306660127624,24,0.8
1.2712105835233605,0.8714535599114396,-0.3508877754211426,0.9999786019325256,1.3534379841680777,1.008641423143955,-0.14894315600395203,0.9999948740005493,1.1752910818672058,1.0131839823932962,-0.1623431295156479,0.999991774559021,1.318484843575623,1.3396179450659578,0.002346342895179987,0.999985933303833,1.2130060954551394,1.3435909905542323,-0.0024953745305538177,0.9999865889549255,1.3124414721086635,1.6191507121306659,-0.02519824728369713,0.9795153737068176,1.2258612996662859,1.6266586340723814,-0.012520465068519115,0.9594427943229675,1.30835547772613,1.8714535599114397,0.1217530146241188,0.9820794463157654,1.219126154073496,1.8750390059770556,0.11802388727664948,0.9787026047706604,1.3874976778100996,1.3657012665265353,-0.15436170995235443,0.9651683568954468,1.143189219527683,1.368591910345831,-0.22883029282093048,0.9895966649055481,0.0017882883548736572,1.2657454695153811,1.3416044678100951,179.68929684143612,175.8464957426748,1.0,0.01879713070380791,-8.742583969213924e-05,-0.019958940534664068,0.012703372254641583,98.18556733583576,0.884386946552658,25,0.8333333333333334
1.2718037814322178,0.8671230390375574,-0.3357589840888977,0.9999776482582092,1.3529478987884798,1.0043019813238903,-0.14263510704040527,0.9999947547912598,1.1741769182643942,1.0099380028567586,-0.1567327082157135,0.9999910593032837,1.3183480530694518,1.338022389246225,0.0024433033540844917,0.9999856352806091,1.213591831885253,1.341402280044059,-0.0025886057410389185,0.9999860525131226,1.3142132988445696,1.6158094112601544,-0.0246895682066679,0.9793366193771362,1.2264452058203792,1.6229719276760168,-0.012531565502285957,0.9591023325920105,1.306130957852502,1.8671230390375575,0.11787086725234985,0.9824231863021851,1.2197658654444234,1.8674747144544412,0.11795108020305634,0.9792255759239197,1.389735141430393,1.3640678210875488,-0.15227113664150238,0.9664452075958252,1.1410995642502906,1.3645728257776872,-0.23051102459430695,0.9889236092567444,0.002223789691925049,1.2659699424773525,1.339712334645142,179.0107439452272,175.82149919776808,1.0,0.021581672292814647,0.00799528342406993,0.01974901966951802,0.05646151482372575,97.76719813136619,0.8958061723345305,26,0.8666666666666667
1.2786851626301385,0.8706060131358537,-0.34786686301231384,0.9999780654907227,1.3637552871837628,1.008489050941657,-0.1445998251438141,0.9999945759773254,1.182219026032751,1.0128846956459396,-0.15990068018436432,0.9999910593032837,1.3252038158136956,1.342593592559659,0.0025952947326004505,0.9999855160713196,1.2193985257462383,1.3460440220785654,-0.00274105672724545,0.9999860525131226,1.3197041064188615,1.6213280925122542,-0.022720560431480408,0.9792472124099731,1.2312985211914411,1.6270789599510538,-0.010635916143655777,0.9595357179641724,1.3135853689905,1.8728255105636058,0.11864914745092392,0.9826185703277588,1.224139910642606,1.8706060131358537,0.12864325940608978,0.9798411726951599,1.3976881485612713,1.3688536287449093,-0.16543759405612946,0.9667942523956299,1.1466173354071683,1.366037384655062,-0.2477426826953888,0.989355206489563,0.0017285346984863281,1.272301170779967,1.3443188073191121,179.73666913223659,175.89159027345065,1.0,0.015484479152132732,0.0005879240837818079,-0.04656170669527492,-0.056102035649952954,98.44992285154036,0.8982673335203569,27,0.9
1.2913061123804221,0.8757236114511807,-0.37755948305130005,0.9999793767929077,1.3770469609157578,1.0147763859570058,-0.16770488023757935,0.9999944567680359,1.1934008160248473,1.0185829214128617,-0.176405131816864,0.9999912977218628,1.3357436690382267,1.3512719858200362,0.001803497551009059,0.9999854564666748,1.2294357896508583,1.3539473471569483,-0.0019441302865743637,0.9999862313270569,1.3277546327141134,1.630731986057873,-0.022576790302991867,0.979290783405304,1.2382054954373412,1.6332182974712743,0.00037381265428848565,0.9599465727806091,1.3217971207696648,1.8824226869665628,0.1344483196735382,0.9827080965042114,1.231283981342602,1.8757236114511808,0.15118876099586487,0.9803504347801208,1.4087579511501096,1.379991870853289,-0.187056764960289,0.966127336025238,1.153951356844842,1.3717306941150893,-0.26854169368743896,0.9898828864097595,0.0014881789684295654,1.2825897293445425,1.3526096664884921,179.71844462835534,176.56650574570386,1.0,0.022232106082563104,0.003394976100097366,0.051850872513738246,0.021836668783365425,98.43940096864829,0.9059164066470056,28,0.9333333333333333
1.3011988530650744,0.8815555272357962,-0.3847493529319763,0.9999804496765137,1.3902842500901766,1.0220805740406695,-0.17729781568050385,0.9999943971633911,1.2025297123106684,1.0239396649145796,-0.18054595589637756,0.9999915361404419,1.3468875822461879,1.358512800867535,0.0008699895115569234,0.9999854564666748,1.240299756563315,1.361167024754952,-0.0010105717228725553,0.999986469745636,1.3343760386022672,1.6368453726071006,-0.02182096615433693,0.9793951511383057,1.2447175112949733,1.6396390666260312,0.0005191470263525844,0.9606780409812927,1.3286712504317253,1.8922161029914888,0.13442961871623993,0.9831621050834656,1.2377512847536387,1.8815555272357962,0.1472587287425995,0.9810284972190857,1.4199575167848855,1.3917362720967241,-0.21354317665100098,0.9662808775901794,1.1614057179228852,1.3777678020020707,-0.2728014290332794,0.9904828071594238,0.0007230043411254883,1.2935936694047514,1.3598399128112435,178.70591692569744,177.44168722471193,1.0,0.03073305476497058,0.0006879891831116781,0.06079743198933096,-0.019760645416861112,98.77651448535396,0.9074157023109967,29,0.9666666666666667
1.3079880389055254,0.8857638937985635,-0.3979291021823883,0.999981164932251,1.3974646303624663,1.0253961159640896,-0.1859552413225174,0.9999943375587463,1.2076039264554992,1.0266089934446365,-0.1895337700843811,0.9999915957450867,1.3528083304694989,1.362967360892951,0.0004791392420884222,0.99998539686203,1.2448911292033047,1.365574628659535,-0.0006229431601241231,0.999986469745636,1.3391063422203395,1.6422560889016216,-0.022400397807359695,0.9797504544258118,1.24801427142512,1.6445160078617638,0.0011944726575165987,0.960949182510376,1.3322594209910568,1.8983097945600873,0.13416431844234467,0.9837304353713989,1.2416473370642078,1.8857638937985635,0.15775491297245026,0.9814651608467102,1.4296315889455782,1.399656155420455,-0.22579753398895264,0.9670931100845337,1.1663648625636063,1.3813362723755647,-0.2744769752025604,0.9910037517547607,0.0004703700542449951,1.2988497298364017,1.3642709947762428,178.72303819441547,177.84673940986536,1.0,0.01186380543805305,0.0044800423421189565,-0.13844554121577318,0.02768191749561638,98.91972462747786,0.9065961290724606,30,1.0
1.3173786534374188,0.8905656010298938,-0.3889523148536682,0.9999819397926331,1.4076057566264182,1.0313450422148895,-0.178928941488266,0.9999943375587463,1.2177543260914037,1.0320510700969265,-0.18715915083885193,0.9999916553497314,1.3624916642511793,1.3731659034962866,0.0006504752091132104,0.9999852180480957,1.2543328125357303,1.3738528495436737,-0.0007952209562063217,0.9999862313270569,1.34824085570672,1.651782011593103,-0.02092834934592247,0.9800825119018555,1.2545005318192297,1.6523760978621547,0.0013123125536367297,0.9612976312637329,1.3387292950505894,1.9083957600317918,0.13600271940231323,0.984298825263977,1.2480004245901346,1.8905656010298937,0.15945126116275787,0.9818739891052246,1.4381606409271517,1.4070584865184907,-0.20685391128063202,0.9686450362205505,1.1737953413747944,1.3856270368120265,-0.27587345242500305,0.9915878772735596,0.00027236342430114746,1.3084122383934547,1.3735093765199802,179.1946906144484,178.40230444224727,1.0,0.021490930171284978,0.01610765921226113,0.0767456676762496,0.09311210796445804,97.88243483971657,0.917972281096639,31,1.0333333333333334
1.3240023089725048,0.8936546454344396,-0.4072411060333252,0.9999819397926331,1.4148206532828678,1.0353480951325833,-0.1928194761276245,0.9999942779541016,1.2228609838323066,1.0338592685446237,-0.20216472446918488,0.9999916553497314,1.3703803003044739,1.3787733207425101,0.0008885888382792473,0.9999849200248718,1.2604791187747337,1.379238341538541,-0.0010325530311092734,0.999985933303833,1.3555475639262056,1.6591123019793552,-0.018505392596125603,0.9793674349784851,1.2593476664076066,1.6569993889428198,0.0029056943021714687,0.9596818685531616,1.3438294431531077,1.9157740002033496,0.1423187255859375,0.984357476234436,1.2519658878240478,1.8936546454344396,0.16412107646465302,0.9817056655883789,1.4451884656539564,1.4125648836242026,-0.2243945598602295,0.9697335958480835,1.1800872914454243,1.3887472257546447,-0.2946934401988983,0.9920425415039062,0.0005721151828765869,1.315429709539604,1.3790058311405256,179.5853793286234,178.4467941507558,1.0,0.015204074951436507,0.0011770896736596006,-0.050358515798552494,-0.11852072149070625,97.61572067743293,0.9228589201994769,32,1.0666666666666667
1.3356245411344256,0.9016462940719282,-0.4123317301273346,0.9999827146530151,1.4295094450702843,1.0439140858889158,-0.19768205285072327,0.9999942183494568,1.235381656832282,1.0427301413073187,-0.20684608817100525,0.9999916553497314,1.3847029602683347,1.3905884895485259,0.0010446348460391164,0.999984860420227,1.2735330601129453,1.3909668885966129,-0.0011916427174583077,0.9999857544898987,1.3692723228247787,1.672483886937557,-0.02408742345869541,0.9794672727584839,1.2710464713310687,1.6683060046436042,0.006183483172208071,0.9577723741531372,1.355702695091665,1.932454361483296,0.12214046716690063,0.984881579875946,1.2636061883111156,1.9016462940719283,0.1713755577802658,0.981343686580658,1.4608985694152945,1.425629681133075,-0.23806095123291016,0.9700110554695129,1.1909300189457737,1.3991799319554632,-0.3196414113044739,0.9923317432403564,0.0004509389400482178,1.3291180101906401,1.3907776890725694,179.85476519221996,178.6873801174051,1.0,0.015432866566282575,-0.004057369225807406,0.0007323849506030689,-0.04117024309289096,97.55948035862086,0.9288684065121764,33,1.1
1.3405224154989523,0.9054646737313029,-0.4035419523715973,0.9999834895133972,1.4346437418185163,1.0465491683420818,-0.19097252190113068,0.9999942779541016,1.2410102980328643,1.0461149943339938,-0.20009975135326385,0.9999915957450867,1.390121085172836,1.394975890037092,0.001273464527912438,0.999984860420227,1.2788758292166216,1.3950810777374785,-0.0014256424037739635,0.9999855160713196,1.375749933354957,1.6756257804691874,-0.02992546558380127,0.9797797799110413,1.276062058231283,1.6705186821205715,0.00448029488325119,0.9568268060684204,1.3600041195899375,1.938327509283992,0.11051076650619507,0.9853845238685608,1.2677725609562724,1.9054646737313028,0.16437718272209167,0.981225311756134,1.4659604751720918,1.4301727935623871,-0.21946966648101807,0.9714484810829163,1.1998781392641193,1.4026319846595514,-0.30027174949645996,0.9925453066825867,0.00016483664512634277,1.3344984571947287,1.3950284838872853,179.50127662792883,178.56458875030492,1.0,0.008344480690019624,-0.001731721666125036,-0.05415086954216633,0.017741924934472696,97.3360816302629,0.9285525372538688,34,1.1333333333333333
1.3493946443821239,0.9127481496502879,-0.39892810583114624,0.9999839663505554,1.4479897110329636,1.0535368956421256,-0.188203826546669,0.9999943971633911,1.2537174931248565,1.0532665368164549,-0.1963154673576355,0.9999914169311523,1.4020272881437104,1.4061905453598254,0.0016447454690933228,0.9999848008155823,1.2888763109557995,1.4046512149867143,-0.0017978299874812365,0.9999852180480957,1.3899554228005824,1.6871441809945253,-0.027878537774086,0.9793651103973389,1.2854445478321743,1.6807984539363408,0.006400314159691334,0.9546423554420471,1.3692911888628285,1.9504640356377347,0.11497759819030762,0.9854565262794495,1.2786501721176518,1.912748149650288,0.1757771521806717,0.9803773760795593,1.477587245448986,1.4400754128049715,-0.21584896743297577,0.9728546142578125,1.2107274367343752,1.412424525157122,-0.29140394926071167,0.9925261735916138,0.00010195374488830566,1.345451799549755,1.40542088017327,177.97320557259366,179.0341407032587,1.0,0.015006531253415698,0.007453746226588974,0.05141683133535194,0.07158906566261042,96.646259998066,0.935556468117542,35,1.1666666666666667
1.3571543871383387,0.9165592253239787,-0.39798396825790405,0.9999844431877136,1.4557154641093009,1.057521129425299,-0.1856510043144226,0.9999945163726807,1.2623898531142064,1.0558635990424003,-0.19391722977161407,0.9999915957450867,1.407569309387736,1.4134994683617716,0.002747184131294489,0.9999849796295166,1.2941178384584824,1.4105866083036511,-0.0028936476446688175,0.9999853372573853,1.3979269680336146,1.7000133484923108,-0.025190522894263268,0.9797199964523315,1.2916345585958338,1.6910773185624832,-0.00405813567340374,0.9556397795677185,1.3772133141449419,1.9586030080613148,0.1669268161058426,0.9853331446647644,1.287139402225627,1.9165592253239787,0.2029518336057663,0.9792568683624268,1.4839828409178748,1.4460921693553852,-0.2067214995622635,0.9745588898658752,1.2151861876594856,1.4217383927240717,-0.27972930669784546,0.9929482936859131,0.0006224513053894043,1.3508435739231093,1.4120430383327114,177.3477540079054,179.3651613773354,1.0,-0.002005427579106869,0.005705230447186338,-0.13452195167201308,-0.014021819222845474,96.23178544237977,0.9422898388149674,36,1.2
1.3635517685433063,0.9206160834456253,-0.416281521320343,0.9999851584434509,1.4606661677093917,1.0614972940397176,-0.19623933732509613,0.999994695186615,1.2666215507321248,1.0598676236343236,-0.19634053111076355,0.9999917149543762,1.4123250944307844,1.418498834327995,0.002114509232342243,0.9999850392341614,1.2985156751318128,1.4138906359474686,-0.0022598798386752605,0.9999852180480957,1.4020910797512436,1.7131399296334815,-0.02475793845951557,0.9800838232040405,1.2967353615853616,1.6983783357477926,-0.00873262993991375,0.9563855528831482,1.3824029532747357,1.9681858574689641,0.15351000428199768,0.9857684373855591,1.2965647229771418,1.9206160834456252,0.19009368121623993,0.978926956653595,1.4914818114937292,1.4523182593268698,-0.21441864967346191,0.9763784408569336,1.2185155636033107,1.4278981378324993,-0.2754540741443634,0.993303120136261,0.000609666109085083,1.3554203847812987,1.4161947351377318,177.5751410299411,179.6854426448705,1.0,-0.004180640538962047,-0.009007287146536322,-0.015892680057243227,-0.10803185674980822,95.39277046789329,0.9379242044845787,37,1.2333333333333334
1.3670835224092028,0.9233137013768982,-0.4163796305656433,0.9999855160713196,1.4634614408172038,1.0640300575546415,-0.19859744608402252,0.9999946355819702,1.2684624004337914,1.0621742931968772,-0.20170550048351288,0.9999917149543762,1.4149308676881927,1.4215356164650408,0.0021323063410818577,0.9999850988388062,1.3010344379409087,1.4167638790736203,-0.0022784050088375807,0.9999852776527405,1.404614111185872,1.7167650925654783,-0.01767049916088581,0.9804022312164307,1.2960791599059736,1.7020590082769724,-0.011396154761314392,0.9574725031852722,1.3856279133783964,1.9727678056778006,0.15595075488090515,0.986262321472168,1.302339261028166,1.9233137013768982,0.1814284324645996,0.9791271686553955,1.4950058423246162,1.4581754064159869,-0.22939594089984894,0.9772244691848755,1.22085024903727,1.4323979652934942,-0.28746581077575684,0.9935856461524963,0.0006927549839019775,1.3579826528145507,1.4191497477693304,177.7598575098746,177.38425837406078,1.0,-0.00279255402393059,-0.0007646426170975209,0.010826163394087276,0.06402291473957435,95.33149223904003,0.9373262499535758,38,1.2666666666666666
1.3748693906092049,0.9288725063184647,-0.41356974840164185,0.9999855756759644,1.4702577689944287,1.0705817315815511,-0.1954193413257599,0.9999945163726807,1.2729501419189857,1.067098199986983,-0.202302485704422,0.9999915361404419,1.4202946874880773,1.4272112542573292,0.0028492745477706194,0.999984860420227,1.306026980156991,1.4213357152681616,-0.002991148503497243,0.9999849200248718,1.410348816444071,1.7234493831902387,-0.02030760794878006,0.9805061221122742,1.3047167182905728,1.7058102623473366,-0.032218556851148605,0.9582394957542419,1.3928145357872135,1.9814262946240069,0.15145032107830048,0.9866135716438293,1.311080068726429,1.9288725063184646,0.15425610542297363,0.9791382551193237,1.5015865494209264,1.4645678644631204,-0.22712187469005585,0.9782221913337708,1.2245043576005767,1.439003049983761,-0.2902638912200928,0.9937635660171509,0.001295238733291626,1.363160833822534,1.4242734847627454,178.0345980179259,178.10205577103034,1.0,-0.001772635326516262,-0.004051300298687417,0.007880487524542856,-0.025097336248444152,95.03161388633386,0.93322429610145,39,1.3
1.3741787683814701,0.9276294938440843,-0.4075566828250885,0.9999850988388062,1.4688165685019698,1.068871167879239,-0.19160504639148712,0.9999944567680359,1.2708758181903164,1.0661245518881364,-0.19376634061336517,0.9999912977218628,1.4180039325637666,1.4250800822880325,0.0034811855293810368,0.9999847412109375,1.3039855144378618,1.418268525852029,-0.0036164019256830215,0.9999847412109375,1.4082247054899026,1.720711779955706,-0.020792197436094284,0.9790565967559814,1.3101592777963813,1.700097353682953,-0.06753410398960114,0.9587138891220093,1.3913352340938296,1.9790958496789985,0.15083765983581543,0.9860872626304626,1.3144866506043227,1.9276294938440843,0.0998525321483612,0.9787778258323669,1.4991388312820018,1.4628994750392328,-0.21218860149383545,0.9786466360092163,1.2221207032002823,1.437580474455943,-0.27769216895103455,0.9933843016624451,0.0010227560997009277,1.3609947235008142,1.4216743040700306,178.15473943722506,179.83463680571754,1.0,-0.0011690475529276781,-0.003911135249696106,0.004811256790249264,0.0010740878755476646,94.69954699163631,0.9294186503230066,40,1.3333333333333333
1.361980388926439,0.9195923297932228,-0.3755832314491272,0.9999840259552002,1.4560360286469498,1.0599652236873949,-0.16737058758735657,0.9999943971633911,1.2605493978396043,1.0567300795114913,-0.16184040904045105,0.9999907612800598,1.4052945948383486,1.4122438288940693,0.003324939636513591,0.9999846816062927,1.2920502707375836,1.4020185998778283,-0.0034639141522347927,0.999984622001648,1.39565476153176,1.7050819248604152,-0.0286007821559906,0.9773304462432861,1.3022741512813225,1.681094344133514,-0.09161080420017242,0.9594199061393738,1.3790845727844776,1.9617175002460963,0.12288965284824371,0.9856586456298828,1.3070440158082224,1.919592329793223,0.05792947858572006,0.9787506461143494,1.485778890011999,1.450042623629347,-0.1940128207206726,0.9792516827583313,1.2112270330344828,1.4247687587794484,-0.24402344226837158,0.9925097227096558,0.0012154877185821533,1.348672432787966,1.407131214385949,178.1911300952464,179.04765956286653,1.0,-0.001297463031166961,-0.011752414708626993,-0.0008635410777436976,-0.04899360213484142,93.03693823399749,0.9140945441197057,41,1.3666666666666667
1.3339810134707315,0.9011556288025045,-0.3696073889732361,0.9999828934669495,1.4261579367652402,1.0387021260921636,-0.15824422240257263,0.9999944567680359,1.2354411068523026,1.035265437473171,-0.16271474957466125,0.9999904036521912,1.3766043449380083,1.3837826530101585,0.005164493806660175,0.9999847412109375,1.2655920367359283,1.3736431588099056,-0.0053111473098397255,0.9999845623970032,1.3677535798289342,1.6723114099150078,-0.028492754325270653,0.9756380915641785,1.2769376551658111,1.6490457467743695,-0.0757959708571434,0.9593629837036133,1.349544453227309,1.9229982813837083,0.1246936097741127,0.9848337769508362,1.2791831397183135,1.9011556288025047,0.07368229329586029,0.9783812761306763,1.4553702174271856,1.4226677065191478,-0.17818023264408112,0.9799321889877319,1.1865126854024544,1.3959941848664164,-0.23083403706550598,0.9916203022003174,0.0013180077075958252,1.3210981908369683,1.378712905910032,177.6025322916326,178.15125605676718,1.0,-0.0011857226990354525,0.001470320112901971,0.0006581496918315548,0.1001074783973259,92.95308846267164,0.8956182964368746,42,1.4
1.3050478343615486,0.8816814983903155,-0.3999952971935272,0.999983012676239,1.3948355676715258,1.016346219932839,-0.17330673336982727,0.9999946355819702,1.2084929940861657,1.0135457703281592,-0.19133710861206055,0.9999904036521912,1.3470349629678289,1.3540419412071325,0.008105271495878696,0.9999846816062927,1.2381089993315537,1.344122902894026,-0.00824544858187437,0.9999845027923584,1.3385574331660088,1.6360403890004993,-0.010578596964478493,0.9744024276733398,1.249746519547646,1.6145340855939776,-0.05735150724649429,0.9599044919013977,1.3202346131131049,1.8823955621001258,0.1411043256521225,0.984492838382721,1.250536384100587,1.8816814983903154,0.07596924901008606,0.9791372418403625,1.423710138792332,1.3960648034104752,-0.20582249760627747,0.9808603525161743,1.1617096564648008,1.365952025136989,-0.2489524632692337,0.9912815093994141,0.0010977387428283691,1.2925719811496912,1.3490824220505793,177.46834816208076,177.7051210687551,1.0,0.0002910078506292963,0.0013466913009628641,0.0108268856665078,-0.000685214435836178,92.85352609171704,0.877225441544754,43,1.4333333333333333
1.3000609068973348,0.8788871348807343,-0.38447290658950806,0.9999827742576599,1.390448834416611,1.013192073190142,-0.16596993803977966,0.9999948143959045,1.204547280457011,1.0120701917885133,-0.185001403093338,0.9999902248382568,1.342765464182409,1.3500145673291037,0.009238681755959988,0.9999850988388062,1.2342245375668832,1.341772126954349,-0.009384178556501865,0.999984860420227,1.3348789456467334,1.6311039913269063,-0.013496249914169312,0.9742933511734009,1.2466310967152416,1.6168120923686902,-0.05138535052537918,0.9608719944953918,1.316158639275035,1.8788871348807343,0.13609588146209717,0.984345018863678,1.2469431346648772,1.8928805627566905,0.0764913558959961,0.9800361394882202,1.4192292382211549,1.391357890323322,-0.1785772740840912,0.9818744659423828,1.1580255827159018,1.3620457259517045,-0.24250102043151855,0.9900912046432495,0.000441133975982666,1.288495000874646,1.3458933471417263,177.28656945249807,177.48200196451066,1.0,-0.00044280156175239107,0.0076271131344441065,-0.005560826649317291,0.047683718261761196,93.71509441273719,0.8650311222541752,44,1.4666666666666666
1.2970808923950172,0.877288080548335,-0.38689082860946655,0.9999831318855286,1.3880720962774853,1.0116071644088627,-0.1693689376115799,0.9999949932098389,1.2025212858295922,1.0110103749951667,-0.18666717410087585,0.9999903440475464,1.340520684575797,1.3478773796381989,0.009460069239139557,0.9999855160713196,1.2320847215478359,1.3407104586152987,-0.00960328709334135,0.9999852776527405,1.332575901859884,1.6291674526626139,-0.004010798409581184,0.9742746353149414,1.2453035276103446,1.6196204867280375,-0.04076449200510979,0.9622536301612854,1.3140248084912836,1.877288080548335,0.15149006247520447,0.9843591451644897,1.2452411776069356,1.8942786078121983,0.0854787677526474,0.9810751080513,1.4167667179919183,1.388794569375237,-0.1876589059829712,0.9828373193740845,1.156093157866501,1.3601338466917838,-0.2465071678161621,0.9896547794342041,0.00023505091667175293,1.2863027030618164,1.344293919126749,177.34199182903907,177.273518009217,1.0,-0.0005141228746130657,0.0048434855675990075,-0.000561419435179745,-0.02159156556522119,94.2673521669625,0.8626070158977145,45,1.5
1.284983815211753,0.869048182226298,-0.3905903100967407,0.9999827146530151,1.379620847484384,1.006570409563627,-0.17831450700759888,0.9999951720237732,1.194649464464351,1.005771304681431,-0.18971343338489532,0.9999906420707703,1.3323278274944275,1.3402827755781814,0.009449278935790062,0.9999861717224121,1.2245488479464735,1.33556215279833,-0.009590262547135353,0.9999860525131226,1.3242012504844456,1.6209849680286599,0.011042392812669277,0.974545955657959,1.2383330875224041,1.6130721374728145,-0.03889883682131767,0.9642513394355774,1.305113586836227,1.8690481822262979,0.17204168438911438,0.9846440553665161,1.237275636732411,1.8944288062230452,0.07478590309619904,0.9823060631752014,1.4081059845472295,1.3809350647748777,-0.20530767738819122,0.9833606481552124,1.148956083226341,1.3528020603292974,-0.2377910166978836,0.9896095991134644,0.0003166496753692627,1.2784383377204505,1.3379224641882557,177.25824533846858,176.9410504939755,1.0,-0.000611859701444466,0.012614345643800854,-0.000723473854576175,0.055958620244416495,95.558223602029,0.8621963523089601,46,1.5333333333333334
1.277753769668446,0.8646503849244718,-0.38656777143478394,0.9999837875366211,1.371666652935859,1.004579099563585,-0.17716994881629944,0.9999954700469971,1.189179574250092,1.0038033338900552,-0.18294215202331543,0.9999911785125732,1.326729314101215,1.334450122341497,0.009320324286818504,0.999986469745636,1.2197003138862654,1.3300324970772104,-0.00945728924125433,0.999986469745636,1.3186401707014022,1.6135991917297596,0.005138257518410683,0.9747214317321777,1.234496931913418,1.6058759868393953,-0.060684241354465485,0.9661819934844971,1.2989003120887779,1.8646503849244718,0.10387728363275528,0.9848318696022034,1.2318273633029433,1.9010161047396001,-0.006290922407060862,0.9834349751472473,1.3999800778461904,1.3763914987825767,-0.1940682828426361,0.9844661355018616,1.1440943920634932,1.347829721007462,-0.208830326795578,0.9901533126831055,0.00030869245529174805,1.2732148139937403,1.3322413097093537,177.1639952649469,176.4112883119969,1.0,0.0009082897115436881,-0.0006290492023498319,0.01117117577676953,-0.09709795519735456,95.39393647510474,0.8492011224857182,47,1.5666666666666667
1.2748981626316351,0.864758596580955,-0.322235107421875,0.9999819993972778,1.3700135868048822,1.006752579856279,-0.12092527002096176,0.9999949336051941,1.188444467015464,1.005741228406257,-0.14736011624336243,0.9999914765357971,1.32585748213937,1.3355519846405213,0.011964090168476105,0.999986469745636,1.219740633520076,1.3325871414250887,-0.012117641977965832,0.999987006187439,1.318734577770507,1.613590040727457,0.0027672150172293186,0.9685608148574829,1.2362938545980424,1.6058602655655205,-0.08048904687166214,0.9655536413192749,1.2991084272571125,1.864758596580955,0.10833181440830231,0.9823487401008606,1.2319238156188408,1.898442996653372,-0.02666301652789116,0.9835168123245239,1.399078518159646,1.3763147962095368,-0.1586819589138031,0.9706723690032959,1.1436737015590408,1.3493047763997221,-0.20901784300804138,0.9898715019226074,0.0004023909568786621,1.272799057829723,1.334069563032805,176.9995312365529,175.67789551358712,1.0,-0.004402140861561641,0.013171709097538153,-0.041713862889247624,0.1084045304744245,96.04837707436127,0.8570689052670982,48,1.6
1.2721279976938324,0.8647771035557187,-0.35511961579322815,0.9999825954437256,1.366193923790841,1.0088539184734107,-0.1461222767829895,0.9999951124191284,1.1823535479838152,1.0087376511896082,-0.15779545903205872,0.999991774559021,1.3238291820843802,1.340331944593545,0.012135540135204792,0.9999870657920837,1.2177674988442568,1.3396470763535193,-0.012279724702239037,0.9999877214431763,1.317691138507672,1.6143986542960873,0.03295452147722244,0.9679461121559143,1.2362736245644004,1.6081954351157013,-0.06789335608482361,0.9673850536346436,1.2990654492662987,1.8647771035557188,0.17885878682136536,0.98226398229599,1.232084406452145,1.904356075149119,0.008234753273427486,0.9845560789108276,1.399191358044576,1.3775816749575778,-0.18832604587078094,0.9702962636947632,1.137989263705212,1.3525925993626424,-0.22087223827838898,0.9892641305923462,4.6253204345703125e-05,1.2707983404643184,1.3399895104735322,177.0285862104527,175.24748254985118,1.0,-0.01631452613880154,0.04284516653406531,-0.08906736556894991,0.22186225934505954,96.91326741018393,0.8725857803577037,49,1.6333333333333333
1.2704498823369887,0.8666229883329951,-0.39121419191360474,0.9999819993972778,1.3613099660247963,1.0101012896358004,-0.17454975843429565,0.999995231628418,1.1782352003271075,1.010650418686527,-0.19979780912399292,0.999991774559021,1.3248819057552954,1.3432446552164035,0.013293649069964886,0.9999873638153076,1.216303373026319,1.3455155685810587,-0.013421526178717613,0.9999881386756897,1.3176092832058457,1.6160911461227754,0.0435403436422348,0.9654914140701294,1.236564975046202,1.6128073214006886,-0.07232258468866348,0.9684241414070129,1.3004962860666867,1.866622988332995,0.20619988441467285,0.9817237257957458,1.2333112991739366,1.9089062252275075,0.010926472954452038,0.9853969812393188,1.4003000785520032,1.3840133998887942,-0.2308068573474884,0.9686304330825806,1.1372375643869186,1.3626251158518303,-0.2677227258682251,0.987454891204834,0.00021821260452270508,1.2705926393908071,1.344380111898731,177.6192219900618,175.03551209077807,1.0,-0.012610444078039022,0.022842036337928077,0.029194257728364266,-0.1572659129837736,97.43846362317952,0.8792005079814758,50,1.6666666666666667
1.2657679779654363,0.8671940088087208,-0.3521960377693176,0.9999815821647644,1.3585011211713331,1.0109762936260265,-0.14929886162281036,0.9999953508377075,1.174918117333001,1.012283563635763,-0.17182567715644836,0.9999918341636658,1.325173618279259,1.345376172312811,0.012879456393420696,0.9999876618385315,1.2136448840880751,1.3487917098632298,-0.013013671152293682,0.9999885559082031,1.3183578574704844,1.6175327624505569,0.024416957050561905,0.9630740284919739,1.2337611826236836,1.61474631199567,-0.08286032825708389,0.9688423275947571,1.3017619693579032,1.8671940088087207,0.18226931989192963,0.9804860949516296,1.2344100131447673,1.9190509042563972,-0.01652873493731022,0.9858787059783936,1.4014221272002096,1.3855632769281931,-0.2045770138502121,0.9681075811386108,1.1366871883184981,1.3673852122493317,-0.24460525810718536,0.9858703017234802,0.0005189776420593262,1.2694092511836672,1.3470839410880204,177.63152534409838,175.79665737503166,1.0,-0.018582684534919066,0.0107301514803361,-0.045788262814707936,-0.09322165049197104,97.44562987414481,0.8788759583732519,51,1.7
1.2530622494092851,0.8614919769806443,-0.3601440489292145,0.9999806880950928,1.3506814271162262,1.0076617421092693,-0.15390384197235107,0.9999954104423523,1.1669609076613678,1.009244042143773,-0.17151407897472382,0.999991774559021,1.318413912803974,1.3417101953232298,0.012816016562283039,0.9999880194664001,1.2050105793533834,1.3454913692385186,-0.012951977550983429,0.9999890327453613,1.3144345490920168,1.613058073053298,0.021028686314821243,0.9631981253623962,1.224122422615791,1.6141063533751019,-0.08171332627534866,0.9701552391052246,1.3002690680963076,1.8614919769806444,0.1842736452817917,0.9799453616142273,1.2304776688449082,1.9181820427170864,0.011546002700924873,0.9866833090782166,1.3967038222638695,1.381149066719158,-0.21569600701332092,0.9674792289733887,1.131535454493063,1.3687264284746645,-0.24846164882183075,0.9847281575202942,0.0006300508975982666,1.2617122460786787,1.3436007822808742,177.57677135194038,177.12760702744131,1.0,-0.028958360373861236,0.004119489894758888,-0.07759758749232336,-0.04893666228272173,97.42707467774702,0.8827194660736281,52,1.7333333333333334
1.2428649943851628,0.851522275761514,-0.32583755254745483,0.9999799132347107,1.340671801246158,1.000023381193047,-0.1276305764913559,0.9999952912330627,1.1585068412700694,1.0040033219165103,-0.137688547372818,0.9999919533729553,1.3089131416229391,1.3348550965453394,0.011038783937692642,0.999988317489624,1.195078601390645,1.3386538702538877,-0.011191142722964287,0.9999895095825195,1.307918472907266,1.605629863651158,0.02044915407896042,0.9643309116363525,1.21033661695135,1.6154198819219967,-0.06247996166348457,0.9719789624214172,1.2976182382836954,1.851522275761514,0.18581494688987732,0.9794223308563232,1.2241598910227909,1.9138685993332487,0.021204084157943726,0.9874920845031738,1.3878246681564608,1.366336160347924,-0.1909683793783188,0.9678298234939575,1.123225365586175,1.3622727472760352,-0.22569088637828827,0.985306978225708,0.0015929043292999268,1.251995871506792,1.3367544833996134,177.81179874566968,179.49637563937117,1.0,-0.022936646036447423,0.00016634024583434698,0.041261123281296795,-0.027622070822247276,97.32958188875878,0.888835154546674,53,1.7666666666666666
1.236427671829466,0.8405006973322852,-0.3456178307533264,0.9999805688858032,1.330051240504167,0.9911235812779848,-0.13802894949913025,0.9999954700469971,1.1492043472729607,0.9990729172628514,-0.1527862399816513,0.9999921321868896,1.3009539648003625,1.3289893026291637,0.011521236971020699,0.9999886155128479,1.1875749710050334,1.3324000478035145,-0.011669320054352283,0.9999898672103882,1.2996960087920508,1.5978797717886313,0.02980351448059082,0.9651305675506592,1.2032265444731338,1.606536596822727,-0.062152743339538574,0.973697304725647,1.291707899174915,1.840500697332285,0.2164154052734375,0.97840416431427,1.2187382956267792,1.9022142338819568,0.024297278374433517,0.988223135471344,1.3786683340564159,1.3493339683411438,-0.18261322379112244,0.9700515866279602,1.1153912192772713,1.3563376873478155,-0.23055148124694824,0.9859563112258911,0.00319555401802063,1.244264467902698,1.330694675216339,178.38230729285183,179.73537872979222,1.0,-0.01606144155617117,-0.0015466495281132055,0.04815659955107957,-0.01217080850008961,96.64530647306984,0.90657928997719,54,1.8
1.234982682141248,0.8354765637373801,-0.3486998677253723,0.999981701374054,1.3250217686306809,0.9874688694135515,-0.1432495266199112,0.9999956488609314,1.14393750488007,0.9982731775355732,-0.15436005592346191,0.9999922513961792,1.2958185412580188,1.3279371427733258,0.01145925559103489,0.999988853931427,1.1828097527613972,1.331250626908413,-0.011605477891862392,0.9999901652336121,1.2958770650566844,1.5966559056957879,0.026545101776719093,0.9664238691329956,1.1980427567464975,1.6054768496891052,-0.057808779180049896,0.9753510355949402,1.290239223064718,1.8354765637373802,0.20919840037822723,0.9782165884971619,1.2171552959370704,1.9028970169308608,0.02477879635989666,0.9889984130859375,1.3769516390441745,1.338055537158834,-0.18523597717285156,0.9722785949707031,1.1114162003653367,1.3563189627034498,-0.24086669087409973,0.9865801334381104,0.004346519708633423,1.239314147009708,1.3295938848408693,178.6351907082921,179.5026253624304,1.0,-0.031525580192702046,-0.0007233057251248993,-0.12176214199900416,0.006468550549459535,96.58193721934988,0.9154282308040479,55,1.8333333333333333
1.232587419786428,0.8341567895981665,-0.3734099268913269,0.9999828934669495,1.3234600049547354,0.9853483515877186,-0.1603272408246994,0.9999958872795105,1.1423618386141257,0.9979763350289785,-0.16759775578975677,0.9999925494194031,1.2931111034580571,1.3275289609460952,0.009796611033380032,0.9999892711639404,1.1802486773486018,1.3307066570830681,-0.009936301037669182,0.9999906420707703,1.2931819065510266,1.5967107667730565,0.02714814804494381,0.9676737785339355,1.1962281800013108,1.6065537298084354,-0.04666094481945038,0.9769819378852844,1.2892726278279114,1.8341567895981665,0.21684734523296356,0.9779043197631836,1.2162167967006943,1.9025193977145265,0.02991730533540249,0.9897345900535583,1.3758606630680033,1.3356884989781321,-0.20460033416748047,0.9741432070732117,1.1089210045596154,1.3555649120312303,-0.2410469949245453,0.9872273802757263,0.005081474781036377,1.2366798904033296,1.3291178090145817,179.04170481696988,179.45165865862484,1.0,-0.016970908528493433,-0.0009963744116731899,0.10653218901481687,-0.0020011749678869183,96.6812158455739,0.9175399122295839,56,1.8666666666666667
1.227228871849995,0.8292753763027997,-0.3713887631893158,0.9999838471412659,1.316591574679814,0.9761146086231455,-0.15510818362236023,0.9999960660934448,1.1378375029746564,0.9955316432138273,-0.1669168621301651,0.9999927878379822,1.2886866569975406,1.3246127479529821,0.009835759177803993,0.99998939037323,1.1756311720193982,1.328358247550069,-0.009974796324968338,0.9999908208847046,1.2898600439432746,1.5987253066583467,0.03336849808692932,0.9685039520263672,1.192379235232757,1.612340791701505,-0.04004571586847305,0.9782739877700806,1.2860066772676855,1.8292753763027998,0.24167001247406006,0.9762445092201233,1.2124544806469837,1.9029107635607572,0.0577542707324028,0.990198016166687,1.3714119881845652,1.3343931889475844,-0.180830180644989,0.9760168194770813,1.1025225602886464,1.3612708574110262,-0.2331276386976242,0.9878232479095459,0.007832437753677368,1.2321589145084693,1.3264854977515255,178.79719607694082,179.4229091920138,1.0,-0.012120393523678104,0.004832513221971543,0.03857330629033232,0.046732389945975394,96.47551681474293,0.9210093572467113,57,1.9
1.2239643815874197,0.8244539002657312,-0.3473063111305237,0.9999848008155823,1.3126729766871006,0.9719792146286917,-0.1329338252544403,0.9999961853027344,1.1321370811578668,0.9897928453464903,-0.13895772397518158,0.9999929666519165,1.2850512746923621,1.3224210232285403,0.006760900374501944,0.9999896287918091,1.1715326276469507,1.3273440839060264,-0.006910930387675762,0.9999911189079285,1.2875712812169182,1.5961693600124356,0.008662731386721134,0.969782829284668,1.1891662578987094,1.6083660323118902,-0.043031394481658936,0.9795079231262207,1.2835845769170529,1.8244539002657312,0.2170240879058838,0.9750915169715881,1.2101325145585793,1.8987056779270317,0.054495833814144135,0.990679144859314,1.365423510641781,1.3295268015605841,-0.1644090712070465,0.9775617718696594,1.0973768600662661,1.3558696964754124,-0.19040799140930176,0.9883896708488464,0.007199406623840332,1.2282919511696564,1.3248825535672832,178.47207770046262,179.46017873287806,1.0,-0.011644673002214214,0.007156920343373201,0.0034813911137550066,0.01795136169612211,96.98995546066189,0.9318957485317965,58,1.9333333333333333
1.2204929841698613,0.824332415270768,-0.3603605628013611,0.9999854564666748,1.3123348943423443,0.9705121581468142,-0.1388523429632187,0.9999963045120239,1.1305623448780975,0.9901730323162895,-0.14705301821231842,0.9999931454658508,1.2835698689754866,1.3237518811350728,0.006938191596418619,0.9999896287918091,1.1680769781841849,1.328574939099094,-0.007086670491844416,0.9999912977218628,1.2867724952087203,1.597569854359712,0.010316362604498863,0.9705110788345337,1.1872330175956947,1.6114887960122852,-0.04341892898082733,0.9804512858390808,1.284624271619554,1.8243324152707678,0.22453837096691132,0.9735914468765259,1.2104264801811944,1.9010680366519335,0.06428174674510956,0.9909991025924683,1.3662244361429798,1.3283911346617006,-0.17517893016338348,0.9786576628684998,1.0925617739770859,1.35671045272214,-0.21909022331237793,0.988757848739624,0.007937729358673096,1.2258234235798358,1.3261634101170834,178.78711598496915,179.29431944039032,1.0,-0.027636328937028724,-0.0007017781568331887,-0.11794844652803198,-0.058061536422658926,97.0467584587918,0.9345993487742008,59,1.9666666666666666
1.2222213746625796,0.825776380472848,-0.37748080492019653,0.9999860525131226,1.3163100238550187,0.973968398746958,-0.15730462968349457,0.9999964237213135,1.1313420553145235,0.9914921469361324,-0.1579904705286026,0.9999933242797852,1.2847370612018127,1.3282799687976266,0.005791406612843275,0.9999898076057434,1.167192939489154,1.3328566427499324,-0.005941976793110371,0.9999915361404419,1.291499945307717,1.603055332371707,0.002103125210851431,0.9715957045555115,1.1918215003844752,1.6158105948098689,-0.04467853158712387,0.9812725782394409,1.289894206535687,1.825776380472848,0.217619851231575,0.9728912115097046,1.214459143679553,1.905831959978135,0.06251323223114014,0.9913350939750671,1.3709701655632058,1.333354020371598,-0.19433245062828064,0.979805052280426,1.087407081439809,1.3604702840199516,-0.2429150640964508,0.9891186356544495,0.007051825523376465,1.2259650003454834,1.3305683057737796,178.17702255136888,179.48863992598456,1.0,-0.029456060840291676,0.0004949272111334053,-0.013162536426498055,0.009126224488499644,97.32194901807473,0.9420131516930434,60,2.0
1.2331898512094388,0.8315031278843732,-0.3792745769023895,0.9999870657920837,1.3244623870436338,0.9826653959126106,-0.15739086270332336,0.9999966025352478,1.1358060434212862,0.9922043531678117,-0.1666269749403,0.9999936819076538,1.2935800119950287,1.3411209525659362,0.0056434208527207375,0.9999903440475464,1.1736279292854237,1.345424593578464,-0.005795854143798351,0.9999920129776001,1.3091089297148006,1.620333630529031,-0.014338001608848572,0.9732697606086731,1.203490973699714,1.631973101458363,-0.04532743990421295,0.9822170734405518,1.3099765088004305,1.8315031278843732,0.22276338934898376,0.971321702003479,1.2283092701049674,1.9236890898713956,0.07238318026065826,0.9916635751724243,1.3843618421067394,1.346255375344255,-0.17695412039756775,0.9809780120849609,1.0911196624160029,1.3723526029878077,-0.25519436597824097,0.9895411133766174,0.003801017999649048,1.2336039706402262,1.3432727730722,177.05206667803577,178.91315811195128,1.0,-0.03635196950147109,-0.0037191534173092594,-0.05347150030463976,-0.03415783754200607,96.9788774647825,0.9556744609955341,61,2.033333333333333
1.232958107864773,0.8299133481053534,-0.37764304876327515,0.9999879598617554,1.3248827743029692,0.9817440694035077,-0.15377430617809296,0.9999967217445374,1.1344716152559822,0.9902237295976716,-0.15892860293388367,0.9999939799308777,1.292406174743287,1.3421752992762936,0.004802466370165348,0.9999907612800598,1.173229278344253,1.346406862847412,-0.004964792635291815,0.9999924302101135,1.311846051402231,1.6214676218132449,-0.021159689873456955,0.9749332070350647,1.2041745133204405,1.6388786461270801,-0.03059876337647438,0.9831018447875977,1.311606509174759,1.8299133481053533,0.21914896368980408,0.9705992937088013,1.2286017608972075,1.9260805004023667,0.0915023609995842,0.9920486211776733,1.3838848228303942,1.344343298574275,-0.17867641150951385,0.982047975063324,1.0891543703028084,1.371872401047253,-0.24272997677326202,0.9900400042533875,0.003378063440322876,1.23281772654377,1.344291081061853,175.95256005830342,178.82169246835306,1.0,-0.008475057814705205,0.005242297848926992,0.21528128039767544,0.06918986241248393,97.18224601698422,0.961437133230356,62,2.066666666666667
1.2350206495897083,0.8309268921163513,-0.38100966811180115,0.9999885559082031,1.326056201366773,0.9807676939320442,-0.15577717125415802,0.9999968409538269,1.1349316490004904,0.9900072628015959,-0.17024321854114532,0.9999943375587463,1.2910719219581,1.344274845922926,0.00511309877038002,0.999991238117218,1.1721234545949821,1.3482361698005114,-0.005282558500766754,0.9999929070472717,1.31632133594206,1.6245228192552545,-0.01762574352324009,0.9763055443763733,1.2051020563307895,1.6425286053795662,-0.028065675869584084,0.9837767481803894,1.3124734067392836,1.8309268921163513,0.23058907687664032,0.9696931838989258,1.2300960701555028,1.9288107632367872,0.09889773279428482,0.9923657178878784,1.3845154253831957,1.3462873392598653,-0.19872920215129852,0.9825476408004761,1.087650563449451,1.3708259768475637,-0.26434847712516785,0.9906930327415466,0.003676503896713257,1.231597688276541,1.3462555078617187,173.78371592651462,178.5956591714121,1.0,-0.019976947877828034,0.002985886345526912,-0.08639345315390741,-0.01700896596530585,97.40467862268903,0.9630909326426557,63,2.1
1.234213574790771,0.8296720098060598,-0.36965078115463257,0.9999889731407166,1.3231617584618078,0.9796435823781521,-0.14992757141590118,0.9999969005584717,1.1322083768249163,0.9867853423557902,-0.16612116992473602,0.9999945163726807,1.288880203249937,1.3434494923652212,0.005271781701594591,0.9999914765357971,1.1696307531873025,1.3472645063118318,-0.005439670290797949,0.9999932050704956,1.3184839333594351,1.6238155331895365,-0.02901293709874153,0.9776274561882019,1.2025037684392028,1.6463385555155607,-0.027290651574730873,0.9840874075889587,1.3114388393558905,1.8296720098060597,0.19771838188171387,0.9696149826049805,1.2294966194217953,1.9272579566683548,0.10455650091171265,0.9924854040145874,1.3818855895348758,1.345334329222311,-0.17801401019096375,0.9829972386360168,1.0853303922536137,1.3672385995314993,-0.260632187128067,0.9911481738090515,0.0028447508811950684,1.2292554782186196,1.3453569993385264,172.01241017415347,179.21601798718615,1.0,-0.007714040210785108,0.0037683056217322395,0.0898797367197824,0.005767465050637441,97.21548026222956,0.9644805902513662,64,2.1333333333333333
1.230283797810811,0.8253509598200253,-0.3934093117713928,0.9999893307685852,1.3190440973639392,0.976237786496842,-0.16341808438301086,0.9999969005584717,1.1273315569232156,0.9791388768554931,-0.1927703320980072,0.9999948143959045,1.2843395932761104,1.3397128187521017,0.008349968120455742,0.9999917149543762,1.165600713706112,1.3430981947718774,-0.008522981777787209,0.9999935030937195,1.3141870716310993,1.6159231395253537,-0.04093290492892265,0.9791393876075745,1.1984604727370813,1.6409505810122882,-0.030609142035245895,0.984612762928009,1.3062452044048667,1.8253509598200253,0.19216400384902954,0.9702543616294861,1.2257383436043308,1.9225730587874617,0.09966586530208588,0.9927624464035034,1.3767485162133157,1.341657120531721,-0.19397646188735962,0.9828914403915405,1.0792770556207376,1.361422299408305,-0.2908572852611542,0.9917168617248535,0.001159369945526123,1.2249701534911113,1.3414055067619897,171.660795284746,179.23685098526116,1.0,-0.0021085284607716263,0.0035124511176231913,0.04397391822995042,-0.0019191302905963166,97.08717614235,0.9661984071262428,65,2.1666666666666665
1.227457871056348,0.8229059655091581,-0.4092335104942322,0.9999896883964539,1.3156450429913598,0.973802710884268,-0.17263613641262054,0.9999968409538269,1.1240098209425506,0.9758769732255598,-0.2017616331577301,0.9999950528144836,1.2813043287746728,1.3366404582927978,0.009526161476969719,0.9999918937683105,1.1629823997181348,1.3399161888505684,-0.009689823724329472,0.9999937415122986,1.310868630274901,1.6117753407687476,-0.011158902198076248,0.9798711538314819,1.1956886707945098,1.6372672973668057,-0.028652628883719444,0.9849733114242554,1.3013717493682249,1.822905965509158,0.22850842773914337,0.9703783392906189,1.222826676046302,1.9214193661946422,0.10058844089508057,0.9929975271224976,1.37285457019539,1.3386151810381979,-0.20673441886901855,0.9825900197029114,1.075961433093434,1.3569207954210596,-0.29463309049606323,0.9922387003898621,0.0008309483528137207,1.222143364246404,1.338278323571683,171.29139157269708,179.1786481528613,1.0,0.0010558899052605106,0.0008988353426931578,0.025652652423048993,-0.021152810954821015,96.99246642472728,0.9626804483534479,66,2.2
1.2160523271764652,0.8152596171142309,-0.4136061668395996,0.9999902248382568,1.3033228723882855,0.964379630979951,-0.17796780169010162,0.9999967813491821,1.1134851276960172,0.9659082794694269,-0.20398454368114471,0.9999952912330627,1.2685639525025392,1.3244507045865423,0.009488271549344063,0.9999920129776001,1.1510279505240801,1.3275734392756104,-0.009653110057115555,0.9999939203262329,1.2966611955926524,1.5964925092613151,-0.016725804656744003,0.9807666540145874,1.1842557164224408,1.6225709105649995,-0.02456912025809288,0.9852137565612793,1.2877812688534112,1.8152596171142308,0.2089577615261078,0.9712163805961609,1.211530640360314,1.9027480669530943,0.10810109227895737,0.9931980967521667,1.3582999813487788,1.3273115410529148,-0.20945656299591064,0.981853187084198,1.0651376398961339,1.341694425495593,-0.3029981553554535,0.9926901459693909,0.0006182193756103516,1.2097959515133097,1.3260120719310764,171.77883477789172,179.13359417945185,1.0,-0.006004419347226158,0.002896498065387267,-0.053230838869366574,0.015146743343306186,97.03577175793463,0.9556732726829158,67,2.2333333333333334
1.2008179923090474,0.8052360734186261,-0.4048158526420593,0.9999907612800598,1.2871898975788758,0.9523442241562913,-0.17698132991790771,0.9999967813491821,1.0993086670526526,0.953828889874753,-0.19993075728416443,0.9999954700469971,1.253014935937955,1.3078739308955196,0.008818875066936016,0.9999918937683105,1.1366540055813943,1.310980494225455,-0.008993624709546566,0.9999938607215881,1.279602851192677,1.5756730202025575,-0.07519958913326263,0.9821606874465942,1.1694303079182438,1.602781048697603,-0.021140379831194878,0.9854943752288818,1.2711328929348933,1.8052360734186261,0.12626393139362335,0.972618579864502,1.1966535209767244,1.8758371527481923,0.11782647669315338,0.9933339953422546,1.3406871970720564,1.317532989681195,-0.1932218372821808,0.9821921586990356,1.0526690329830233,1.3216909850652263,-0.28623834252357483,0.9931373000144958,0.0006080865859985352,1.1948344707596745,1.3094272125604873,172.21705364404,179.2846269584602,1.0,0.0020572681776619976,0.0008253660460156919,0.061332062938385674,-0.015625959092980406,97.01993337203047,0.9468224710284108,68,2.2666666666666666
1.1763439880701503,0.7889341535283146,-0.410726398229599,0.9999913573265076,1.2607517655668508,0.9329978793738583,-0.17686185240745544,0.9999967813491821,1.0772141426111992,0.9337075346414911,-0.19751188158988953,0.9999956488609314,1.2276760992510913,1.2813558606826105,0.008611258119344711,0.9999918937683105,1.113414758363308,1.2845793891903878,-0.008779330179095268,0.9999939203262329,1.2520082367340404,1.5459778705309664,-0.030674446374177933,0.9828058481216431,1.1465780267606183,1.571967105810413,-0.014654596336185932,0.9855445027351379,1.2437166177442187,1.7889341535283145,0.15954747796058655,0.9739051461219788,1.1722363129231888,1.8373011944176731,0.13380493223667145,0.9934056997299194,1.3126270239092384,1.2980350404049454,-0.19343441724777222,0.9820600748062134,1.031412581070238,1.2944531203055993,-0.28151383996009827,0.993486762046814,0.00029671192169189453,1.1705454288071997,1.2829676249364992,172.79176159568317,178.94086736300602,1.0,0.0006659852957817226,0.0019825070508761697,-0.010634433526486483,0.00925252775518004,97.03981635714673,0.9296205891825482,69,2.3
1.1523515922018792,0.7724301433189471,-0.4159330725669861,0.9999919533729553,1.2354658258640396,0.9141237311047268,-0.18096879124641418,0.9999968409538269,1.0553555944885011,0.9146731768573477,-0.1935974508523941,0.999995768070221,1.2030991617931612,1.255086354196604,0.006370132323354483,0.9999920725822449,1.0911713279692472,1.2584792707673838,-0.006532815285027027,0.9999940395355225,1.2267656278973451,1.5158524563200404,-0.04046044498682022,0.9839333295822144,1.123649459616226,1.541076954183404,-0.010947616770863533,0.9858586192131042,1.2188888652202654,1.772430143318947,0.1416361927986145,0.9757571816444397,1.148870744754965,1.8001309534493661,0.13611730933189392,0.9936132431030273,1.283236806090767,1.2721509505648982,-0.19274494051933289,0.9826675653457642,1.0112775713757411,1.2684380186847874,-0.26461654901504517,0.9936234951019287,0.00023445487022399902,1.1471352448812042,1.256782812481994,173.0557987652823,179.00467069100966,1.0,0.0014762048951032433,-0.002399032873948933,0.006287096848345011,-0.033140127085245975,97.15898470850945,0.9125940960535582,70,2.3333333333333335
1.130829854387783,0.7570622634655775,-0.3890967071056366,0.9999914765357971,1.2122994575059092,0.8971640581401431,-0.16753776371479034,0.9999966025352478,1.0358129456190444,0.8973731341933054,-0.1744595319032669,0.9999956488609314,1.1804538156825275,1.2317705389631048,0.004503887612372637,0.9999918341636658,1.070477960881939,1.2351985636406597,-0.0046790288761258125,0.9999938011169434,1.2036825079364928,1.4900995633875065,-0.05609248951077461,0.9844255447387695,1.1029183383896606,1.512340182779084,-0.015013949945569038,0.9845360517501831,1.1974579368114586,1.7570622634655775,0.09843650460243225,0.9771482348442078,1.1278665269444537,1.7682023839742727,0.12210126221179962,0.9932541847229004,1.2554711261514864,1.2490037526066815,-0.18415287137031555,0.9809134006500244,0.9927970900452173,1.2458628133424523,-0.24766437709331512,0.9936076998710632,9.08970832824707e-05,1.1254658882822333,1.2334845513018824,173.52615695673362,178.89281081772154,1.0,-0.0033193476791070495,-0.0003253407170988436,-0.03569460711401539,0.015191174397859953,97.22203110766915,0.898194473671797,71,2.3666666666666667
1.1164506510253607,0.7476561394720721,-0.3590683937072754,0.9999890327453613,1.1971114578432733,0.8859693965619363,-0.136893168091774,0.9999956488609314,1.0224683118017173,0.884277238312174,-0.15693780779838562,0.9999954700469971,1.1657994225894124,1.2173346375276266,0.004649075213819742,0.999991238117218,1.0572742564907922,1.2212017315548456,-0.004843053873628378,0.9999934434890747,1.1873513912345959,1.4726230889774146,-0.09848902374505997,0.9853230118751526,1.0942802505948412,1.4948263875961645,-0.029940733686089516,0.9837959408760071,1.182514409880287,1.7482127010021762,0.05725822597742081,0.978506863117218,1.114696893287348,1.747656139472072,0.10232953727245331,0.9930754899978638,1.2367070673566711,1.2338351773692957,-0.15507666766643524,0.975023627281189,0.9811012093130304,1.2312076545825619,-0.24302494525909424,0.9938482046127319,0.0007449984550476074,1.1115368395401022,1.219268184541236,174.1688990756579,176.91460448286122,1.0,0.0012201888234034696,0.00964048242216777,0.03558457640365002,0.07880940088167818,97.43884610764424,0.8899385936338067,72,2.4
1.1124202086480786,0.743738006314756,-0.35326510667800903,0.9999831318855286,1.1920955880494313,0.8820660243251771,-0.1255110651254654,0.9999929666519165,1.0181141594257146,0.8791441639196919,-0.16023670136928558,0.9999950528144836,1.160907507045137,1.2149074939683167,0.006561116315424442,0.9999904036521912,1.0529538413192596,1.2200195869194321,-0.006754790898412466,0.999993085861206,1.1779215284295124,1.479941472467463,-0.06713937968015671,0.9854936003684998,1.0895554561986858,1.496116689992613,-0.029756654053926468,0.9813956618309021,1.1790921060427648,1.7631175840022228,0.07481434941291809,0.9799778461456299,1.1104970398191192,1.743738006314756,0.1072753444314003,0.9923753142356873,1.2303818209013555,1.2285812641119278,-0.14600330591201782,0.9396830797195435,0.9842946717148584,1.23268024054069,-0.24948692321777344,0.9937422871589661,0.0012918412685394287,1.1069306741821983,1.2174635404438745,176.56374665790233,177.28250940302212,1.0,0.0006329266312570313,0.026013836286434694,-0.0045379130387251795,0.1279560379037915,98.06431594901635,0.8817332775887504,73,2.433333333333333
1.1127931518443523,0.7430565704871962,-0.3051709532737732,0.9999693632125854,1.1915005699451806,0.8806933622156768,-0.10057833045721054,0.9999889135360718,1.019169927755734,0.8790249325158898,-0.11083773523569107,0.9999944567680359,1.160516467295348,1.2171331107188168,0.00183816347271204,0.9999893307685852,1.052854136012362,1.2241526306253239,-0.0020233693066984415,0.9999926090240479,1.172254029590252,1.485659933989183,-0.06805422157049179,0.9853934645652771,1.0888018187035948,1.4985347587723954,-0.0247694980353117,0.9781169295310974,1.1849633657686955,1.7736013467106881,0.0386839434504509,0.9813150763511658,1.1107974509094831,1.743056570487196,0.10880748182535172,0.991356372833252,1.2228900388190718,1.2280496985998357,-0.148609459400177,0.8890066146850586,0.9903929013474316,1.2381051527801445,-0.19941428303718567,0.9932218790054321,0.0007379353046417236,1.1066853016538551,1.2206428706720704,179.97554353038333,177.67613841451714,1.0,0.0012216051240658472,0.02701926701834492,0.004383831432754343,0.007556002081764921,98.99212975483937,0.885698355532601,74,2.466666666666667
1.1139984764279882,0.7430322721172106,-0.3329627513885498,0.9999664425849915,1.1914074419223228,0.8801886523596603,-0.11699073016643524,0.9999875426292419,1.019796936565196,0.8790910795444861,-0.131526380777359,0.9999939799308777,1.1606299937255566,1.2175085332900888,0.0016183862462639809,0.9999884963035583,1.0538570646371417,1.22509917467456,-0.0018147757509723306,0.9999920725822449,1.1687412933087673,1.486809823866209,-0.05981381610035896,0.9849411845207214,1.0880798310232382,1.5006487678732872,-0.012712937779724598,0.9742969870567322,1.1873405408471784,1.7766372285029912,0.04888581484556198,0.9824199676513672,1.1113055794037103,1.7430322721172107,0.12234057486057281,0.9900408983230591,1.2242009584341877,1.2086671803629934,-0.2065759152173996,0.8693572878837585,0.9954325178668024,1.2447424335286632,-0.21736307442188263,0.9927685856819153,0.00048550963401794434,1.1072435291813492,1.2213038539823244,178.05337811284056,178.39372311695072,1.0,0.005423874535381566,0.006335114852174598,0.03274139918888222,-0.161125625463015,99.27969524500904,0.8854900527348799,75,2.5
1.1158178863116177,0.7427168125395804,-0.3427579998970032,0.9999678134918213,1.1927585814560562,0.8798391703044796,-0.11774303019046783,0.9999871850013733,1.0207201579599983,0.8791592675966508,-0.14230310916900635,0.9999935030937195,1.1625673444204696,1.2195537405056636,0.0019624149426817894,0.9999874830245972,1.0565424687251828,1.2275709743181622,-0.0021820315159857273,0.9999911189079285,1.1671301632069635,1.4897605358816246,-0.056476492434740067,0.9847713708877563,1.0886409766779157,1.5038736535578756,-0.00818437896668911,0.9698444604873657,1.1889375726981575,1.784935719116179,0.03770403191447258,0.9835729598999023,1.1117095709997817,1.7427168125395804,0.13610705733299255,0.9882213473320007,1.2247435814267529,1.205042233389791,-0.2077159583568573,0.8637373447418213,0.9976222603905442,1.2500365280138037,-0.21998092532157898,0.9923651218414307,0.0003007948398590088,1.1095549065728263,1.223562357411913,176.74211722981772,178.89034761562698,1.0,0.0185948007745055,0.01831268749955678,0.09948008043038116,0.09046811554607603,99.4029475101829,0.8875680652691972,76,2.533333333333333
1.1163578465411719,0.7423268902169206,-0.3321332037448883,0.9999678730964661,1.1934832903066335,0.8794073967308689,-0.1123131662607193,0.9999867677688599,1.0210404940403586,0.8791088926860448,-0.13567820191383362,0.9999929070472717,1.1632722832393885,1.2207357936119325,0.0023353653959929943,0.9999862909317017,1.0577411352987094,1.2287001671003013,-0.0025475346483290195,0.999989926815033,1.1662294399614208,1.4932767217359033,-0.057077474892139435,0.9845836758613586,1.088457080277517,1.5070772803533554,-0.005695567466318607,0.9653050303459167,1.1895441414876844,1.7866869351272312,0.03324481099843979,0.9845101237297058,1.1115085702046894,1.7423268902169207,0.14526477456092834,0.9858903884887695,1.2250387779115088,1.2027959160443904,-0.19855952262878418,0.8622010350227356,0.9980552784769289,1.2501311680115739,-0.22897031903266907,0.9919034838676453,0.00013208389282226562,1.110506709269049,1.224717980356117,176.07841300799947,179.299889223914,1.0,0.008689439402964839,0.010386166646733795,-0.07507998258769473,-0.060076346178361495,99.37397086683622,0.891281964754927,77,2.566666666666667
1.1175410701252793,0.7424324776727451,-0.387061208486557,0.9999682903289795,1.1943487803999084,0.8780175600319151,-0.1669357717037201,0.9999860525131226,1.0242037311278829,0.8807920437273018,-0.1627286970615387,0.9999924898147583,1.1651297063886412,1.2208985193974395,-0.003969485871493816,0.9999852776527405,1.060343622658362,1.2293428813635245,0.003766002133488655,0.9999891519546509,1.166459119829418,1.4963240734909127,-0.06511247158050537,0.9847503304481506,1.0885321587576693,1.5093192650100418,0.013707214966416359,0.960637629032135,1.190941316460147,1.7963424290423218,0.028540706261992455,0.9854851961135864,1.1121501288761788,1.7424324776727451,0.1889660805463791,0.983387291431427,1.2255727521438105,1.2040949382798793,-0.23791003227233887,0.838841438293457,0.9995092836990241,1.2551625746136326,-0.26229649782180786,0.9910613298416138,0.0012275278568267822,1.1127366645235017,1.225120700380482,175.6114184687287,179.96406310698032,1.0,0.0162920129530648,0.002019427117348739,0.0589479022130779,-0.0648909739787444,99.47809128469314,0.8846537770046565,78,2.6
1.118868837847685,0.741670312205101,-0.3831973075866699,0.9999698996543884,1.1977016173531985,0.8733210351259776,-0.14744450151920319,0.9999859929084778,1.0270609266264046,0.8804088775756933,-0.15781523287296295,0.9999921917915344,1.168163430368959,1.2205488918382381,-0.0029079511296004057,0.9999845027923584,1.0632814074442511,1.2291927400939717,0.00272144703194499,0.9999883770942688,1.1664452185831629,1.5012603115095478,-0.06339081376791,0.9847749471664429,1.0894715121792182,1.5108606969793665,0.005983397830277681,0.9575717449188232,1.1905093409165022,1.802988077894153,0.04381638020277023,0.986223578453064,1.112049857364451,1.7416703122051012,0.17926639318466187,0.9808257818222046,1.2270347070296732,1.2035710632881407,-0.18915382027626038,0.838771641254425,0.9999109853444305,1.2570066552931702,-0.2569848299026489,0.9907891154289246,0.003137141466140747,1.115722418906605,1.224870815966105,175.08936192722732,179.72517978966596,1.0,0.025876620043206906,0.001753829548888078,0.07249476606933979,-0.002001544659649491,99.57374707833772,0.8807843567170021,79,2.6333333333333333
1.1225027258150146,0.7400295953314467,-0.3421003222465515,0.9999669194221497,1.198034158886372,0.870398321317514,-0.11447038501501083,0.9999840259552002,1.0264900270403001,0.879194621847293,-0.136127308011055,0.9999918341636658,1.1698096689916555,1.219444514670452,-0.0018771558534353971,0.9999843835830688,1.0638642858794982,1.2284203397707572,0.0016592058818787336,0.9999884366989136,1.165532949953122,1.504081191903294,-0.05221032351255417,0.9842213988304138,1.0896575962157564,1.5123030138073894,0.0009641539072617888,0.9539191722869873,1.1896352329677577,1.8047254094370486,0.055745918303728104,0.9867280721664429,1.11082240004045,1.7400295953314466,0.173450767993927,0.978366494178772,1.2274038407231116,1.202492285150104,-0.18809819221496582,0.7978157997131348,0.9997469846595918,1.2568832544321724,-0.23039987683296204,0.9902997612953186,0.0038988590240478516,1.1168369774355769,1.2239324272206047,174.55565446462353,179.88179507198947,1.0,0.02114332109571213,0.006279198534147058,-0.03678301765009008,0.03546195373543527,99.46558497902593,0.8807436977083138,80,2.6666666666666665
1.1230956637612584,0.7359513654725317,-0.37913161516189575,0.9999658465385437,1.2006784839988955,0.8685590233104745,-0.14273253083229065,0.9999818205833435,1.026392437104191,0.8773424119931709,-0.14501911401748657,0.9999917149543762,1.1698006181638727,1.2188504755326068,-0.0026336514856666327,0.9999839067459106,1.0634435545529786,1.227305491915996,0.002422779332846403,0.9999884366989136,1.1649224040958641,1.502061854632522,-0.05190081521868706,0.9839202761650085,1.0898840330479143,1.509624616247585,0.008595103397965431,0.9515650868415833,1.1874477776327739,1.798182680072183,0.06814705580472946,0.9873068332672119,1.1085059764899121,1.7359513654725316,0.2052086889743805,0.9768092036247253,1.2271985394343663,1.2004193557152985,-0.22474288940429688,0.7534279227256775,0.9995647423159775,1.255653535688681,-0.23196689784526825,0.990363359451294,0.0039013028144836426,1.1166220863584257,1.2230779837243015,174.6631898293724,179.3532400983431,1.0,0.014727624352699729,0.011846238876177197,-0.04419879474530043,0.038709866977427815,99.58280519157312,0.894062851726727,81,2.7
1.1189308680332715,0.7249798901304693,-0.3703262209892273,0.999963104724884,1.1989826105443027,0.8628600199799135,-0.14443743228912354,0.999980628490448,1.0229008595094857,0.8709347573853371,-0.13115809857845306,0.9999916553497314,1.166692857814059,1.2121333655890976,-0.0067919655703008175,0.9999833703041077,1.0603324742903566,1.2194695526245463,0.006580338813364506,0.9999882578849792,1.1609325381354436,1.4954494714119961,-0.052235908806324005,0.9832884073257446,1.0872553077059954,1.5001554807808295,0.01647825352847576,0.9471904039382935,1.179723786693431,1.7936356178278408,0.06033000349998474,0.9878308773040771,1.1009315518021576,1.7249798901304692,0.2132815420627594,0.9740448594093323,1.2247630967399685,1.1924950699996735,-0.237112358212471,0.7169926166534424,0.9930458838246006,1.246761261360327,-0.19585400819778442,0.9903073310852051,0.0036109089851379395,1.1135126660522077,1.2158014591068218,175.229308889045,178.0021222445123,1.0,0.03416991725721446,0.007542373821180902,0.1508805169383579,-0.03261276824990006,99.22760422786347,0.9020192597073532,82,2.7333333333333334
1.116649542510148,0.7111335728532139,-0.34439826011657715,0.9999578595161438,1.1952775036214762,0.8566138176231354,-0.12562131881713867,0.9999790787696838,1.0175433130019946,0.861881058658555,-0.13381868600845337,0.9999913573265076,1.1633718625201135,1.2049477400644995,-0.005994740873575211,0.9999827146530151,1.0562681855267568,1.2116942012651037,0.005805704742670059,0.9999878406524658,1.155732444531063,1.4841461800296942,-0.05754285305738449,0.9825023412704468,1.0788925801033111,1.4906566010894495,0.010518867522478104,0.9397198557853699,1.1715762420570475,1.7797699177557558,0.05842817574739456,0.9880993366241455,1.0928448810746019,1.711133572853214,0.2250274419784546,0.9688690900802612,1.2283977458960407,1.204198206769708,-0.18529292941093445,0.6865130662918091,0.985527590399967,1.2367783616816352,-0.21405501663684845,0.9904084801673889,0.0023728609085083008,1.1098200240234353,1.2083209706648017,175.36486404614314,178.98433183540232,1.0,0.03425971628249674,0.011059542844192572,0.0026030874330108386,0.027294059084683242,98.83770284400401,0.924915904832099,83,2.7666666666666666
1.1241696633727705,0.7090381926075384,-0.42364078760147095,0.9999599456787109,1.1997526700482715,0.8565869921854795,-0.17798388004302979,0.9999796748161316,1.0203643063298398,0.860254277838477,-0.19872716069221497,0.9999915957450867,1.1673785869358297,1.2046847171494404,-0.0011692744446918368,0.9999827742576599,1.0593095134058363,1.210032288094415,0.0009863636223599315,0.9999879002571106,1.1643990124264252,1.48533555369379,-0.04301052540540695,0.9831606149673462,1.0819043004005882,1.4896941223285791,0.009849203750491142,0.9413037896156311,1.1722913196526639,1.778359237759145,0.09385862201452255,0.9887750148773193,1.0926985277279815,1.7090381926075384,0.21613526344299316,0.9690273404121399,1.2392568036572449,1.215835334554902,-0.20677050948143005,0.698153018951416,0.9857107289949787,1.2345746529396957,-0.2782975435256958,0.9908955693244934,0.0016523301601409912,1.1133440501708332,1.2073585026219276,177.84890009194066,178.19825336266072,1.0,0.0288474018480951,-0.006162390360865535,-0.04233034418041064,-0.13480598556886833,98.14623754777645,0.928735852404698,84,2.8
1.1433245931479836,0.7103738803560388,-0.45228123664855957,0.9999634623527527,1.2228276412441508,0.8659841590494359,-0.20556524395942688,0.9999812841415405,1.0360752019780053,0.8698499588138495,-0.2299991399049759,0.9999918937683105,1.1875121558669062,1.2183144203427212,0.003211677074432373,0.9999832510948181,1.075301432058101,1.2222519179851183,-0.0033967304043471813,0.9999876022338867,1.18552441245863,1.5058156877632323,-0.042768582701683044,0.9841445088386536,1.0934670124216574,1.505735830238687,0.0121693704277277,0.9426931142807007,1.1853634935272601,1.8031371567029357,0.09564898163080215,0.9895941615104675,1.099342091710682,1.7103738803560389,0.27530375123023987,0.9675591588020325,1.2722411231740116,1.2511941843389898,-0.22418153285980225,0.7259882688522339,0.9970662057670242,1.2479414281842753,-0.32660678029060364,0.9914823174476624,0.001722574234008789,1.1314067939625037,1.2202831691639198,179.63488145538605,177.97800127387075,1.0,0.04427998092053738,-0.004162345442212279,0.11833647503630572,0.01620042041666501,97.73356577800736,0.9505434446474363,85,2.8333333333333335
1.1415017331266846,0.704709713807276,-0.41562706232070923,0.9999666213989258,1.2293263127260443,0.8631624962101843,-0.18253421783447266,0.9999828934669495,1.0401786615032083,0.8681393310656127,-0.19783441722393036,0.9999921321868896,1.1923256848425943,1.2168695273156025,0.003942943178117275,0.9999837279319763,1.0771913152454617,1.2190299060392928,-0.004148299805819988,0.9999871850013733,1.186419651963629,1.502938251357285,-0.10225244611501694,0.984954833984375,1.0901558591387106,1.5030194927145344,0.0010571402963250875,0.9429232478141785,1.1839989802071735,1.7987676968863582,0.039244793355464935,0.9900044202804565,1.093246237609858,1.704709713807276,0.24280989170074463,0.9647523164749146,1.2840545263127794,1.2514828886059397,-0.2099590301513672,0.7513632774353027,0.9957866735579292,1.245784101360352,-0.2858169674873352,0.991569459438324,0.0022200345993041992,1.134758500044028,1.2179497166774476,179.28608921580556,178.2640180772628,1.0,0.0351052186525675,-0.007830526598797941,-0.07011026245551837,-0.028211805894263527,97.04685444461937,0.9615572934079538,86,2.8666666666666667
1.1521019219453712,0.7081858331695877,-0.40450429916381836,0.9999691247940063,1.2418274527877144,0.866714576021736,-0.17308512330055237,0.9999843239784241,1.0485515882341772,0.8726016759565115,-0.18787238001823425,0.9999919533729553,1.207910349888682,1.2265023400927633,0.005110559053719044,0.9999836087226868,1.0893680961674357,1.22869152646828,-0.005327021237462759,0.9999856352806091,1.1982015675678805,1.5100937585899135,-0.15596209466457367,0.9858158230781555,1.0929559106887379,1.511753257483738,-0.02642124332487583,0.9439561367034912,1.1934894634210593,1.8106761185287858,0.0029409953858703375,0.990227222442627,1.0967122743794624,1.7081858331695876,0.23951347172260284,0.9593015909194946,1.3071544981079801,1.2640336543466628,-0.20313899219036102,0.7745991945266724,1.003004457967285,1.2555115174367921,-0.27645057439804077,0.991466224193573,0.0026054680347442627,1.1486392230280589,1.2275969332805217,178.93736714073071,179.6306576859661,1.0,0.03704387638222021,9.105689117723482e-05,0.01254724377686236,0.06030995604381964,96.44333676743592,0.9766372560755818,87,2.9
1.1548190350874827,0.7081711259649529,-0.4193337857723236,0.9999711513519287,1.2447213736238552,0.8676526735567162,-0.1867203712463379,0.9999855756759644,1.0506261577413292,0.8727973592038245,-0.20068641006946564,0.9999920129776001,1.211352673287082,1.2279501338733205,0.006038282997906208,0.9999839663505554,1.0928337328411613,1.229857794986424,-0.006263058632612228,0.99998539686203,1.201648542762617,1.5112721875143242,-0.10877462476491928,0.9862504601478577,1.091774947219129,1.5049449542026516,-0.04725579917430878,0.9437757730484009,1.1947064089324377,1.811496253434464,0.054693590849637985,0.9901056289672852,1.0956537682710794,1.708171125964953,0.19925014674663544,0.9573444128036499,1.3098262747625198,1.2667384792098644,-0.20836611092090607,0.7949962615966797,1.0034363515273423,1.2566844984671302,-0.2878947854042053,0.9915675520896912,0.002274543046951294,1.1520932030641218,1.2289039644298723,179.36293993597772,178.68604725825256,1.0,0.016940665046406924,0.00027770342701584875,-0.15059388492772804,0.0013948116125609247,96.21345857555124,0.9807204084912086,88,2.933333333333333
1.1560496288317128,0.7083552247188849,-0.43364614248275757,0.9999735355377197,1.249394744406412,0.8662107451529417,-0.19525757431983948,0.9999867081642151,1.0543655412249366,0.8733275583515009,-0.20487292110919952,0.9999920129776001,1.2148351986335588,1.2305270428300499,0.005030214786529541,0.9999842643737793,1.0962726248777925,1.2319729715185,-0.005255576688796282,0.9999850988388062,1.2037585232918153,1.5142430457980727,-0.1001540869474411,0.9869139194488525,1.0886470965051052,1.5097698094222234,-0.043844036757946014,0.9454666972160339,1.1966828313490359,1.813643600523138,0.08752267062664032,0.9904977679252625,1.0987106629441914,1.708355224718885,0.2634888291358948,0.9561118483543396,1.323452708091279,1.2641234464149862,-0.2228207290172577,0.81432044506073,1.0054597413790367,1.2586997620976674,-0.2936909794807434,0.9919269680976868,0.0031411349773406982,1.1555539117556757,1.231250007174275,179.11803818949988,175.52657041470079,1.0,0.011439885337858294,0.0020175704838483774,-0.04185951262698924,0.013167740605324973,96.11765641080001,0.9869483032073312,89,2.966666666666667
1.1565363835593379,0.7042432379355404,-0.4230734705924988,0.9999756813049316,1.2520244110877679,0.8585273309659229,-0.18839436769485474,0.999987781047821,1.0548569006130017,0.8685289387332735,-0.1969466358423233,0.9999919533729553,1.2158387204329966,1.229724192366666,0.0032603307627141476,0.9999843835830688,1.0973740519298063,1.2307556182836599,-0.0034873143304139376,0.9999843239784241,1.2038894481905065,1.5131586046305858,-0.1009703129529953,0.9875596761703491,1.0831821330648685,1.5128054892846083,-0.030796125531196594,0.9472888708114624,1.1951875422848208,1.8123581738784205,0.0802789255976677,0.9908914566040039,1.0981572315541068,1.7042432379355403,0.26732614636421204,0.9544554352760315,1.3329943803675421,1.26150025735068,-0.22040756046772003,0.8322169780731201,1.0054219660944526,1.2568630894382633,-0.2892383635044098,0.9923384189605713,0.004419803619384766,1.1566063861814015,1.230239905325163,179.25182279969772,172.64665613173625,1.0,0.018214543914425018,0.0036730278100615727,0.05011331175786549,0.01223867042053283,96.06665868618394,0.9959106372538898,90,3.0
1.151293554580064,0.6964564012572385,-0.4564642310142517,0.9999778866767883,1.2472968874721058,0.8464952925984929,-0.21187405288219452,0.9999887943267822,1.0502483640352942,0.8589557456910016,-0.21563167870044708,0.9999921321868896,1.2097027290467952,1.2228593901295801,0.000959533266723156,0.9999850988388062,1.0922060786381713,1.223617231405962,-0.0011867100838571787,0.999984622001648,1.197180374405782,1.5091492903051176,-0.09777846932411194,0.9884589910507202,1.0753982992432183,1.5049383754324221,-0.02604486607015133,0.9502943754196167,1.1884030969820882,1.804423164082562,0.09030363708734512,0.9915240406990051,1.0941768683503619,1.6964564012572385,0.26898011565208435,0.9560374617576599,1.3348353345037622,1.2522032726134806,-0.23930120468139648,0.8483917713165283,1.0003923337581269,1.2496070291186763,-0.30120840668678284,0.9928092956542969,0.005537122488021851,1.1509544038424833,1.2232383107677711,179.1981385266226,170.98085909952025,1.0,0.005763224680584633,-0.0013029329938540981,-0.09274717633614359,-0.0372151581329537,96.07377136513401,0.9990322672143255,91,3.033333333333333
1.150044961401074,0.6937083292024718,-0.45202523469924927,0.9999796152114868,1.2461052475005805,0.8369619869478389,-0.20931926369667053,0.9999896883964539,1.049859726988937,0.8552716163324122,-0.20607316493988037,0.9999920129776001,1.2095723435403156,1.2209478825968216,-0.0011449626181274652,0.9999854564666748,1.0916360413911317,1.221359172477263,0.0009177589090541005,0.9999845027923584,1.194651303632947,1.5121360303792202,-0.07544481009244919,0.9890276193618774,1.0741678023886008,1.5011326872431656,-0.02608593739569187,0.9527304768562317,1.1861588102422693,1.8005865298949304,0.11813042312860489,0.9919052720069885,1.092052418841709,1.693708329202472,0.25750213861465454,0.9580201506614685,1.339113259285535,1.249161672201296,-0.2454541027545929,0.8631348609924316,1.0001495477853037,1.2444725391373048,-0.29414647817611694,0.993069052696228,0.008151412010192871,1.1506041924657238,1.2211535275370424,178.75302188655314,171.12138277768653,1.0,0.013299713019294087,0.0013094670136980721,0.056520586853227375,0.019546272163863728,95.63464582016337,1.0025159160346566,92,3.066666666666667
1.1308149102454368,0.6803202160763127,-0.45405691862106323,0.9999812245368958,1.230069961660099,0.8231701623351266,-0.20768313109874725,0.9999905228614807,1.0382525823887743,0.8390403079308715,-0.2042650729417801,0.9999920725822449,1.1906589244940617,1.2024366797653536,-0.0015432790387421846,0.9999861121177673,1.0749420542132075,1.2014494381770906,0.0013229299802333117,0.9999849796295166,1.176356433197289,1.4977328081215109,-0.03696120157837868,0.9895987510681152,1.0564387156218733,1.4766455332520378,-0.02120094932615757,0.9560546875,1.166751373294404,1.7710564894210663,0.16892629861831665,0.9923519492149353,1.072087798650129,1.6803202160763127,0.2500433027744293,0.9608938097953796,1.3223405685831964,1.2201709418819464,-0.24504511058330536,0.8765947222709656,0.9864802163818623,1.223878497638509,-0.2915703058242798,0.9934220910072327,0.00718235969543457,1.1328004893536348,1.2019430589712221,179.23972326729375,171.7597821885752,1.0,0.007007483034273947,0.005087244611967212,-0.04530503790751781,0.028329619494342147,95.4437231968086,0.9956256843557673,93,3.1
1.112968929699929,0.6691851290954566,-0.4266403317451477,0.9999822378158569,1.2114530807739634,0.8074279320221303,-0.18439695239067078,0.999991238117218,1.0233064851779772,0.8256410040311131,-0.1697227954864502,0.9999918341636658,1.1723619159002712,1.184081835874443,-0.0016779135912656784,0.9999865293502808,1.0582671529761387,1.182564690353724,0.001455170102417469,0.9999850392341614,1.1583511723161461,1.473614426431862,-0.04917077347636223,0.9898432493209839,1.0444531028160742,1.4481821093262763,-0.08052673935890198,0.9589267373085022,1.147883244235664,1.7436053891664323,0.13131484389305115,0.9925922751426697,1.0557702356301646,1.6691851290954567,0.1480385661125183,0.9635189175605774,1.301695945937185,1.1834361316873496,-0.22122874855995178,0.8886547088623047,0.9761084912693793,1.2022248269370153,-0.27007821202278137,0.9933890700340271,0.008372575044631958,1.115314534438205,1.1833232631140835,179.44989219956236,174.0914378814297,1.0,0.0006711614748680269,0.00019349254412830583,-0.04853034406860088,-0.03752087084297763,95.16341916865011,0.982599926722744,94,3.1333333333333333
1.0728411006410987,0.6436761321224671,-0.4425138533115387,0.9999838471412659,1.16736124383723,0.775711752338196,-0.19047053158283234,0.9999919533729553,0.9856080352980701,0.7952567984079655,-0.1765400469303131,0.9999920725822449,1.1296525793741414,1.141223082700533,-0.0026261392049491405,0.9999871253967285,1.019331552701591,1.1397628055565256,0.0024157084990292788,0.9999856352806091,1.1159878791748747,1.426193555699245,-0.024800004437565804,0.9900653958320618,1.0096993592262407,1.4077608994237554,0.004088063258677721,0.9613053798675537,1.1050250540746775,1.6810147913978606,0.18395712971687317,0.9927677512168884,1.0178000486217558,1.643676132122467,0.2201218605041504,0.9661707282066345,1.2544570411293694,1.1303564764434717,-0.24156725406646729,0.8994952440261841,0.9429876488119691,1.152340607706967,-0.26171210408210754,0.9935137629508972,0.009322822093963623,1.074492066037866,1.1404929441285294,179.71813539770184,175.97499355391236,1.0,-0.002990906294143721,0.00047928455593268375,-0.027601611571891515,0.0022216852566414305,95.13183072789259,0.951727873031393,95,3.1666666666666665
1.054084716941173,0.6306868793724957,-0.42443376779556274,0.9999852180480957,1.1476143546517226,0.7606169268063583,-0.18172554671764374,0.9999926686286926,0.9690770712969746,0.7791405764466537,-0.1576046347618103,0.999992311000824,1.1090986203719335,1.120687891345629,-0.004234280437231064,0.999987781047821,1.0008809505355019,1.119452044471095,0.0040341708809137344,0.9999861717224121,1.0960322000154772,1.4022142757681406,-0.028673555701971054,0.9903179407119751,0.9918756783948155,1.3902603508005789,0.0016643464332446456,0.9639901518821716,1.0850606683723538,1.6531152479067222,0.17171326279640198,0.99297034740448,1.000149371898531,1.6306868793724956,0.2013179063796997,0.9689024090766907,1.2302576407500285,1.106792131697165,-0.23189938068389893,0.909389853477478,0.930700705785289,1.1321124481962115,-0.20884773135185242,0.9934459924697876,0.00899556279182434,1.0549897854537178,1.120069967908362,179.8465162587473,176.1245106082048,1.0,-0.003036028543006892,-0.0011085622099850998,-0.000749546162157811,-0.012042544471248442,95.4512556127168,0.9375528408653787,96,3.2
1.0281426977999037,0.6139996757744057,-0.374484658241272,0.9999863505363464,1.1199733438448332,0.7392687043249887,-0.1352664977312088,0.9999932646751404,0.9460631155566229,0.7577927094960817,-0.12084779888391495,0.9999923706054688,1.0819101686852772,1.0912112183731189,-0.0023538589011877775,0.9999884963035583,0.975702768550261,1.0915362817595815,0.0021811374463140965,0.9999868869781494,1.069215821083963,1.365987681940796,-0.01583036221563816,0.9901880025863647,0.9684292957512504,1.3657639914145445,0.00018046805053018034,0.9665441513061523,1.0580466144007987,1.6139996757744057,0.19790419936180115,0.9926683902740479,0.9753751319447964,1.6250314845313334,0.14950202405452728,0.9714990258216858,1.1957161050057667,1.0731859987922627,-0.15965130925178528,0.9182444214820862,0.908756227414393,1.1040107687419958,-0.14670172333717346,0.9912416338920593,0.009225219488143921,1.0288064686177691,1.09137375006635,179.93345356297522,176.94607269026267,1.0,0.0004459004068661153,-0.006162538261956202,0.025180560434191823,-0.037563447640022396,96.34800451205624,0.9036352548908665,97,3.2333333333333334
1.0254097348996758,0.611699655300586,-0.3775171935558319,0.9999873042106628,1.1176814637466408,0.7348872618777345,-0.13714829087257385,0.9999938011169434,0.944604650851889,0.7534096928835411,-0.12665805220603943,0.9999923706054688,1.0794787707511362,1.0860144282451556,-0.0009724173578433692,0.9999890923500061,0.9729887580579665,1.087815392563192,0.0008067729650065303,0.9999874234199524,1.0666717277010704,1.3612113967810389,-0.015435965731739998,0.9899801015853882,0.9668258147131432,1.3634433845715321,-0.0025610763113945723,0.9687210321426392,1.0552787901835985,1.611699655300586,0.1903240829706192,0.9924219846725464,0.9731229232152752,1.6237510047466295,0.14522115886211395,0.9737949371337891,1.1901563119573861,1.067163507459177,-0.15004155039787292,0.9262139201164246,0.905995642735852,1.1000262123385631,-0.15343451499938965,0.9895310401916504,0.009249210357666016,1.0262337644045514,1.0869149104041738,179.93969136316773,177.333326858408,1.0,0.001343574278393024,-0.01127077894831944,0.0065978207237138405,-0.03761637554117758,97.17826262015055,0.8950316439570913,98,3.2666666666666666
1.0253092684633955,0.6115553724321225,-0.39094340801239014,0.9999880790710449,1.1181226909229887,0.7346428064578542,-0.14901140332221985,0.9999943375587463,0.9444507373231351,0.753769510592944,-0.14102081954479218,0.9999924302101135,1.0806249453185977,1.0851107002239297,0.00039913953514769673,0.9999897480010986,0.9734795944224433,1.0877690668156905,-0.0005839751102030277,0.9999880790710449,1.067496873089135,1.3604251906493579,-0.009911876171827316,0.9895727038383484,0.9682125146379056,1.368208480299238,-0.024069765582680702,0.9708467125892639,1.0551942886177819,1.6115553724321225,0.19595342874526978,0.9918482899665833,0.9731254558772855,1.6406507125680512,0.08793790638446808,0.9760239124298096,1.1891547427888285,1.0646125596601703,-0.17584286630153656,0.9334097504615784,0.9061436174434778,1.1013831694313623,-0.1951000690460205,0.9877108335494995,0.00955134630203247,1.0270522698705205,1.0864398835198101,179.9254056223121,177.8909235900348,1.0,0.006552107923072091,-0.003278098797214929,0.039658867099389955,0.06085378620308833,97.5283014606479,0.8797163289275105,99,3.3
1.0248276121203375,0.6114694040775478,-0.3963797092437744,0.9999890327453613,1.116861850233454,0.7341170695834808,-0.1396319419145584,0.9999948143959045,0.943514747539691,0.7534698997029528,-0.1365676075220108,0.9999924898147583,1.0816230628636114,1.0848644887975836,0.0015446367906406522,0.9999901652336121,0.9736505614254927,1.0890426527112231,-0.0017379410564899445,0.9999885559082031,1.0682182743826378,1.3617449354210833,-0.008886346593499184,0.9896544814109802,0.9680089009789944,1.3763907556021029,-0.03893847391009331,0.9731909036636353,1.0542572641775854,1.6114694040775477,0.20203912258148193,0.9915651082992554,0.9725758713926627,1.652199792505321,0.07261497527360916,0.9781575798988342,1.1855568434924115,1.0649149400045745,-0.17377761006355286,0.939979612827301,0.9062106157474684,1.10200740217437,-0.17890223860740662,0.987695038318634,0.009670346975326538,1.027636812144552,1.0869535707544034,179.57190540875183,177.9265828741668,1.0,0.009582181975656228,0.009321107351604317,0.023633010700211735,0.09811783277985472,97.95316761120385,0.8723535040311842,100,3.3333333333333335
1.0237622187246678,0.6110451223265232,-0.3989271819591522,0.9999897480010986,1.1154036294129441,0.7339198738258689,-0.1423613429069519,0.9999951720237732,0.9424688027966136,0.7529702252049749,-0.14373712241649628,0.9999924898147583,1.0821375361188048,1.0838926292464082,0.004042633809149265,0.9999904632568359,0.9728325812399397,1.0883868974575996,-0.0042474833317101,0.9999889135360718,1.0683247577705146,1.3606639514441712,-0.0011879231315106153,0.9891930818557739,0.9677765592941255,1.3751122479652962,-0.046274811029434204,0.9750515222549438,1.0529860446382102,1.6110451223265232,0.1914748251438141,0.9912102222442627,0.9717791440286406,1.6525393467438034,0.05483763664960861,0.979988694190979,1.180563606783111,1.0657450282738854,-0.18158331513404846,0.9457780718803406,0.9051043739988102,1.1009884613471066,-0.19450081884860992,0.9872701168060303,0.009528547525405884,1.0274850586793722,1.0861397633520038,179.3514387709269,178.16319088748375,1.0,0.006534146103590023,0.0019250445752015985,-0.023192369384051382,-0.05638058661373076,97.78433553039655,0.8703811228487054,101,3.3666666666666667
1.0229743762066383,0.6097816957662969,-0.3862994611263275,0.9999902844429016,1.1143616449653602,0.7328330122378662,-0.12705078721046448,0.9999954700469971,0.9416980572984983,0.7524317928391553,-0.1348673701286316,0.9999921917915344,1.081947544279054,1.0833514376838926,0.006029169540852308,0.9999907612800598,0.9720759767106111,1.089033812338032,-0.0062397136352956295,0.9999892115592957,1.0678198994090728,1.3601028855010617,-0.006620486732572317,0.9886140823364258,0.967398713526382,1.3739073610155947,-0.055925171822309494,0.9766457080841064,1.0520624759952386,1.609781695766297,0.1865447461605072,0.9904834628105164,0.971837350554267,1.6595876423324945,0.030229562893509865,0.9816271662712097,1.1714255656371666,1.0658101527689654,-0.17516131699085236,0.9509647488594055,0.9042572085133572,1.0997357905953073,-0.18559090793132782,0.9855157136917114,0.009810447692871094,1.0270117604948326,1.0861926250109624,179.31111418902952,178.1692229056216,1.0,0.002494045918452595,0.0069280849580276825,-0.031304664346151256,0.038826104014698916,98.2439907433974,0.8682838292743966,102,3.4
1.0250980460038028,0.6096510514297959,-0.39122945070266724,0.9999904036521912,1.1171340633051434,0.7350745495822841,-0.1365056037902832,0.9999956488609314,0.9434281496859036,0.7544768099302748,-0.1414366513490677,0.9999918937683105,1.0844124089039888,1.0864374047034029,0.005648727994412184,0.9999904036521912,0.974469748767654,1.0921739576801783,-0.005859666038304567,0.9999890327453613,1.0704221148689401,1.3621980688943849,-0.025240201503038406,0.9871513843536377,0.9711082056021939,1.376412792104868,-0.07360944896936417,0.9775155782699585,1.0545622541761883,1.609651051429796,0.12469277530908585,0.9890835881233215,0.9762848794125925,1.6687636668265327,-0.018454741686582565,0.9828986525535583,1.1683360277766919,1.074206134019434,-0.199507936835289,0.9553382992744446,0.9064081393776806,1.102836492303303,-0.2250303030014038,0.9849817752838135,0.009687483310699463,1.0294410788358215,1.0893056811917905,179.2371140743191,178.30799088440952,1.0,-0.0013416095755230137,0.002680968883391678,-0.028968673111583975,-0.032155970536404545,98.30733718010455,0.8720045733047515,103,3.433333333333333
1.0231411625304103,0.6085846488856752,-0.4666423201560974,0.9999904632568359,1.1174121620834923,0.7370490329163989,-0.19183766841888428,0.9999958276748657,0.9410748186279764,0.7542833532411414,-0.21319100260734558,0.9999920725822449,1.084539171311739,1.0887278418035309,0.009306793101131916,0.9999907612800598,0.9743280331095558,1.0940796338197287,-0.009483389556407928,0.9999896883964539,1.0706731864364984,1.366003474437449,0.052358292043209076,0.9869038462638855,0.9714091832265696,1.3788954943072427,-0.06828206032514572,0.9793722629547119,1.0542108372713574,1.6085846488856752,0.2924274504184723,0.9889319539070129,0.9776250766134654,1.6802096484751794,0.011839957907795906,0.9844630360603333,1.1608527209311421,1.0851877250077397,-0.27790266275405884,0.9590548872947693,0.9065332141949787,1.1079591128153243,-0.3025946319103241,0.9849706292152405,0.008602172136306763,1.0294336022106474,1.09140373781163,178.9805336322849,178.23103902604964,1.0,-0.0027463859733398133,0.01359740631829883,-0.011005082840487058,0.08554009299110306,98.12024319577627,0.8729112822491738,104,3.466666666666667
1.0179179881704334,0.6051173345184113,-0.45228585600852966,0.9999902844429016,1.1149653158517647,0.7378481538990126,-0.18630704283714294,0.9999959468841553,0.9360411244940865,0.7528161988623776,-0.20408765971660614,0.9999923706054688,1.0810758277103505,1.089618185369602,0.012359188869595528,0.9999909400939941,0.9711035347477281,1.093533566702169,-0.012522878125309944,0.9999902248382568,1.0675395533481133,1.3685304115393035,0.06862876564264297,0.9864382743835449,0.9702485124256213,1.3762175681136797,-0.06432567536830902,0.9810655117034912,1.0515814009971864,1.6051173345184113,0.3172270655632019,0.9885584115982056,0.976523443128234,1.6778248003309257,0.02372381091117859,0.9858433604240417,1.1530200956762173,1.093540240512196,-0.2839342951774597,0.9624384641647339,0.9033484530882996,1.1073106941012696,-0.2851538062095642,0.9859145283699036,0.007486164569854736,1.0260896812290394,1.0915758760358856,178.91967700177653,178.63483513905445,1.0,-0.009599478683562094,0.018158364702805622,-0.05228038182481734,0.03497598020137168,97.54194661615765,0.8845483416803657,105,3.5
1.0140740735452678,0.602840633675976,-0.46373677253723145,0.9999903440475464,1.113047097365109,0.737922851023133,-0.1857459396123886,0.9999960660934448,0.9306773826087722,0.7516190395963008,-0.21724775433540344,0.9999926686286926,1.07871013200512,1.0907191641222491,0.017648976296186447,0.9999909996986389,0.9681573015205587,1.093382563083351,-0.017804667353630066,0.9999906420707703,1.0653146094661137,1.3710498467876326,0.07167474180459976,0.985969066619873,0.9733108030127046,1.3751449491080796,-0.0613291971385479,0.9825251698493958,1.049803359416439,1.602840633675976,0.31645840406417847,0.9883219599723816,0.9758209539120732,1.6747514537744117,0.04101527854800224,0.9870541095733643,1.1473716886580014,1.1031467728551994,-0.255271852016449,0.9654328227043152,0.9018252224892959,1.1079725400414102,-0.3057149052619934,0.9867656826972961,0.006861209869384766,1.0234337167628393,1.0920508636028001,178.90730295551438,179.43218522436746,1.0,-0.007329484651759853,0.016695525905047727,0.016729858146244288,-0.01063666993686172,96.93905809055795,0.894759904699709,106,3.533333333333333
1.0073169387086693,0.5967027025330589,-0.4572201669216156,0.9999897480010986,1.1069379193294555,0.7350991652004465,-0.18709585070610046,0.9999962449073792,0.9221716122200723,0.7483713275484326,-0.21610768139362335,0.9999925494194031,1.072367078968993,1.089469405437516,0.018751198425889015,0.999991238117218,0.9616587437580411,1.091251549146302,-0.018900634720921516,0.9999909996986389,1.0589532736202287,1.3706660543014972,0.08702255040407181,0.9840508699417114,0.9704080413905481,1.369492051737356,-0.07932865619659424,0.9835284352302551,1.0449798836739093,1.596702702533059,0.33003541827201843,0.9873001575469971,0.9727698436840397,1.674065006676229,0.010724484920501709,0.9880439043045044,1.1412750961108753,1.1088120836165059,-0.24661628901958466,0.9678896069526672,0.8934347817771069,1.1087850814391,-0.30906087160110474,0.9848139882087708,0.006679713726043701,1.017012911363517,1.090360477291909,179.19361233717683,178.6432121173286,1.0,-0.013177748358730788,0.026349932671075875,-0.04605904756039484,0.07620160646207623,96.49414652768856,0.9058256470260703,107,3.566666666666667
0.9989215720231107,0.591027682208275,-0.46632084250450134,0.9999894499778748,1.100624109877986,0.732500474839916,-0.1860744059085846,0.9999963641166687,0.9160210427101024,0.7457421212419275,-0.22735421359539032,0.9999927282333374,1.0653032186977238,1.0882190903996662,0.023049209266901016,0.9999914169311523,0.9551877389282644,1.0888145653213037,-0.023199640214443207,0.9999913573265076,1.0556928954330815,1.372113942462324,0.08589737117290497,0.9825066328048706,0.9674618270895892,1.3683899230207643,-0.08718449622392654,0.984463095664978,1.0444663168123658,1.591027682208275,0.3559431731700897,0.9849995374679565,0.9696855353111259,1.672932390053539,0.014614967629313469,0.9888531565666199,1.136170870856111,1.111492176249012,-0.2477465122938156,0.9697485566139221,0.8886504379885621,1.1154391152559648,-0.32865995168685913,0.9850061535835266,0.006688147783279419,1.010245478812994,1.0885168278604849,179.00308488987636,177.90453482658648,1.0,-0.02297631266445267,0.014847060585870478,-0.07182425305273442,-0.08323166674996778,95.98040381542769,0.9156235857867554,108,3.6
