nose_x,nose_y,nose_z,nose_visibility,left_shoulder_x,left_shoulder_y,left_shoulder_z,left_shoulder_visibility,right_shoulder_x,right_shoulder_y,right_shoulder_z,right_shoulder_visibility,left_hip_x,left_hip_y,left_hip_z,left_hip_visibility,right_hip_x,right_hip_y,right_hip_z,right_hip_visibility,left_knee_x,left_knee_y,left_knee_z,left_knee_visibility,right_knee_x,right_knee_y,right_knee_z,right_knee_visibility,left_ankle_x,left_ankle_y,left_ankle_z,left_ankle_visibility,right_ankle_x,right_ankle_y,right_ankle_z,right_ankle_visibility,left_wrist_x,left_wrist_y,left_wrist_z,left_wrist_visibility,right_wrist_x,right_wrist_y,right_wrist_z,right_wrist_visibility,trunk_lateral_inclination,center_mass_x,center_mass_y,left_knee_angle,right_knee_angle,person_height,center_mass_velocity_x,center_mass_velocity_y,center_mass_acceleration_x,center_mass_acceleration_y,body_orientation,torso_leg_ratio,frame,timestamp
1.0904563066218036,1.0510607778382006,-0.20407024025917053,0.9999966025352478,0.9871215038343457,1.2084384565082695,0.08401168882846832,0.9999586939811707,0.9977752250034592,1.202849811420054,-0.2742563486099243,0.9999971985816956,1.078633243199663,1.6269451407368793,0.12122175842523575,0.9999844431877136,1.060910839887778,1.6594248678116967,-0.12138273566961288,0.999994158744812,1.2803551860110827,1.7328726898554394,0.23969824612140656,0.3630920946598053,1.3146942194678002,1.7216739477939775,-0.1342739313840866,0.9773401618003845,1.2854071049358284,2.0510607778382006,0.3576955199241638,0.5636012554168701,1.2975434373857018,2.0840025785165808,-0.04062353074550629,0.9660958051681519,1.1304838794446965,1.6025214545665163,0.004942695610225201,0.029239391908049583,1.1688048833071083,1.5822774536755482,-0.36179953813552856,0.9858576655387878,0.002329230308532715,1.0697720415437206,1.6431850042742882,118.61432867063928,101.07160078673765,1.0,0.04605470504506972,0.020982812710520313,0.2608009544897352,0.10769242517914554,139.04682179232924,1.2375048838562226,0,0.0
1.1006811437358408,1.0478682811027529,-0.2154237926006317,0.9999967813491821,0.9903453622634983,1.1952019129617801,0.08762745559215546,0.9999565482139587,1.0068856406857987,1.1960857174006232,-0.2768508195877075,0.999997079372406,1.0617231125670183,1.634029332004523,0.12609350681304932,0.9999836683273315,1.0547704034891545,1.658049519875932,-0.1262729912996292,0.9999938607215881,1.2698389730716124,1.7323966875634653,0.23210537433624268,0.3515682816505432,1.3114305088692955,1.7243126631402963,-0.13247281312942505,0.9773088693618774,1.2718042196578314,2.047868281102753,0.327951580286026,0.5670615434646606,1.2919111809002919,2.081882515584126,-0.03690312057733536,0.9670179486274719,1.1274459271791377,1.5812791854529513,0.0169370174407959,0.027020825073122978,1.170959115108197,1.5740572039158809,-0.37632864713668823,0.9823430180549622,0.00036916136741638184,1.0582467580280865,1.6460394259402276,115.65499591491483,101.3516027139273,1.0,-0.07091727252252646,0.04992294142521262,-0.9030938212722596,0.22398422175027818,154.61819515097744,1.2630247946580488,1,0.03333333333333333
1.0979323684485562,1.0418674553914211,-0.2198360413312912,0.9999969601631165,0.998350586864959,1.1850208135830647,0.09462510794401169,0.9999487996101379,1.0042886162500195,1.1914594574393507,-0.27175888419151306,0.9999969005584717,1.048961459435414,1.636078146728922,0.12670108675956726,0.9999819993972778,1.0432117821598084,1.6586840944352432,-0.12688389420509338,0.9999933838844299,1.2649920925507274,1.7217996003183869,0.20079044997692108,0.34460484981536865,1.3025104686045594,1.7175742891342005,-0.13275562226772308,0.976098895072937,1.2674292310111268,2.041867455391421,0.28414109349250793,0.5631273984909058,1.287145739416313,2.075621631234421,-0.020341120660305023,0.9659013748168945,1.117868419674646,1.5827049423351953,0.029758045449852943,0.024973660707473755,1.175731878676232,1.5700305718706817,-0.36355966329574585,0.9819296002388,0.0027007460594177246,1.0460866207976112,1.6473811205820825,112.0795591821281,100.3383817222765,1.0,-0.05845710229165083,0.06261281791167675,0.09218768339791135,0.09777881251257114,159.32767522052978,1.2878741955106108,2,0.06666666666666667
1.08684771000029,1.0294818509438388,-0.20988473296165466,0.9999968409538269,0.9984346081818225,1.1735752597418505,0.10422718524932861,0.9999426007270813,0.9931453746254759,1.1802480608935868,-0.26349586248397827,0.9999964833259583,1.0355033792697015,1.6251420875701499,0.12722036242485046,0.9999796748161316,1.030276020855372,1.646661121602745,-0.12739324569702148,0.9999923706054688,1.253901935150346,1.711494162900425,0.20437292754650116,0.3374612331390381,1.2898109168868315,1.7053528262790978,-0.12846846878528595,0.9755180478096008,1.2517986026776802,2.0294818509438386,0.2888430953025818,0.5692735910415649,1.27314630099279,2.0601468615998786,-0.008029754273593426,0.9658478498458862,1.1077888907441265,1.5633635242729353,0.02862120047211647,0.023547261953353882,1.1595432586786398,1.5562918783491064,-0.34492337703704834,0.9814919233322144,0.0028250813484191895,1.0328897000625368,1.6359016045864474,111.19424871424313,100.05344299345589,1.0,-0.027658193509236092,0.029405790973301617,0.23731180059988324,-0.2558969211078754,161.65345012165054,1.2982349198705077,3,0.1
1.0836955032935616,1.0264804774332048,-0.21265597641468048,0.9999969601631165,0.9983925164857098,1.1711858667819712,0.10689572244882584,0.999935507774353,0.9885096205048539,1.1767871012102427,-0.2640945613384247,0.9999958872795105,1.0319106925209156,1.624397298989617,0.1281208097934723,0.9999745488166809,1.0272351810091587,1.6446748852833013,-0.12828940153121948,0.9999902248382568,1.2510514073887797,1.7027883243214705,0.20336458086967468,0.3400278091430664,1.2847732480820173,1.6988178112571304,-0.1290053427219391,0.9751147627830505,1.2450097068920865,2.026480477433205,0.28135770559310913,0.5793034434318542,1.266191392967272,2.0552302607630732,0.00020919993403367698,0.9655378460884094,1.122306419059305,1.556357717700565,0.039046041667461395,0.022784685716032982,1.160268430159696,1.5550300010467564,-0.35021457076072693,0.9816296696662903,0.002377748489379883,1.0295729367650372,1.6345360921364591,108.61384871527497,98.8880883956876,1.0,-0.004275238422823189,0.02274778668542817,0.17698877369312738,-0.04995949167901911,162.78620488109766,1.3129346006668892,4,0.13333333333333333
1.085816486108887,1.0276313649060238,-0.2105826437473297,0.999996542930603,0.996853496036624,1.1728220764100146,0.10488786548376083,0.9999294281005859,0.9901978166036485,1.1779968413343442,-0.2664121985435486,0.999994695186615,1.0313690114737482,1.6268279621066974,0.12799444794654846,0.9999697804450989,1.0272218041005852,1.6487213984062137,-0.12815871834754944,0.9999876022338867,1.2547546944483772,1.7029165706502232,0.19826480746269226,0.3351702094078064,1.284742053318265,1.6998161124004691,-0.13040906190872192,0.9728093147277832,1.2460526872629965,2.027631364906024,0.28062334656715393,0.5747269988059998,1.2659629944307884,2.0576388292325465,0.011920612305402756,0.9616894721984863,1.133754994905446,1.5504471917527698,0.029697392135858536,0.02258210815489292,1.1630945503386505,1.5569615003001056,-0.33698898553848267,0.9800357818603516,0.0021937787532806396,1.0292954077871668,1.6377746802564557,107.2745367093032,98.21812523310548,1.0,-0.013574289735990109,0.008656286298753334,-0.07629957166808711,-0.11594270796805692,164.92621117761627,1.3205429591544553,5,0.16666666666666666
1.0848518444067627,1.0276956845380913,-0.20545503497123718,0.9999962449073792,0.9973429703566473,1.1730908215480815,0.10524950176477432,0.9999272227287292,0.9901594281065362,1.1779705735548982,-0.2659063935279846,0.9999940991401672,1.029973881799375,1.6262324971951427,0.1277913749217987,0.999967098236084,1.0250240303335898,1.6502027154013292,-0.12795308232307434,0.9999860525131226,1.2555800259150036,1.701458849191877,0.19500386714935303,0.3294479548931122,1.2836386526869925,1.7006483110143547,-0.13511906564235687,0.9713343381881714,1.2448827219176961,2.027695684538091,0.281667560338974,0.5675466060638428,1.2655861787772447,2.0617710526358346,0.013187259435653687,0.9584067463874817,1.132978111180273,1.5460449034494208,0.029327845200896263,0.023102132603526115,1.1615099971882874,1.556811955353746,-0.3188961446285248,0.9794782400131226,0.0020683705806732178,1.0274989560664824,1.638217606298236,106.56244833883281,98.17574383357626,1.0,-0.014575164330026131,0.0012816596011848897,-0.0074029035580642985,-0.0546787706898467,164.21363511946507,1.3160079635860407,6,0.2
1.0836565921628247,1.0243262187526885,-0.18330258131027222,0.9999954104423523,0.9958705137955591,1.1701283670306635,0.1169181615114212,0.9999216794967651,0.9866994869764057,1.1745107576214704,-0.2604406476020813,0.9999933242797852,1.025010820479464,1.6215292518945217,0.12801608443260193,0.999965250492096,1.0193322160292861,1.646052914160381,-0.12817548215389252,0.9999849200248718,1.252270477700417,1.6959305391476989,0.18139557540416718,0.32381606101989746,1.2793585217314423,1.696557225980341,-0.13989153504371643,0.9691369533538818,1.2401972556052818,2.0243262187526883,0.24712173640727997,0.561983585357666,1.2611890909373917,2.060580802250295,0.012096855789422989,0.9551505446434021,1.1282289043420535,1.543319604605342,0.027545666322112083,0.022339001297950745,1.1582945171492942,1.5529601206873473,-0.31589189171791077,0.9778927564620972,0.0018627345561981201,1.022171518254375,1.6337910830274514,106.02215582213168,98.13415369693483,1.0,-0.017968350256198824,0.0009363350004365522,-0.024975400611921494,-0.0024858253111781554,163.26896456444803,1.3082724499825662,7,0.23333333333333334
1.0838942284456787,1.0231860149856251,-0.18494221568107605,0.9999953508377075,0.9937316845512907,1.1685591433759837,0.11755730956792831,0.9999181032180786,0.9865115506312933,1.173459162862031,-0.25823473930358887,0.9999927282333374,1.022934979780599,1.6204658692283092,0.12794934213161469,0.9999625086784363,1.0180303374364235,1.6454031069248873,-0.12810876965522766,0.9999834299087524,1.2505465829303626,1.6931021773521697,0.18854890763759613,0.3278285264968872,1.277400205451022,1.6949157386045497,-0.1368185430765152,0.9687792658805847,1.236143017782174,2.023186014985625,0.2561919391155243,0.5688196420669556,1.2589775554634408,2.0589457838203047,0.004693970549851656,0.9548381567001343,1.125351039533702,1.5440966732091783,0.032314565032720566,0.022180145606398582,1.1580230193119199,1.5509703028994706,-0.3264472782611847,0.9779199361801147,0.002084881067276001,1.0204826586085114,1.6329344880765981,105.2005489650441,97.91037455102476,1.0,-0.004938178793405003,0.006208164645792602,0.09956663983633338,0.040347408646001726,165.17567018725364,1.312566302726052,8,0.26666666666666666
1.0826990993256007,1.0211827644774514,-0.18740776181221008,0.9999954104423523,0.9936541058770467,1.1656938719420729,0.11665154993534088,0.99991774559021,0.9850813283330592,1.1708644140449638,-0.25938713550567627,0.9999923706054688,1.021064047700932,1.6171730738884686,0.12812164425849915,0.9999606013298035,1.0158134521768902,1.642336136414945,-0.12827754020690918,0.9999822974205017,1.2485710464324524,1.6894427855402407,0.1903296560049057,0.33017638325691223,1.2750724343630115,1.6918825621205809,-0.14215290546417236,0.9688647389411926,1.233999785638612,2.0211827644774516,0.26670029759407043,0.5739026665687561,1.2559310670827393,2.056789127892437,0.0018305514240637422,0.9546242356300354,1.123096922180174,1.5403848535011906,0.029087837785482407,0.02359522320330143,1.1577034218607645,1.548035024105868,-0.321979820728302,0.9783287048339844,0.002204000949859619,1.0184387499389111,1.629754605151707,105.10790540421819,97.81648952077039,1.0,-0.001395886503798854,-0.0015459191208041997,0.02679195659921933,-0.05871122832510952,164.73937591106915,1.3083049953393782,9,0.3
1.0815937753340465,1.0193963880768346,-0.19233030080795288,0.9999956488609314,0.9939106862497683,1.1628110992994125,0.11444493383169174,0.9999179840087891,0.9844820939238488,1.168884640337497,-0.2574378252029419,0.9999920725822449,1.0198073160818015,1.613850367490235,0.1279883086681366,0.9999592900276184,1.0137221199865107,1.6392202864436192,-0.12814588844776154,0.9999814033508301,1.2464342504025532,1.6863739958505204,0.18305721879005432,0.33509594202041626,1.272706843067935,1.6885167118166369,-0.14451375603675842,0.968745231628418,1.2327636359981866,2.0193963880768346,0.24873635172843933,0.579602062702179,1.2540062688853801,2.0531490150011056,-0.001841273857280612,0.954017162322998,1.1199944669884114,1.5378439009574176,-0.003027563448995352,0.02454604022204876,1.1558321627096235,1.5449486004998134,-0.30870088934898376,0.978171169757843,0.0025935471057891846,1.0167647180341561,1.626535326966927,105.39468204901775,97.84113389410348,1.0,0.0010884867418934634,-0.0023093393312750526,0.018605366359053473,-0.0057436669224269175,163.2258650669518,1.3040264165782958,10,0.3333333333333333
1.0861613101799614,1.0214428713918668,-0.19476334750652313,0.999995768070221,0.9991299931504445,1.16522171397224,0.11131691932678223,0.9999164938926697,0.9880213204829685,1.171384845291941,-0.2592328190803528,0.9999911189079285,1.0223412723556442,1.6171161398998988,0.12788638472557068,0.9999576807022095,1.0141002653520892,1.6424552992019297,-0.12804289162158966,0.9999799728393555,1.2497291719031427,1.689338177956684,0.18185745179653168,0.33602800965309143,1.2749009038420034,1.691841615672656,-0.14433632791042328,0.9677802324295044,1.2356703088062737,2.021442871391867,0.2426336705684662,0.585178792476654,1.2555874511442897,2.057208825002598,-0.009752820245921612,0.9533007740974426,1.1270357565821543,1.5416547949895998,-0.009812637232244015,0.02482093684375286,1.162837867229961,1.5500169315641703,-0.32113784551620483,0.9751023054122925,0.0026263296604156494,1.0182207688538667,1.6297857195509142,105.19664806740332,97.69694521482202,1.0,-0.0050140642593994355,-0.0010592646822513672,-0.04613997396741692,0.009484394877774234,159.04363939991168,1.306719607455527,11,0.36666666666666664
1.0903749933758071,1.0227481611695375,-0.19678886234760284,0.9999960064888,1.0031383098587803,1.1664796724956998,0.1098448857665062,0.9999168515205383,0.991137057335024,1.1725772202387175,-0.25130245089530945,0.9999906420707703,1.0220440540858968,1.6184774275855827,0.12585274875164032,0.9999552369117737,1.0125071763548827,1.6439983341686057,-0.1260068416595459,0.9999781250953674,1.252591380785633,1.6897759353167947,0.18200315535068512,0.34177613258361816,1.2756267011575064,1.6933111717180527,-0.1412133127450943,0.9677239060401917,1.2371955312651757,2.0227481611695373,0.24850347638130188,0.5925754308700562,1.2555443182485613,2.058819473258177,0.00013004327774979174,0.9533568024635315,1.133327275594919,1.5427886462767766,-0.008267374709248543,0.02746712416410446,1.1616076967066788,1.5529361048373305,-0.31207266449928284,0.9749912619590759,0.002595841884613037,1.01727561522039,1.6312378808770942,104.53728379704002,97.4701310904104,1.0,-0.014975562415948862,-0.0011009616645437075,-0.0767959955259735,-0.00031361688475807205,157.11472692837464,1.3059962661668778,12,0.4
1.0957779382802915,1.0254190809556238,-0.20014512538909912,0.9999961256980896,1.0090881333455568,1.1690724858702415,0.10883041471242905,0.9999153017997742,0.9949841522667411,1.1749538266908135,-0.25205203890800476,0.9999897480010986,1.0241715897036694,1.6215305837368243,0.12536847591400146,0.9999534487724304,1.0123708204746809,1.6472525416801311,-0.12552006542682648,0.9999767541885376,1.2552414798662206,1.6927808870171337,0.18377120792865753,0.33800897002220154,1.2773606185424267,1.696290135672477,-0.14021846652030945,0.9671683311462402,1.2397730091993098,2.025419080955624,0.2626308798789978,0.5885870456695557,1.2584862898361624,2.063230726681015,-6.565000512637198e-05,0.9530174732208252,1.1344980045400685,1.546390576780053,-0.001707931631244719,0.028326407074928284,1.1687304691514036,1.556729918950595,-0.3185199201107025,0.972640872001648,0.0024988651275634766,1.0182712050891751,1.6343915627084777,104.47465192877287,97.53971677970594,1.0,-0.00818076908596857,-0.000539397594614543,0.05512521094973068,0.00455371080796879,153.4458539892866,1.3048300198621412,13,0.43333333333333335
1.1027016336473723,1.0300704195227166,-0.189642995595932,0.9999960064888,1.0216461513262691,1.1729927537292346,0.11775348335504532,0.9999123215675354,1.0010816075081137,1.1793537850704532,-0.24514421820640564,0.9999887943267822,1.0274650069400744,1.6271929059268124,0.12537488341331482,0.9999529123306274,1.0123279897199091,1.6528389576267084,-0.12552571296691895,0.9999760389328003,1.2591605605643919,1.6958202796517918,0.17772090435028076,0.3377646207809448,1.279747478101898,1.7013779678246215,-0.14261817932128906,0.9672523140907288,1.2461030328069083,2.0300704195227164,0.251154363155365,0.5878332853317261,1.262048036797592,2.0721755078975006,-0.01453388947993517,0.9535382390022278,1.144290508252103,1.554622269702663,0.0034950438421219587,0.02834128588438034,1.1733784541364083,1.5621242200155574,-0.3021504282951355,0.9693107604980469,0.002694427967071533,1.0198964983299919,1.6400159317767604,104.2619661247545,97.55484039988325,1.0,-0.0106598241960891,0.004438681718927096,-0.017535095846558352,0.035582565889516575,148.71571845178954,1.300999506852286,14,0.4666666666666667
1.1075900668808185,1.0336706682295427,-0.1658405065536499,0.9999958872795105,1.0252159285634794,1.1751014721702058,0.11863374710083008,0.9999133944511414,1.0097018875948638,1.182146184062119,-0.24343404173851013,0.9999886751174927,1.0294498178191396,1.63054946469197,0.1250532567501068,0.9999521970748901,1.015115827586433,1.6558046507517106,-0.12519724667072296,0.9999757409095764,1.2614472427529217,1.6986704536171977,0.1888352334499359,0.33796197175979614,1.282405953099767,1.7042169669489236,-0.13798916339874268,0.9686833024024963,1.249805034023281,2.0336706682295427,0.2730734944343567,0.5917330384254456,1.2645332907444709,2.0771190607971755,-0.012876142747700214,0.9560102820396423,1.1449441031751844,1.5631953008283614,0.032483991235494614,0.03063662350177765,1.174971224678122,1.5651683247966486,-0.302398145198822,0.970329225063324,0.0029788315296173096,1.0222828227027863,1.6431770577218403,104.37333701774874,97.52226550237974,1.0,0.004626611683490377,0.0022996430046949273,0.11635019254099357,-0.016319992123965166,149.8896083038344,1.2971961911463552,15,0.5
1.1158820228776978,1.0380492875440468,-0.14955395460128784,0.9999952912330627,1.0297111123867309,1.1774583032991974,0.12412174791097641,0.9999123215675354,1.0174862040671886,1.184862640118997,-0.23971863090991974,0.9999883770942688,1.0319252539583457,1.6334161332893598,0.12456493079662323,0.9999515414237976,1.017208297844864,1.6587411850737528,-0.12470642477273941,0.9999755024909973,1.263796480009851,1.701889091552378,0.19028303027153015,0.3361213505268097,1.284794074384114,1.7071461509246841,-0.13373830914497375,0.9696109294891357,1.2540506985394602,2.038049287544047,0.27445754408836365,0.5937355160713196,1.2672738381016915,2.080549028595604,-0.00545473163947463,0.9579413533210754,1.1501946861590768,1.5697268900606232,0.05598872900009155,0.03268834948539734,1.1763891127695578,1.5682430289914229,-0.30106160044670105,0.9711808562278748,0.003125309944152832,1.0245667759016048,1.6460786591815564,104.7915611356806,97.56726965351517,1.0,0.0034091311835977513,-0.0002706622761256127,-0.009159461231408006,-0.01923738529437655,149.55993986390928,1.291930024701412,16,0.5333333333333333
1.1294395906640617,1.0458260343525505,-0.160190612077713,0.9999955296516418,1.0392165687779282,1.1830313979915237,0.1235407143831253,0.999912440776825,1.0296279495531304,1.1894568636880565,-0.24308569729328156,0.9999879598617554,1.0352254157982608,1.6411259573433565,0.1252581775188446,0.9999507665634155,1.0204988338759653,1.6657584094358766,-0.12540331482887268,0.9999749064445496,1.2680523123844463,1.7083832995303254,0.20728135108947754,0.32830610871315,1.2903063746814467,1.713173958914018,-0.13423432409763336,0.9701622128486633,1.2599454025015053,2.0458260343525505,0.3085830509662628,0.5872281789779663,1.2721883404607297,2.0884789922250127,-0.000575202633626759,0.9588747620582581,1.157790598074026,1.5808508293284182,0.05264267325401306,0.03337157145142555,1.1817562986822674,1.5745053851505153,-0.30646005272865295,0.9694450497627258,0.0027017295360565186,1.027862124837113,1.6534421833896165,104.73632333905653,97.20345513498731,1.0,-0.004955924875561177,0.0077844914893446795,-0.06375892333262013,0.06130853280006714,149.62596394092873,1.290453949270669,17,0.5666666666666667
1.1508097348871067,1.0586645093066502,-0.16248416900634766,0.9999955892562866,1.0615228256445601,1.1925703057762158,0.13163234293460846,0.9999131560325623,1.0434030868788047,1.1974134390359754,-0.2421002835035324,0.9999881386756897,1.0466283429599668,1.6534783323795614,0.12651273608207703,0.9999510645866394,1.0285945186572576,1.6783985258420777,-0.12666115164756775,0.9999749660491943,1.277710895903594,1.7177756309874543,0.2102302610874176,0.31398358941078186,1.3011066254191543,1.7260465584972868,-0.1343534290790558,0.9698089361190796,1.2695220977640886,2.0586645093066505,0.29452502727508545,0.5707111358642578,1.282036614130294,2.1049007737943604,-0.019653312861919403,0.9589153528213501,1.1705622769518063,1.5925681918376404,0.07374697178602219,0.034218836575746536,1.19119067518841,1.5849268752224188,-0.30407172441482544,0.9695257544517517,0.0020210444927215576,1.0376114308086122,1.6659384291108197,104.17281019242253,97.03615251220604,1.0,0.014983214806684273,-0.0005299493852485779,0.15441462910985293,-0.06472537023485062,145.95902716968868,1.2890384118851321,18,0.6
1.1873221953625692,1.0829884026063,-0.16964823007583618,0.9999955892562866,1.085070019647074,1.2161430415746857,0.12791351974010468,0.9999151229858398,1.07220494145393,1.2189061953462834,-0.2501193881034851,0.9999881386756897,1.0659025079664692,1.6818312588050306,0.128104567527771,0.9999524354934692,1.0476717275894634,1.7089515349153797,-0.1282406598329544,0.9999756217002869,1.2996453231668468,1.738414657154816,0.24887144565582275,0.30631154775619507,1.324820740353627,1.7571462296165152,-0.1362927109003067,0.9713698625564575,1.2906415351633038,2.0829884026063,0.3476065695285797,0.5777146816253662,1.3052465168667253,2.1430847614595994,-0.018339043483138084,0.9614691138267517,1.1955650527682031,1.6209978165959502,0.07968051731586456,0.036808084696531296,1.21638892990663,1.6137104483855889,-0.3045119345188141,0.9696233868598938,0.0011326372623443604,1.0567871177779664,1.6953913968602052,102.11130781392782,96.96130869929108,1.0,0.0035929515356597193,-0.004654511851094859,-0.09106946237225884,-0.03213846363710234,148.44717081296074,1.2983546327058677,19,0.6333333333333333
1.219210969074069,1.1036332764196901,-0.17919495701789856,0.9999956488609314,1.1144229733171112,1.2378519019533616,0.12542513012886047,0.999911904335022,1.1012091549470804,1.2364577868845508,-0.25013551115989685,0.999987781047821,1.0852467107240364,1.7053597577250297,0.1280987560749054,0.999951958656311,1.0635411289758148,1.7335149377847665,-0.12823529541492462,0.9999754428863525,1.318068057271188,1.761711123398027,0.24553363025188446,0.29526424407958984,1.3438986059513072,1.7823919350631334,-0.13853520154953003,0.9722233414649963,1.3092326880047471,2.10363327641969,0.3461219370365143,0.5722221732139587,1.325873272631839,2.1727860448956235,-0.016290536150336266,0.9628689885139465,1.2150739807298974,1.644269005576239,0.06288458406925201,0.037001512944698334,1.2369192468636836,1.6390424200238674,-0.30669838190078735,0.9688370227813721,0.0005633533000946045,1.0743939198499255,1.719437347754898,102.12582337620756,97.24585419163692,1.0,0.01761439796850531,-0.0025305138149852953,0.10239788586757928,0.016059680523031333,145.94149629240422,1.306353802693267,20,0.6666666666666666
1.2421292581264165,1.1173599236024816,-0.1554882675409317,0.9999955296516418,1.1250005656520217,1.2504743502216131,0.12883980572223663,0.9999104738235474,1.1220982700395303,1.246282071264143,-0.24336965382099152,0.9999863505363464,1.0930934147793114,1.715340163838048,0.12875071167945862,0.9999507665634155,1.0748883217449472,1.7436763256787695,-0.1288922280073166,0.9999743700027466,1.325866232087655,1.7725267301181105,0.2522311508655548,0.27881547808647156,1.352059221874984,1.7935864927193352,-0.13279873132705688,0.9720704555511475,1.31835808243297,2.1173599236024816,0.331435889005661,0.554999589920044,1.3359547935355285,2.1857424681671445,-0.026636755093932152,0.9632071852684021,1.2209147479688272,1.6527087981107444,0.07674223929643631,0.035834845155477524,1.2442739880411149,1.6487254209359794,-0.273997962474823,0.9551360607147217,0.0016841888427734375,1.0839908682621293,1.7295082447584087,102.55548391722348,97.85624993242857,1.0,0.015041636137433376,-9.697499910520379e-05,-0.012231914227775576,0.011190902597985528,151.2070016947988,1.2980160890277577,21,0.7
1.2715466856059108,1.1507150762303824,-0.1285526305437088,0.9999940991401672,1.1512601896169044,1.273592009482879,0.13138388097286224,0.9999024868011475,1.153487117525226,1.267712889675664,-0.23046493530273438,0.9999846816062927,1.1125472718457183,1.7416492463131406,0.127461776137352,0.9999491572380066,1.095805880882368,1.7706289111056928,-0.1276148408651352,0.9999734163284302,1.3444320437488706,1.8001536139616516,0.23855872452259064,0.2766457200050354,1.3718324841028682,1.8217086792641564,-0.12953926622867584,0.9728109836578369,1.3385789857396018,2.1507150762303824,0.307833731174469,0.5578910112380981,1.3578383531293778,2.2192547425504876,-0.03286433964967728,0.9647588729858398,1.236719838007095,1.6779695780481927,0.0981309711933136,0.03477248176932335,1.2633500241824862,1.6747886828826788,-0.27555331587791443,0.9500664472579956,0.0023261308670043945,1.1041765763640432,1.7561390787094167,103.20363230137261,98.46814545005415,1.0,0.026127321569140608,0.0005221905187821512,0.08014059541809271,0.004582317841945295,154.71337303459507,1.2730198130659425,22,0.7333333333333333
1.2968519537241097,1.1682749596882431,-0.07991383969783783,0.9999904036521912,1.169919914102546,1.292334462453749,0.14064618945121765,0.9999018311500549,1.1798412820407005,1.284488596287646,-0.21614757180213928,0.9999822378158569,1.118589219127479,1.7524464759441318,0.1256473958492279,0.9999505877494812,1.1032258113368132,1.7803013604342426,-0.12581801414489746,0.999973475933075,1.346988080441027,1.816764163255138,0.23544439673423767,0.28851786255836487,1.377939029011971,1.8317763788816748,-0.11027423292398453,0.9740599989891052,1.3419487227637719,2.168274959688243,0.2790685296058655,0.5778663158416748,1.3708374963890737,2.222348557844295,-0.027716195210814476,0.9672359824180603,1.248643522159067,1.6881571081392457,0.15059909224510193,0.03725215047597885,1.2700857800869196,1.6858748891166397,-0.23735876381397247,0.938857913017273,0.0030879974365234375,1.1109075152321461,1.766373918189187,104.90599953175581,99.57120420008305,1.0,0.006489916316335501,0.0069451535469507684,-0.1419585567573974,0.04608800820805061,157.4866647884756,1.26732384752157,23,0.7666666666666667
1.3346413171155385,1.1914975187385932,-0.0667165070772171,0.9999881386756897,1.1953742553346163,1.3121525564453491,0.14538228511810303,0.9999010562896729,1.2134469446240612,1.3049240316958666,-0.20276761054992676,0.9999791383743286,1.1228636473203524,1.7709516794906623,0.12370920181274414,0.9999518990516663,1.114961566274741,1.7982064516622729,-0.12390391528606415,0.9999734163284302,1.3557664362046074,1.8360126875294136,0.2356978952884674,0.28830665349960327,1.392405082664075,1.8531443723001695,-0.09277220815420151,0.9751689434051514,1.3561400219621287,2.1914975187385934,0.2861441969871521,0.5889239311218262,1.3864624520295838,2.2464453873790458,-0.024371115490794182,0.9693636298179626,1.260827750335745,1.707623766543337,0.12089242786169052,0.037259940057992935,1.2833973959190232,1.7130911887480438,-0.19587519764900208,0.9055293202400208,0.0028151869773864746,1.1189126067975466,1.7845790655764677,105.66783100542924,100.33486981824613,1.0,-0.03052371847142091,-0.004171481882681749,-0.3003660031825331,-0.0906404779735061,172.81232707270905,1.2561822210816498,24,0.8
1.3782403101455096,1.226493836154495,-0.0501064732670784,0.999982476234436,1.2308273540354178,1.337984046426202,0.16353394091129303,0.9998965263366699,1.2508143003916792,1.3304627942823208,-0.2022932469844818,0.9999768733978271,1.1389284757654967,1.796214598550004,0.12370240688323975,0.9999525547027588,1.1344424402847026,1.8208626845627895,-0.12389621883630753,0.9999731183052063,1.373516843958351,1.864428075688159,0.2099214494228363,0.2738296091556549,1.4109767188287208,1.8798144237252497,-0.10614222288131714,0.9735965728759766,1.3800806115668571,2.226493836154495,0.24554602801799774,0.5756357908248901,1.4063848912417565,2.2785409134088894,-0.03431307524442673,0.9685348868370056,1.2797546119886285,1.7372763647627993,0.13291719555854797,0.036634642630815506,1.3023548484568828,1.743549068249414,-0.20856031775474548,0.8807082176208496,0.002887904644012451,1.1366854580250996,1.8085386415563967,107.25192726934246,101.37440155193416,1.0,0.01350118228213466,-0.011806123962627769,0.3379076229179907,-0.05757036213403964,178.97479982030364,1.2289615246002936,25,0.8333333333333334
1.3981683734479133,1.2394713770897645,-0.01083869207650423,0.9999582767486572,1.2463235359926097,1.339638663313419,0.18163934350013733,0.9998932480812073,1.278473854669169,1.3394009837939769,-0.19466175138950348,0.9999751448631287,1.1371003020802406,1.8009985808493658,0.12378529459238052,0.9999551177024841,1.1385659924501341,1.8188419777519829,-0.12397358566522598,0.9999743103981018,1.3776071493750406,1.8734796273863774,0.194837749004364,0.26698020100593567,1.4145612559813872,1.8842899207618198,-0.10900241136550903,0.9749427437782288,1.3848021302435514,2.2394713770897643,0.24045786261558533,0.5773374438285828,1.4096685133395102,2.2844052583675216,-0.03076021373271942,0.9702954292297363,1.2837301208982481,1.748018306148187,0.13700057566165924,0.03490758314728737,1.3115451620271557,1.7532776075774161,-0.16310501098632812,0.8604130744934082,9.101629257202148e-05,1.1378331472651875,1.8099202793006743,107.89734605863909,102.63978558900193,1.0,-0.013579097729630707,-0.024770655700871495,-0.19314680918719845,-0.09211830200715991,161.98506278921406,1.2031626527438495,26,0.8666666666666667
1.4026208965726648,1.233274340678609,-0.004324282053858042,0.9999332427978516,1.2536559982434086,1.3330262229252907,0.1933566778898239,0.9998845458030701,1.289027913806402,1.3331150705370598,-0.19573351740837097,0.9999703168869019,1.123994863188946,1.786522017818728,0.12410720437765121,0.999957799911499,1.1280128267569518,1.7954399426007408,-0.12430230528116226,0.9999753832817078,1.3657454357046006,1.8680042242720416,0.1499752253293991,0.2574478089809418,1.4017614193282582,1.8665248189864878,-0.10487203299999237,0.9739788174629211,1.3743618030543063,2.233274340678609,0.1720493584871292,0.5625121593475342,1.3968175741810074,2.2596074771126777,-0.04343046620488167,0.9698648452758789,1.2760137439234442,1.736904328629423,0.12095383554697037,0.032978981733322144,1.3051148073877097,1.7367403615958974,-0.15396670997142792,0.8188260793685913,3.4332275390625e-05,1.1260038449729488,1.7909809802097343,109.97772768926806,103.83604046856165,1.0,-0.011423701986990267,-0.019058453636960633,0.01469266540490554,0.03966841840725384,139.7900798148346,1.187497940380377,27,0.9
1.4416796938455905,1.2549823216107154,-0.02170407399535179,0.9999235272407532,1.289439956165756,1.3515572105883125,0.20508773624897003,0.9998626112937927,1.3233186684444995,1.3508782968938335,-0.19370242953300476,0.9999645948410034,1.1326484284604235,1.8038456512532959,0.1287141591310501,0.9999595880508423,1.135330597015739,1.8043005966310368,-0.12890852987766266,0.9999762177467346,1.3817234689047715,1.8876812909047838,0.15187707543373108,0.2416498214006424,1.414360698949358,1.884697746346069,-0.11802501976490021,0.9721689820289612,1.3912262358791325,2.2549823216107154,0.17248548567295074,0.52968430519104,1.403880913024443,2.28238121619157,-0.083673395216465,0.9679173231124878,1.2959786473154717,1.7592359285052015,0.05751115828752518,0.030130183324217796,1.3243089261342211,1.7619025220732614,-0.13846954703330994,0.7514672875404358,0.00025981664657592773,1.1339895127380812,1.8040731239421663,110.0846279563748,104.56380389155521,1.0,-0.02293569989285122,-0.03346375450396716,-0.08809717108404881,-0.10988048837024826,80.5072760394639,1.1783362649637545,28,0.9333333333333333
1.4705097062779096,1.2746435971783496,-0.0026176159735769033,0.9999145865440369,1.3198776507575254,1.365068807307014,0.2164938896894455,0.9998456239700317,1.3619324530485726,1.3660104992444309,-0.17620548605918884,0.9999599456787109,1.1417236152233858,1.8177775033205914,0.13161690533161163,0.9999606609344482,1.1456758772717552,1.809722446790006,-0.13177962601184845,0.999976634979248,1.3939507645806297,1.9048789007424014,0.16492468118667603,0.2264648973941803,1.4263947466380436,1.9010898202520177,-0.1535770148038864,0.9726552367210388,1.4041299311746227,2.2746435971783496,0.17066141963005066,0.5018314123153687,1.4090370056804782,2.308090238380208,-0.17206282913684845,0.9687893986701965,1.314571932426336,1.7767420161635379,0.06506741046905518,0.02764216437935829,1.3397069205793708,1.7769618437991872,-0.09036246687173843,0.6918370723724365,0.000357210636138916,1.1436997462475706,1.8137499750552988,110.62817169193036,105.5867786485671,1.0,-0.00272344813293765,-0.048903747937731695,0.15767007783121734,-0.11694896455919758,4.65407601304588,1.156353652961208,29,0.9666666666666667
1.4903816739567153,1.2800358374592054,0.004300786182284355,0.9999150037765503,1.338838380065958,1.3656810477103614,0.23325292766094208,0.9998229742050171,1.3816025545515274,1.374041762976638,-0.1630559265613556,0.9999529719352722,1.1366160876520734,1.809048041429244,0.13113567233085632,0.9999622106552124,1.1466766603569936,1.7906776990194233,-0.131301611661911,0.999977171421051,1.3907370153284222,1.9163038101715086,0.11462636291980743,0.22877037525177002,1.4235017517827224,1.8941719610208456,-0.14832991361618042,0.9727257490158081,1.405040647895866,2.2800358374592054,0.09952569007873535,0.5002766847610474,1.4020831404913205,2.297025947044675,-0.12692275643348694,0.9689206480979919,1.3174343470428884,1.774642230876349,0.1729920208454132,0.02531169354915619,1.34892121206231,1.7825682629374098,-0.0688294842839241,0.6301183104515076,0.0031790733337402344,1.1416463740045335,1.7998628702243338,115.13492375749603,107.45544839551356,1.0,0.005131640250767531,-0.07134893362078973,0.05868442930877511,-0.16870061032683462,4.1894402893185,1.1290186825128554,30,1.0
1.5137974370159037,1.291894729809918,-0.021622877568006516,0.9999227523803711,1.3546670124848212,1.3675767185786873,0.24838194251060486,0.9998034238815308,1.4064190137109038,1.38517037438745,-0.1595611274242401,0.9999498724937439,1.1350756280725747,1.7958156003285273,0.1337364763021469,0.9999634027481079,1.1545351300158369,1.7781845332830326,-0.13392777740955353,0.9999777674674988,1.391727872550291,1.9308583756764086,0.12744441628456116,0.2280610054731369,1.427438627101926,1.8992487100589857,-0.1415593922138214,0.9727702736854553,1.4084387489242305,2.291894729809918,0.13754014670848846,0.48857685923576355,1.401659769952332,2.302950221834487,-0.11828843504190445,0.9691925644874573,1.3197514824988505,1.779393482113735,0.26903292536735535,0.02318451926112175,1.357457607802915,1.7879499664006224,-0.04019579663872719,0.5732690691947937,0.006671309471130371,1.1448053790442059,1.78700006680578,120.40210293677427,110.26907640603866,1.0,-4.20884615489956e-05,-0.1385472857091466,-0.040263808491451974,-0.5199929449256033,20.674453026757455,1.0777423194231577,31,1.0333333333333334
1.5359937310444636,1.3052033259522435,0.008738343603909016,0.9999241828918457,1.3667566409937786,1.367776652563143,0.2589219808578491,0.9997784495353699,1.4267849749982275,1.3888656002947504,-0.16572630405426025,0.9999468326568604,1.1319185322220804,1.7907884031562284,0.1394171416759491,0.999965250492096,1.1575080586973299,1.7701771186113238,-0.13960501551628113,0.9999788403511047,1.384976776676879,1.9426915919239196,0.14173486828804016,0.2252197265625,1.4292285330333996,1.9014298339927629,-0.14262796938419342,0.9739758968353271,1.4101073687691217,2.306401654618983,0.16206440329551697,0.47935304045677185,1.4018747217729977,2.3052033259522435,-0.12651710212230682,0.9705749154090881,1.3227570152550827,1.7809985899099436,0.2724074423313141,0.021131007000803947,1.3645231918067937,1.8017557702617917,-0.054289720952510834,0.523705780506134,0.007986783981323242,1.1447132954597052,1.780482760883776,124.92769311909122,111.9069416486231,1.0,-0.011813787441906459,-0.06827104213446693,-0.09203368894716582,0.5507799153231424,22.11285203903506,1.049276768945957,32,1.0666666666666667
1.5551646186584012,1.3068128844519467,0.0623587965965271,0.999922513961792,1.3858041811486104,1.3691136416386283,0.3037016987800598,0.9997649788856506,1.4442646225726705,1.385957916641497,-0.13342534005641937,0.9999487996101379,1.1330782311250893,1.7812636915750981,0.14158786833286285,0.9999668002128601,1.163808948051501,1.7506668631414666,-0.14177247881889343,0.9999798536300659,1.3859393297683815,1.951444314240073,0.09996465593576431,0.22017131745815277,1.4304337837526,1.9018375250538841,-0.16913452744483948,0.97507244348526,1.4121471358928035,2.319215369327863,0.08393929153680801,0.47009021043777466,1.4006962044108697,2.3068128844519467,-0.1882179081439972,0.971854567527771,1.3223873452377004,1.7816943399742289,0.47263941168785095,0.019462306052446365,1.3666477306333642,1.8011434549831054,-0.0792490616440773,0.5022813081741333,0.006373941898345947,1.1484435895882952,1.7659652773582823,128.01742513788722,115.35259746053,1.0,0.02114902626466412,-0.1218145295438675,0.2510479509892989,-0.40723819316889676,13.608911194104115,1.0141482223833689,33,1.1
1.5511787205141263,1.2996120169770737,-0.008725280873477459,0.9999284148216248,1.3882853606144356,1.3644285538986607,0.2745586335659027,0.9996899366378784,1.4435683289848575,1.3794793338333302,-0.15226180851459503,0.9999449253082275,1.1288796241434584,1.7626880748861642,0.14207492768764496,0.9999639391899109,1.162675654781705,1.7352393299958162,-0.14227798581123352,0.9999787211418152,1.371533450316795,1.952290626047848,0.12828490138053894,0.21013373136520386,1.4250543654351162,1.8955147328582342,-0.15790484845638275,0.9731338024139404,1.4075705953791402,2.3109193366031233,0.13671144843101501,0.44947054982185364,1.3941394535923426,2.2996120169770737,-0.15704134106636047,0.9712973833084106,1.3168358441388373,1.776831449211861,0.3845527768135071,0.01782837137579918,1.3608091376168772,1.794347878960979,-0.10320482403039932,0.46654751896858215,0.005713343620300293,1.1457776394625816,1.74896370244099,133.74117972669012,117.04407537559402,1.0,0.007232222283192194,-0.08549272159719219,-0.10371095947240325,0.2691002677351696,17.838747158929188,0.9888946299631021,34,1.1333333333333333
1.5563307170198302,1.2937173551371117,-0.00981653667986393,0.9999338388442993,1.3961786276468073,1.3604185496037473,0.29674404859542847,0.9996389746665955,1.4515504856313661,1.3737244903952002,-0.13622310757637024,0.9999443292617798,1.1264699438215884,1.7471241668027888,0.14363300800323486,0.9999604821205139,1.163562009793596,1.7163229051964444,-0.14386378228664398,0.9999774098396301,1.3702027487657773,1.949012504398849,0.1297377347946167,0.19956307113170624,1.4220470704644324,1.8911619429514503,-0.1658603549003601,0.9719887375831604,1.4037173191162742,2.3072956447831725,0.13801424205303192,0.42799410223960876,1.3893378007524597,2.2937173551371117,-0.18094401061534882,0.9707032442092896,1.3120638640053637,1.771915899801306,0.45773595571517944,0.01644456386566162,1.3660894823382785,1.784082016001709,-0.1509384959936142,0.4420638680458069,0.005064070224761963,1.1450159768075923,1.7317235359996166,134.9795926207625,119.42907071566876,1.0,0.0166286291237541,-0.09632014720223941,0.07126974274648398,-0.08363178883200346,15.39981940504505,0.9661437703965253,35,1.1666666666666667
1.5589745072827839,1.2807561249092068,0.001203394727781415,0.9999367594718933,1.4027422981267132,1.3333222939239635,0.28410473465919495,0.9995840191841125,1.4585345401740044,1.343280463114107,-0.13889580965042114,0.9999426603317261,1.1189700821899575,1.7008405577327292,0.1422516405582428,0.9999595284461975,1.1619115965652511,1.6809727305598139,-0.14246866106987,0.9999772906303406,1.3627790142693694,1.9315586161151899,0.13561338186264038,0.18921896815299988,1.415440417625521,1.8775598893788987,-0.1516122967004776,0.970557451248169,1.393638517027939,2.2878227462676497,0.1566692441701889,0.40778979659080505,1.3804199904423593,2.2807561249092068,-0.17068104445934296,0.9697619080543518,1.3025938647160809,1.7575106660518804,0.40165987610816956,0.015300589613616467,1.3623293526933478,1.7610726636469995,-0.1575406938791275,0.4265020191669464,0.003817439079284668,1.1404408393776042,1.6909066441462715,138.37035858576533,122.82604550035637,1.0,0.02637065885778787,-0.20371037173773895,0.07086848538553257,-0.7767102367635743,27.498510571017754,0.9119422698803514,36,1.2
1.5209062255835788,1.220773361665934,0.007444932125508785,0.9999402165412903,1.3745210721447063,1.2828013140068197,0.2815878391265869,0.9995585680007935,1.4267812832637388,1.292987825107475,-0.1275794506072998,0.9999416470527649,1.0904920474200333,1.643262688708413,0.14041927456855774,0.9999582171440125,1.1336728584838502,1.6239034906039311,-0.14062190055847168,0.9999767541885376,1.3269637942987225,1.8758856869448888,0.12387196719646454,0.19079436361789703,1.3802160398623529,1.8250053358167484,-0.15093210339546204,0.9718263149261475,1.357834586730117,2.228704492443719,0.1393832117319107,0.40765178203582764,1.3440635265205414,2.220773361665934,-0.1491101235151291,0.9709802865982056,1.2646180005376295,1.7249237986354684,0.26880237460136414,0.014405766502022743,1.3345555209796143,1.711927935567393,-0.07257220149040222,0.4146781861782074,0.0040125250816345215,1.1120824529519417,1.633583089656172,139.53042701748961,123.98429255565283,1.0,0.01735820297836332,-0.09425724091784046,-0.06523599441297706,0.8168061432009759,27.615251674748276,0.9112220902841774,37,1.2333333333333334
1.4726966789409186,1.149785797020585,0.013604233041405678,0.9999445080757141,1.3314214518477836,1.219944758563372,0.29937365651130676,0.9995483756065369,1.3796209929144312,1.229678615195631,-0.12067337334156036,0.9999415874481201,1.0560793332466687,1.5736425899499147,0.14044612646102905,0.9999570250511169,1.099329931013933,1.5555199808363922,-0.14064763486385345,0.9999763369560242,1.2848968276341561,1.7984958320613587,0.13061532378196716,0.18510358035564423,1.3370567502786173,1.7617196708884055,-0.15598368644714355,0.9731476306915283,1.3101307127489115,2.1497857970205847,0.15387505292892456,0.39997467398643494,1.300473831889003,2.150577902548964,-0.14612261950969696,0.972231388092041,1.2257908274676432,1.6640580108116636,0.2688082456588745,0.014000426977872849,1.289736076806338,1.6468006853326829,-0.07079306989908218,0.41772589087486267,0.003972113132476807,1.0777046321303008,1.5645812853931533,138.6079699396362,125.56330158779846,1.0,0.03250591146362308,-0.09450726749482725,0.12109405149716311,-0.027079587997921466,29.366046744218327,0.911664127657345,38,1.2666666666666666
1.4367922140865408,1.0850394417275768,0.017445532605051994,0.9999454617500305,1.3084710828579238,1.1770678480204229,0.2890525460243225,0.9995436072349548,1.3386089551016076,1.177356775302238,-0.1332015097141266,0.9999402761459351,1.0340737889237739,1.5138146855706511,0.14047282934188843,0.9999561309814453,1.066965435098478,1.4961441282953354,-0.14065136015415192,0.9999757409095764,1.2605343829489108,1.7396577391656345,0.11954869329929352,0.18223179876804352,1.3004080486622427,1.71163951740002,-0.1638321429491043,0.9741524457931519,1.2711239894897652,2.085039441727577,0.13383841514587402,0.3969404101371765,1.2621015494708776,2.0896944521355496,-0.14803600311279297,0.9733302593231201,1.2063110165768574,1.6067585597630527,0.2323548048734665,0.014199703000485897,1.2540013806429493,1.589803198496586,-0.09120656549930573,0.4296344518661499,0.00012150406837463379,1.050519612011126,1.5049794069329934,136.67794501515922,126.92494091236166,1.0,0.038251296102159764,-0.1064627816152048,0.053973693946217795,-0.11871911928270154,22.578952255449398,0.9185227197682254,39,1.3
1.4054704626123444,1.0250462343369653,0.06798962503671646,0.9999401569366455,1.275390159870975,1.123373384125872,0.2938455045223236,0.9995757341384888,1.3031228307449116,1.1293971070046873,-0.13572359085083008,0.9999437928199768,1.0126797432050267,1.4546485552437824,0.14262843132019043,0.9999586343765259,1.0426093856307508,1.4459645346513554,-0.14277972280979156,0.9999771118164062,1.2331885812653605,1.6863734313688639,0.12473616749048233,0.1818591207265854,1.268697379669168,1.6680758412097516,-0.17441721260547638,0.9760597348213196,1.2368015321902368,2.0250462343369655,0.15303052961826324,0.39884454011917114,1.2283820723535044,2.0364651069122703,-0.14741769433021545,0.9750840067863464,1.1736784117802643,1.5456404891063522,0.2405698299407959,0.01659177616238594,1.2222242069643068,1.540814669190431,-0.11719401925802231,0.4674566388130188,0.0026029646396636963,1.0276445644178887,1.450306544947569,137.0319318186307,128.24624357243093,1.0,0.03994219527424263,-0.10826798492536868,0.020524142220602056,-0.035204140829440664,35.40463452936932,0.9241136874006529,40,1.3333333333333333
1.3789091187057954,0.9808897657308909,0.037549540400505066,0.9999343752861023,1.2573302148864522,1.0756688022918186,0.2651476263999939,0.999600887298584,1.2804222900959314,1.0919253093435288,-0.16409039497375488,0.9999452233314514,1.005742218797138,1.4093492822921112,0.14245709776878357,0.9999606013298035,1.0287527705604267,1.4076388485582378,-0.14264118671417236,0.9999781847000122,1.217073760963904,1.6504273272012975,0.1255985051393509,0.17732441425323486,1.2501806831990072,1.639845678759266,-0.16839396953582764,0.9772897958755493,1.21504726292992,1.9808897657308908,0.19201688468456268,0.39176613092422485,1.2073786376449522,2.000881239313601,-0.13235390186309814,0.9764032959938049,1.150968072287646,1.4386024428165205,0.22598128020763397,0.01738518290221691,1.204786286929596,1.5051917152932903,-0.14376309514045715,0.48348066210746765,0.007149249315261841,1.0172474946787824,1.4084940654251745,138.4105040463235,129.60010163918045,1.0,0.05751273736089666,-0.12696030577643513,0.14008115250092093,-0.157809191408198,48.73335714037636,0.9123478545290474,41,1.3666666666666667
1.3512442824226476,0.9353271585879732,0.03932563215494156,0.9999250173568726,1.2378701615162635,1.0421662501832052,0.26459792256355286,0.9996240139007568,1.2519477567222557,1.0470358330871212,-0.16737566888332367,0.9999465346336365,1.0020364761743654,1.3669942368083199,0.1421523541212082,0.999962568283081,1.017970616064286,1.3624629144713907,-0.14235584437847137,0.9999791383743286,1.1994245116940514,1.6148623278162983,0.1240159273147583,0.17244715988636017,1.2280848662461619,1.6097338482905676,-0.16847553849220276,0.9786823987960815,1.1908932199328464,1.9353271585879732,0.18367895483970642,0.3859778940677643,1.1870926574059888,1.9636949167526054,-0.13951215147972107,0.9779040813446045,1.162135156001001,1.4369625277881821,0.2178622931241989,0.020937904715538025,1.1882537373006887,1.4684244163110853,-0.13791519403457642,0.5059932470321655,0.0021833479404449463,1.0100035461193257,1.3647285756398553,139.94323407134118,133.03835643684369,1.0,0.09179753312834975,-0.1259530502451507,0.2654402435255452,-0.010683247967386391,38.14476337350398,0.8968489176051807,42,1.4
1.3186602558904055,0.8855903560198811,0.0025192066095769405,0.9999195337295532,1.2089346141467125,0.9928445275511076,0.2504395842552185,0.9996349215507507,1.2194012229699989,0.992681425061256,-0.16970029473304749,0.9999462962150574,0.9858309256994788,1.319500831063025,0.13875463604927063,0.9999629259109497,0.9987738095060312,1.315236791766233,-0.13888095319271088,0.9999793767929077,1.174241441940286,1.5746958433992742,0.12686972320079803,0.1645032912492752,1.2011758183157732,1.572793803455916,-0.16291168332099915,0.9788464307785034,1.1585219200461465,1.885590356019881,0.19772621989250183,0.3707786500453949,1.159562607429643,1.922071032822493,-0.11836904287338257,0.9785100817680359,1.1436440121939888,1.4111794939654352,0.21325115859508514,0.02158355340361595,1.1643797148030899,1.4277292023385728,-0.1701781451702118,0.5218409895896912,7.486343383789062e-05,0.992302367602755,1.3173688114146291,140.66700465680796,135.0436059998201,1.0,0.04510488007954385,-0.12475705171909207,-0.3530505812877918,-0.013637341991911354,37.43273874016352,0.8877074327898872,43,1.4333333333333333
1.279310818764788,0.8326899706574092,-0.02214207872748375,0.999918520450592,1.1762370534349305,0.9497841873506457,0.2538987100124359,0.999633252620697,1.1838451540531785,0.9440584142121754,-0.16518868505954742,0.9999423027038574,0.9691989605941072,1.274935030818338,0.1377090960741043,0.9999605417251587,0.9798578017281301,1.2700021522235045,-0.13781024515628815,0.9999780058860779,1.1461784017142533,1.5295552561761523,0.1283206194639206,0.1535065770149231,1.1680122640753619,1.530129266622107,-0.16635116934776306,0.9766673445701599,1.1245142423974392,1.8326899706574094,0.20136824250221252,0.346036821603775,1.1275675082561352,1.868946318974928,-0.11952775716781616,0.9765357375144958,1.119716722183174,1.3604875881605105,0.21971604228019714,0.02186661586165428,1.1359051804442748,1.373306986430638,-0.15524762868881226,0.5185796618461609,0.002702862024307251,0.9745283811611186,1.2724685915209213,141.11009688071647,137.31391634501077,1.0,0.07059957131436896,-0.06180389312650105,0.1952355383344732,0.4344093951103748,32.678715005988195,0.8949589989361826,44,1.4666666666666666
1.2703377579512258,0.817881415457088,-0.03652781620621681,0.9999131560325623,1.168472052679711,0.9341399497530458,0.22880220413208008,0.9996464252471924,1.1751396179051359,0.9328439177722149,-0.18980981409549713,0.9999396204948425,0.9641424252845152,1.262856597736673,0.13766995072364807,0.9999616742134094,0.9776738671997475,1.2616624219277772,-0.13775788247585297,0.9999785423278809,1.1366404936863286,1.517078815164352,0.169247105717659,0.14967018365859985,1.160512845825694,1.5206992250589264,-0.1343141496181488,0.9774143695831299,1.1170844849906714,1.8178814154570881,0.27567046880722046,0.3387129604816437,1.1208314624683526,1.8567252450459422,-0.05314139276742935,0.9773861169815063,1.1132672618771728,1.3576839411765556,0.17094983160495758,0.022401563823223114,1.1312383534147,1.367988850512332,-0.1520460546016693,0.507444441318512,0.0006158351898193359,0.9709081462421313,1.2622595098322251,142.12210555395535,138.04908191889714,1.0,0.01989631370280911,-0.013337529336272223,-0.36031676205758606,0.3446878806682169,53.091599815695545,0.9024022805968138,45,1.5
1.2468517349846666,0.784619698657963,-0.05537538602948189,0.9999182820320129,1.1453201266109867,0.8985396965872225,0.230619877576828,0.9996607899665833,1.1543130565114925,0.8978791550392947,-0.1830757111310959,0.9999381899833679,0.9516177659668879,1.2262959383905416,0.13682548701763153,0.9999604821205139,0.9660391789021131,1.2273995937404474,-0.13690665364265442,0.9999777674674988,1.1156918984745545,1.4863032845887607,0.16243967413902283,0.14378178119659424,1.1406258319939258,1.493961203198801,-0.13973793387413025,0.9767610430717468,1.0960978868586868,1.784619698657963,0.24980250000953674,0.32798534631729126,1.1014098291146106,1.8222541735280486,-0.07207798212766647,0.9773121476173401,1.095900426966957,1.3247081242049836,0.17831580340862274,0.023742422461509705,1.1159981954976186,1.3364556319209568,-0.1724499613046646,0.5074400305747986,0.00031942129135131836,0.9588284724345005,1.2268477660654946,143.98867538729527,139.96493776293576,1.0,0.03601267883204421,-0.1011632400095718,0.12361572573815142,-0.661230230185134,63.793371853628585,0.8894809452868555,46,1.5333333333333334
1.2181411623391651,0.7443711144940675,-0.10953330993652344,0.9999257326126099,1.11963791675065,0.8621392249044787,0.2246238887310028,0.9996731281280518,1.1274977397498642,0.8590972741922343,-0.1805584728717804,0.9999375939369202,0.9342003893537928,1.188145250752719,0.1351909339427948,0.999959409236908,0.9501109363828036,1.1866633288093202,-0.13529330492019653,0.9999772906303406,1.0875865370330233,1.4513504381058209,0.1566120982170105,0.14972087740898132,1.1143246051013453,1.4582861074093507,-0.14177007973194122,0.9776516556739807,1.0606228805544295,1.7443711144940675,0.23929445445537567,0.34477701783180237,1.0769864110383431,1.7806462849003366,-0.07996372133493423,0.9786940813064575,1.0719396381781103,1.2796080422448926,0.18889664113521576,0.027313856407999992,1.0947335825565359,1.2954203083647833,-0.1830444484949112,0.5185071229934692,0.0015054047107696533,0.9421556628682982,1.1874042897810198,144.51043526837572,142.23731495426154,1.0,0.039373889897246,-0.08587239984586155,0.031478390084627314,0.09765231554841702,55.046851590913924,0.8863573642060584,47,1.5666666666666667
1.1646797750805846,0.6724349383592441,-0.18627572059631348,0.9999321103096008,1.0800556510239039,0.7923074313889742,0.17303818464279175,0.9996766448020935,1.083670675411166,0.7886056982795786,-0.2356913983821869,0.9999373555183411,0.918780900835321,1.1166364285916048,0.135066956281662,0.9999556541442871,0.9209628581047071,1.117872925068383,-0.1351686418056488,0.999975860118866,1.045193072193057,1.3848574156679536,0.1565011590719223,0.14347068965435028,1.0681296708680457,1.3973161508829008,-0.16276271641254425,0.9770071506500244,1.0200728955249039,1.672434938359244,0.23764559626579285,0.3421352803707123,1.0362159989516233,1.7118307973636844,-0.08814254403114319,0.9792429208755493,1.0460533292213257,1.1941167495319582,0.13303379714488983,0.02883247658610344,1.0595747961708317,1.210978065124386,-0.2724122703075409,0.5461086630821228,0.0019059181213378906,0.919871879470014,1.117254676829994,149.77339373863498,146.43283280291396,1.0,0.11181564079942095,-0.18807911495328553,0.5785387403941857,-0.8254568636761666,93.10068877585033,0.8679430375759886,48,1.6
1.1338886156997696,0.6380404359660434,-0.2068295031785965,0.9999383687973022,1.0557653109414393,0.7558975440386271,0.1603681743144989,0.9996869564056396,1.0581126862458325,0.7510268563653656,-0.25090330839157104,0.9999404549598694,0.9121020237915383,1.0809368255132412,0.1350359171628952,0.9999536275863647,0.9116502047257363,1.0800951362546776,-0.1351355016231537,0.9999757409095764,1.0221051019823413,1.3559214175714185,0.15304796397686005,0.14426696300506592,1.0425134617052905,1.3683732543045406,-0.17151057720184326,0.9780170917510986,1.0049329196764343,1.6380404359660434,0.2435370236635208,0.34831663966178894,1.013631470118106,1.678437330051138,-0.09562595188617706,0.9801895022392273,1.0300077169948976,1.153176572861501,0.1053110733628273,0.033015698194503784,1.0430682835133778,1.1658324897942913,-0.2925446629524231,0.5838812589645386,0.0025634467601776123,0.9118761142586373,1.0805159808839595,154.71371571480995,150.26276684540434,1.0,0.08971165773437531,-0.09343330881813501,-0.14734364423329796,0.6781754371036088,52.07174548745348,0.84496944703777,49,1.6333333333333333
1.1119336779274882,0.611910586758036,-0.12850241363048553,0.9999436140060425,1.0377411098301252,0.7325950658432581,0.1880827099084854,0.9997053742408752,1.0389742729833038,0.7240721124130495,-0.22129325568675995,0.9999449253082275,0.9020443623425086,1.0562353260353354,0.1350712776184082,0.9999533295631409,0.9059017853735686,1.052936046373976,-0.1351718008518219,0.9999764561653137,1.0048432404849201,1.3336442238512003,0.13945166766643524,0.14088165760040283,1.022690346860562,1.346398571411461,-0.16915760934352875,0.9790102243423462,0.9908902690358002,1.6119105867580361,0.2337031066417694,0.3418158292770386,0.9963918167569469,1.6510919282017829,-0.12360367923974991,0.981032133102417,1.016598289136538,1.1271269432166138,0.14939340949058533,0.04065079987049103,1.0285659213891916,1.1339560242744178,-0.25991129875183105,0.6216849684715271,0.004559516906738281,0.9039730738580386,1.0545856862046556,156.79635363053973,153.36599250045862,1.0,0.054715268408116725,-0.06705364681240805,-0.26705079897423517,0.19796857384143135,26.711949359941396,0.8377059940350022,50,1.6666666666666667
1.0900200416450336,0.5870000857642903,-0.13113118708133698,0.9999490976333618,1.0213502633358535,0.7129482363154959,0.20925533771514893,0.9997234344482422,1.0202828159728643,0.7009152431658912,-0.20477111637592316,0.9999492764472961,0.8981407574061633,1.0331583171510814,0.13532401621341705,0.99995356798172,0.898398434132696,1.0251570133583914,-0.13544057309627533,0.9999772906303406,0.9909176493916328,1.303617542153368,0.12511473894119263,0.13466957211494446,1.002558561546407,1.3212446262969106,-0.17147114872932434,0.9791605472564697,0.9787227788858407,1.5870000857642903,0.20274706184864044,0.325935423374176,0.9807954890176742,1.6249576936381103,-0.14596258103847504,0.980891227722168,1.0012388662706593,1.102114671023756,0.16467389464378357,0.04477933421730995,1.0149381213935402,1.1050697004852152,-0.24657878279685974,0.6527718305587769,0.006539642810821533,0.8982695957694297,1.0291576652547363,158.60215121905048,156.52010943550687,1.0,0.0656273959136246,-0.06931644433348229,0.09144304532572022,-0.025737454184723924,19.20104671185583,0.8273022919732255,51,1.7
1.073560660540288,0.5668464270625239,-0.1764724850654602,0.9999540448188782,1.0083163248873463,0.693558479056538,0.18308140337467194,0.9997435212135315,1.0000160769397952,0.680269724497007,-0.23746426403522491,0.9999532103538513,0.8949882982072047,1.014560673261099,0.13551318645477295,0.9999542236328125,0.8914810894319021,1.005630663974907,-0.13563083112239838,0.9999781250953674,0.9754172764310709,1.2859628016422295,0.1344464123249054,0.13835400342941284,0.985486096018305,1.2993495335116232,-0.16668479144573212,0.9803740978240967,0.9660496712482336,1.566846427062524,0.21386107802391052,0.33742788434028625,0.9668496207980387,1.6004895617626498,-0.13421779870986938,0.9820255041122437,0.993655238416416,1.0801388896031188,0.1477300226688385,0.05077140033245087,1.0046324862987392,1.0792380396634886,-0.3517864942550659,0.6819846630096436,0.007316231727600098,0.8932346938195534,1.010095668618003,161.5828782462771,158.7113660494145,1.0,0.05015952275071189,-0.044799967604536646,-0.112501855547736,0.18174889741191907,40.88742070615414,0.8275734372136828,52,1.7333333333333334
1.056001043755645,0.548885856137036,-0.18093204498291016,0.9999585151672363,0.9973262859134837,0.6823386633869849,0.17722657322883606,0.9997621774673462,0.9835026243197849,0.6607541562655895,-0.23795649409294128,0.9999571442604065,0.8994383391612901,1.001338516006804,0.13488788902759552,0.9999562501907349,0.885723580497139,0.9918605896941117,-0.13500377535820007,0.9999794960021973,0.9637232835961792,1.2712956601620669,0.13530126214027405,0.13737453520298004,0.9706594636966867,1.284579783998665,-0.1736813485622406,0.9809026718139648,0.9568578502636628,1.548885856137036,0.22439789772033691,0.3370848596096039,0.9557997526110749,1.5818665865797554,-0.15204641222953796,0.9824596047401428,0.9952904700678559,1.0541196720646486,0.14247362315654755,0.052621278911828995,0.9980965801483285,1.0566144321480164,-0.370418906211853,0.7086529731750488,0.012020349502563477,0.8925809598292145,0.9965995528504579,165.18884203940607,160.95778290635914,1.0,0.07224097591056935,-0.015175497510238799,0.17200838068211574,0.22107775824018833,72.4117183718117,0.8327334478033895,53,1.7666666666666666
1.0402262171807972,0.5347802509546555,-0.13979817926883698,0.9999621510505676,0.980366991973159,0.653510547097582,0.18584564328193665,0.9997760057449341,0.9685815647630698,0.6421885703295046,-0.22553403675556183,0.9999603033065796,0.8873935073843686,0.9810457028101011,0.1341731995344162,0.9999576807022095,0.8884310031933821,0.9763408919943939,-0.13429774343967438,0.9999805688858032,0.9518301130657078,1.2580734427596616,0.13469655811786652,0.14160285890102386,0.960103502873218,1.2712047503829131,-0.14691010117530823,0.9812763929367065,0.9466317810002366,1.5347802509546555,0.21549935638904572,0.3382432758808136,0.9456617856839766,1.5644903148969458,-0.13453051447868347,0.9827906489372253,0.9823453122972503,1.029754693679852,0.1547037810087204,0.05282708629965782,0.9921004305684372,1.0410197053262018,-0.331409752368927,0.7317235469818115,0.006373465061187744,0.8879122552888754,0.9786932974022475,165.82958439936885,163.5190426991197,1.0,0.036134258589571054,-0.05335781616969831,-0.26082537977438286,-0.2830616330880893,3.41129064347886,0.8177592068608024,54,1.8
1.0310260024149385,0.528577264934299,-0.10619282722473145,0.9999656677246094,0.9685854147179431,0.6442787906211157,0.19611968100070953,0.999788224697113,0.9641532041028605,0.6326984085741301,-0.20535266399383545,0.9999638199806213,0.8894531913437383,0.9823077027073843,0.13178767263889313,0.9999593496322632,0.8976029749878958,0.9788291519746642,-0.13192713260650635,0.9999819993972778,0.949033327503006,1.2586247652025786,0.18109062314033508,0.15856868028640747,0.9581186040675406,1.2766449127859079,-0.11115871369838715,0.9827320575714111,0.9442696754535614,1.528577264934299,0.2955707609653473,0.36738821864128113,0.9440625509625532,1.5605283037042859,-0.07051829248666763,0.9842144250869751,0.9748351665065439,1.018681023636485,0.17899388074874878,0.053870826959609985,0.9933049463990123,1.032156895798531,-0.2990017831325531,0.7577971816062927,0.006535053253173828,0.893528083165817,0.9805684273410243,166.82108996506227,165.67938214375715,1.0,0.058656454433714866,0.032233124906962916,0.16989396267069576,0.6421118218587061,53.71026545438924,0.8343279485045724,55,1.8333333333333333
1.0222482032833795,0.5241899440546262,-0.18610639870166779,0.9999690651893616,0.9670683904555278,0.6461052541645358,0.15692095458507538,0.9998042583465576,0.9581173202581501,0.6293955433431926,-0.2395922690629959,0.9999672174453735,0.9011278462224113,0.977474205769899,0.12912172079086304,0.9999600052833557,0.8994414417157248,0.976102685263118,-0.1292591094970703,0.9999830722808838,0.9459313410660936,1.255746224776293,0.17039638757705688,0.18004190921783447,0.9531146784035139,1.275247857901247,-0.11772173643112183,0.9840741157531738,0.9417877036059802,1.524189944054626,0.26532381772994995,0.39952293038368225,0.9416076645441406,1.5564877297163848,-0.0769416019320488,0.9854758381843567,0.9808498591686842,1.0157461489260153,0.14003261923789978,0.0633920431137085,0.993345349632645,1.0231876932503103,-0.32343804836273193,0.7818720936775208,0.009454190731048584,0.900284643969068,0.9767884455165086,169.9691903907503,167.48513782099667,1.0,0.07241069762925254,-0.00984259384035505,0.1109409530299964,-0.33499562264954924,62.1337197588904,0.829529256669438,56,1.8666666666666667
1.0130979308977406,0.5167947873554681,-0.2088802307844162,0.9999721050262451,0.9637189955363202,0.6424462143315064,0.14388184249401093,0.9998199343681335,0.9509866886702706,0.6230457190718852,-0.257394015789032,0.9999703764915466,0.9055069028273403,0.9723487308676841,0.1294727325439453,0.9999610185623169,0.901519957332836,0.9737371885218523,-0.12960930168628693,0.9999841451644897,0.9429747807634186,1.25215786703667,0.19100913405418396,0.20215648412704468,0.9502143781348532,1.2729639380653999,-0.1149463877081871,0.9853492379188538,0.9388131884888764,1.5167947873554681,0.30290135741233826,0.43323656916618347,0.939461471455307,1.5514814441996974,-0.05849222466349602,0.9866546988487244,0.9775951705491969,1.008217482814804,0.13810093700885773,0.07598742842674255,0.9941913405127547,1.0179228238714528,-0.3472261428833008,0.8035985231399536,0.011010944843292236,0.9035134300800881,0.9730429596947683,171.47222979990357,168.54608432327424,1.0,0.04335209678946926,-0.00502490898481878,-0.20708191619876357,0.03438096540477255,119.20769153878945,0.834581545456755,57,1.9
1.0087876617539635,0.5130606295753942,-0.2344234436750412,0.9999748468399048,0.9578721726106908,0.6371691072352086,0.12724991142749786,0.9998348951339722,0.9474274023341304,0.6201972076072308,-0.28110653162002563,0.9999731779098511,0.9068307342008521,0.9706392963494481,0.12991490960121155,0.999961793422699,0.9086483467638143,0.9734348247414907,-0.1300557404756546,0.9999850988388062,0.9416343652940871,1.250662898465962,0.20861133933067322,0.22989150881767273,0.9495678057734368,1.2727834069549269,-0.1115635484457016,0.9865326285362244,0.9381871726702047,1.5130606295753941,0.33463039994239807,0.4681704044342041,0.9391184212023478,1.5492790662933074,-0.040274400264024734,0.9877177476882935,0.9779145706364858,0.9983827422028778,0.13082179427146912,0.08928978443145752,0.9976806353422136,1.0103554731903983,-0.3758220374584198,0.8231564164161682,0.009646236896514893,0.9077395404823333,0.9720370605454693,172.16247510305695,170.05189014810819,1.0,0.04421850247459256,0.002992311810380683,0.007451158724578464,0.06432755612111546,138.26641600838624,0.8392461831641118,58,1.9333333333333333
1.0005014663301028,0.5066957436480758,-0.21446815133094788,0.9999773502349854,0.9433451517238114,0.6281507219216924,0.14364269375801086,0.9998483061790466,0.94073300026012,0.6174959182851854,-0.2805235981941223,0.9999757409095764,0.9030272796431996,0.9670940881416772,0.13375571370124817,0.9999626278877258,0.9102467051638725,0.9698360910157218,-0.1338862180709839,0.9999859929084778,0.9379284183931341,1.243963265296757,0.1935282051563263,0.26928478479385376,0.9456674581518629,1.265740650542007,-0.11693787574768066,0.9877224564552307,0.9335377719500512,1.5066957436480757,0.3019515573978424,0.5104441046714783,0.9344099145150097,1.540740175984644,-0.05570342019200325,0.9888266324996948,0.9695503136146231,0.993209970669226,0.13947799801826477,0.10781552642583847,0.9946053779134953,1.004933936400135,-0.38937777280807495,0.8408144116401672,0.00608903169631958,0.906636992403536,0.9684650895786995,171.85798622715075,170.82980025052333,1.0,0.027436210187635333,0.012332372197591184,-0.11791772066960247,0.06669948562062775,104.01367572507576,0.8476160252238532,59,1.9666666666666666
0.9929482220031529,0.5020471193081847,-0.21638162434101105,0.9999796152114868,0.9277842943958471,0.6222021350936521,0.1424584537744522,0.999861478805542,0.9359687160737238,0.6151995956923768,-0.2738502621650696,0.9999780654907227,0.8993648377154123,0.9649969219378481,0.13529229164123535,0.9999634623527527,0.9135526244639388,0.9682655951682744,-0.13544543087482452,0.9999868273735046,0.9354661392365574,1.2404536398084947,0.1945076882839203,0.3160029649734497,0.9429046507855298,1.2624343312078066,-0.12069731950759888,0.9888214468955994,0.9300295119607672,1.5020471193081848,0.3060609996318817,0.550282895565033,0.9323736226711756,1.5369629509465041,-0.06144818663597107,0.9898296594619751,0.964904996027636,0.9849961108268757,0.13288751244544983,0.1317937672138214,0.9938854711306887,0.9965704564267026,-0.36946940422058105,0.8566929697990417,0.004013746976852417,0.9064587310896756,0.9666312585530612,171.3427917760028,172.1051005190541,1.0,0.01846393567273083,0.007654008697340285,-0.06529319322995186,-0.03408851020003267,98.23451246240835,0.8538878978414831,60,2.0
0.9930437635906717,0.5035718694253831,-0.2030109167098999,0.9999816417694092,0.9204222971653276,0.614710556127033,0.15133136510849,0.9998716711997986,0.9368348025364913,0.6133284547975885,-0.2691541910171509,0.9999801516532898,0.9006492272034792,0.9674536387192542,0.13547936081886292,0.9999631643295288,0.9212191825414393,0.9708844125574552,-0.1356508433818817,0.9999874234199524,0.9371858487740726,1.2450974622065392,0.19710147380828857,0.3621136248111725,0.9446403208375109,1.2700197658823682,-0.10455773025751114,0.9897924065589905,0.9313348350889985,1.5035718694253832,0.3083251118659973,0.5880976319313049,0.9345020638289561,1.5408263128426152,-0.040015511214733124,0.9907215237617493,0.9444790687378742,0.9825206057370539,0.16183915734291077,0.14937739074230194,0.9976475735361138,0.9963090144402922,-0.35058507323265076,0.8710063099861145,0.0007908344268798828,0.9109342048724592,0.9691690256383547,171.2064542562625,173.37909981314357,1.0,0.022715560727421216,0.006786587189794341,0.032924468580620814,-0.0068710551661915805,96.26058985684071,0.854216231519289,61,2.033333333333333
0.9895462644579036,0.504045336450593,-0.2652040123939514,0.9999834299087524,0.9184582363358637,0.6158368658199815,0.0992061123251915,0.9998772740364075,0.9347302567069998,0.6169606051308049,-0.30587589740753174,0.9999818801879883,0.907551961739084,0.9687962752971625,0.1346542239189148,0.9999625086784363,0.9281171623821022,0.9752812787657252,-0.13484518229961395,0.999987781047821,0.937955248869382,1.2471111290838992,0.2402108907699585,0.40087658166885376,0.9454110955655759,1.272881883763124,-0.053901612758636475,0.9903360605239868,0.9315027631772035,1.504045336450593,0.38829636573791504,0.616441547870636,0.9373557544791152,1.5415036261489614,0.04663211107254028,0.991097092628479,0.9443701098267052,0.9825775590656225,0.11949358880519867,0.14143797755241394,1.0035381842073667,1.001098934083966,-0.3907742202281952,0.8837915062904358,0.0006426572799682617,0.9178345620605931,0.9720387770314438,172.32710601294283,174.95656044365276,1.0,0.047710795136387575,0.0174975632442164,0.1858385522441325,0.07964737845198258,105.73223084011225,0.8592861230730362,62,2.066666666666667
0.9895125735109923,0.5061813438025151,-0.2805870771408081,0.9999850392341614,0.9192698002450362,0.617970647102312,0.0743500292301178,0.999883770942688,0.932128122389329,0.6191404677539877,-0.3275696039199829,0.9999834299087524,0.9187485465291468,0.973342229257611,0.13456466794013977,0.9999625086784363,0.9343759312061972,0.9826185626535748,-0.13476204872131348,0.9999880790710449,0.9393640005486991,1.2488754825053634,0.2539033591747284,0.4173797070980072,0.9468604533884648,1.2747942626193098,-0.042388781905174255,0.9898183941841125,0.933168855784437,1.5061813438025151,0.4065970778465271,0.6288423538208008,0.9386639865494627,1.5442099069408193,0.06640836596488953,0.9903265237808228,0.9518062589161648,0.9843373954772814,0.08018045127391815,0.13277746737003326,1.0074755296425613,1.0041614204315072,-0.41794681549072266,0.8950960636138916,0.0006681680679321289,0.9265622388676721,0.9779803959555929,174.3418486537121,175.81068884859926,1.0,0.058992455740217054,0.036748198811553855,0.0874479319137496,0.14984634883901513,120.60910464248003,0.8696926922180802,63,2.1
0.9881500876915419,0.5066649431948056,-0.2877131998538971,0.9999865293502808,0.9234155665188675,0.6221816357813623,0.07737068086862564,0.9998900890350342,0.9275260260421606,0.6186614549378355,-0.3287295699119568,0.999984860420227,0.930253952326807,0.9786244628886536,0.13460849225521088,0.9999624490737915,0.934869560200653,0.9863118568082825,-0.13480661809444427,0.9999883770942688,0.9395615349874699,1.2498711829975537,0.24980831146240234,0.4198381006717682,0.9467329306126264,1.2749169222923886,-0.05013825744390488,0.9887759685516357,0.9329010256639775,1.5066649431948056,0.4005534052848816,0.6313245892524719,0.93812892508458,1.54383476453483,0.051703762263059616,0.9889241456985474,0.9709938225218336,0.9819950396977539,0.08607494831085205,0.12680695950984955,1.0096219180551727,1.0055289853643645,-0.4470752775669098,0.9053881764411926,0.0020111799240112305,0.9325617562637301,0.982468159848468,176.54896035100603,175.8135818171533,1.0,0.04802812299221015,0.03652800280150145,-0.08407053230173686,-0.0016132390244884508,150.11795527524777,0.8825477861490767,64,2.1333333333333333
0.9889524594359511,0.5094505245942027,-0.2846626043319702,0.9999878406524658,0.9271544872999928,0.6257865071735976,0.07374586164951324,0.9998971223831177,0.9276591354618134,0.6193943145447534,-0.33046892285346985,0.9999861717224121,0.9390041027749221,0.9842166270176061,0.13450123369693756,0.9999629259109497,0.9380065132851921,0.9905030923026887,-0.13470372557640076,0.9999886751174927,0.9428928621395399,1.2534529019176892,0.24201874434947968,0.4254603385925293,0.9485136057712182,1.278051259522059,-0.0629080981016159,0.9876843094825745,0.9345052292179787,1.5094505245942027,0.37942808866500854,0.6376661062240601,0.9389838248661828,1.546759786168407,0.025655463337898254,0.9875816702842712,1.0103445033775522,0.9917836317870435,0.0876057967543602,0.12325453013181686,1.013916760125353,1.0072439693211965,-0.46716180443763733,0.9146022200584412,0.003645092248916626,0.938505308030057,0.9873598596601475,177.29590034675397,175.87617626205724,1.0,0.03305892439236732,0.023955712256670782,-0.11952956673087524,-0.10033252266519664,169.0895127075092,0.888700108917688,65,2.1666666666666665
0.9897635531735988,0.5106431722743798,-0.2905155122280121,0.9999890327453613,0.9297009375398173,0.6279756705373233,0.05778990313410759,0.999903678894043,0.9277197201377427,0.6188870096201866,-0.34975698590278625,0.9999873638153076,0.9404400376011819,0.9879240829376792,0.13482895493507385,0.9999631643295288,0.9414748442193414,0.9933414399461716,-0.13502366840839386,0.999988853931427,0.9478608940386059,1.2546093981614086,0.27430662512779236,0.41464918851852417,0.9493627863371215,1.2791042499671,-0.04632814973592758,0.9855107069015503,0.9340599505778368,1.5106431722743798,0.4292692542076111,0.6371194124221802,0.9397316156017705,1.5476439947217748,0.06499266624450684,0.9847895503044128,1.0020959750709102,0.989054921953278,0.09170108288526535,0.11709069460630417,1.0154434322104378,1.00795123144289,-0.47693347930908203,0.9227439165115356,0.005178511142730713,0.9409574409102616,0.9906327614419254,175.3206653341863,176.36482862173614,1.0,0.012956557371424494,0.018952539212260696,-0.15454500093985413,-0.03856226880339337,170.89472953048087,0.8958951903770133,66,2.2
0.9920148615169911,0.5131149498957253,-0.2848236560821533,0.9999901056289673,0.9321768617455831,0.6308051686111928,0.06012439727783203,0.9999096989631653,0.930609134518371,0.6211257328461252,-0.33732983469963074,0.9999884366989136,0.9417620912037693,0.9938572347480068,0.13388149440288544,0.9999634623527527,0.9473730314304446,0.9984177431809137,-0.1340814083814621,0.9999890923500061,0.9528832611286052,1.2585181043697826,0.27867719531059265,0.4168485105037689,0.9519922876716518,1.2831102516446633,-0.03478989750146866,0.9847332239151001,0.9368692380267639,1.5131149498957253,0.43994593620300293,0.6453104615211487,0.9423616335688334,1.5513431978246945,0.08388553559780121,0.9836662411689758,0.9972221203752034,0.9919890544440593,0.09485064446926117,0.1135304793715477,1.020052253028279,1.0103666277619796,-0.4482519030570984,0.930213451385498,0.005499541759490967,0.944567561317107,0.9961374889644603,173.99468449003754,177.01416501414656,1.0,0.007735144137466906,0.022098448103951104,-0.04306095567740884,0.02532349643755432,130.61617944031067,0.9053024383338217,67,2.2333333333333334
0.9942559822081113,0.5150322044670506,-0.29977136850357056,0.9999910593032837,0.9332842035671912,0.6324892437048499,0.04598270356655121,0.9999163150787354,0.9330499835246656,0.622685762418842,-0.35139474272727966,0.9999894499778748,0.945759497138929,0.9969945792836947,0.1337210237979889,0.9999637603759766,0.9521103625488567,1.0010283805908466,-0.13391925394535065,0.9999892711639404,0.956954415857633,1.260529042811995,0.2812085449695587,0.41525089740753174,0.9552865840505511,1.285913468157275,-0.044179704040288925,0.9839738607406616,0.9398151249774799,1.5150322044670506,0.43884700536727905,0.6508472561836243,0.944771818459379,1.5535985800817467,0.06639765202999115,0.9825106263160706,0.9973355498170886,0.9956097677435355,0.09096185863018036,0.11319052428007126,1.0227121923679605,1.012793336413497,-0.46913737058639526,0.9369866251945496,0.005555927753448486,0.9489349298438929,0.9990114799372707,173.71482680933147,177.11178626947205,1.0,0.014977010964964342,0.002638255012339944,0.05486661614947738,-0.14826278287472397,124.38218594062465,0.9080031205823895,68,2.2666666666666666
0.9960318221413259,0.5170378203021906,-0.33778437972068787,0.9999919533729553,0.9352503603554425,0.6341861657654004,0.013432797975838184,0.9999228119850159,0.9344115156932451,0.6243473925525348,-0.3826984763145447,0.9999904036521912,0.9567548177188442,0.9997842820322214,0.13272950053215027,0.9999648332595825,0.9545940550362189,1.0031908765737032,-0.1329151690006256,0.9999896883964539,0.9667534034857579,1.2617017249639118,0.28488945960998535,0.4105934798717499,0.957574904296887,1.2876503729170359,-0.044948115944862366,0.9830246567726135,0.9456268477503261,1.5170378203021906,0.4623885154724121,0.6544436812400818,0.9466431565345261,1.5566313937404062,0.08111172169446945,0.9812333583831787,1.0075166172387637,0.9955408450959519,0.07105863094329834,0.11216361820697784,1.0253608243946144,1.015163381859162,-0.5120620131492615,0.9431216716766357,0.005564838647842407,0.9556744363775316,1.0014875793029623,173.08393029853545,177.07232367994484,1.0,0.03837441686059135,0.0038401524800556986,0.1849515660736553,0.009471267241304844,144.24727092175036,0.9079140465151444,69,2.3
0.9977734376958016,0.5192051089735489,-0.3312588334083557,0.9999927282333374,0.9371472470569241,0.6354905557488748,0.02670198120176792,0.9999291300773621,0.935902347627903,0.6260411074296921,-0.3700313866138458,0.999991238117218,0.9605287102754329,1.0034347384136213,0.13274265825748444,0.9999655485153198,0.9595676778858343,1.0060325966948485,-0.13292813301086426,0.9999899864196777,0.9724202065845018,1.2623196844116105,0.2926686406135559,0.424156129360199,0.9598225250606317,1.2892064306964741,-0.04595482721924782,0.983517050743103,0.950828899669622,1.519205108973549,0.46977949142456055,0.6655849814414978,0.948089213395464,1.5604764217557177,0.07176300138235092,0.9814185500144958,1.0112392880424703,0.9940908696382832,0.07621943205595016,0.11990386992692947,1.0276317125914818,1.0167800771770108,-0.4891742169857025,0.9486625790596008,0.005337327718734741,0.9600481940806336,1.0047336675542349,172.56561455818735,177.471750124409,1.0,0.023389781152142124,0.014306437446599849,-0.11474162645434414,0.07982318283969425,156.06288321548772,0.9099020238163347,70,2.3333333333333335
0.9991826513711697,0.5213250325512921,-0.34643790125846863,0.9999934434890747,0.939123218977789,0.6376197413099515,0.02039097435772419,0.9999344348907471,0.9371329460076508,0.6282770819248555,-0.3766689896583557,0.9999920129776001,0.9649950768878323,1.0061608115199345,0.13275378942489624,0.9999660849571228,0.9617575943681034,1.0092992823182396,-0.1329389065504074,0.9999902248382568,0.9726452909835087,1.2625940901942891,0.2961563467979431,0.427450031042099,0.9613154758596321,1.2905832350436826,-0.02852022275328636,0.9833132028579712,0.9551660765765319,1.5213250325512921,0.4805026650428772,0.6707453727722168,0.950218977577702,1.5623859436746939,0.11087783426046371,0.980765163898468,1.0138075385432448,0.996041855857954,0.07093742489814758,0.12054448574781418,1.0284305236758478,1.0201177658306217,-0.5012248754501343,0.9535945653915405,0.005269914865493774,0.9633763356279679,1.007730046919087,174.4263061969525,177.75222257555393,1.0,0.015369440533814744,0.012410203897693642,-0.060795376741307416,-0.014462952682315488,130.0947108905705,0.9129353628976089,71,2.3666666666666667
1.000729648719305,0.5229343001306743,-0.34313735365867615,0.9999940991401672,0.9443556202768156,0.6402229638003962,0.019385207444429398,0.9999389052391052,0.9378485231479191,0.6312389555900622,-0.36983105540275574,0.9999927282333374,0.9740053185142343,1.0084219421651925,0.13140399754047394,0.9999663829803467,0.9653056240734866,1.011351649250045,-0.13158270716667175,0.9999904036521912,0.973758310013131,1.2623035024355578,0.2813774347305298,0.4194065034389496,0.9638261130000394,1.289298123862487,-0.05298297479748726,0.9824747443199158,0.9569229979572058,1.5229343001306743,0.43261098861694336,0.6744515299797058,0.9516555998779774,1.562911684142377,0.047307051718235016,0.9803128242492676,1.0289403689835002,0.9864392438724774,0.048662588000297546,0.12051079422235489,1.0297463744438273,1.0260958554905022,-0.514876127243042,0.9580914974212646,0.005059868097305298,0.9696554712938604,1.0098867957076187,176.3598878557328,177.75810739206372,1.0,0.03708227263529372,0.004744420451036743,0.16738501329197514,-0.059306430235993135,104.00757254658477,0.9150198855289796,72,2.4
1.0051248696795532,0.5259307579756751,-0.3434261977672577,0.999994695186615,0.9501269426300774,0.6446082788172426,0.020097952336072922,0.999942421913147,0.9423899479154232,0.635394084192153,-0.37058812379837036,0.9999933242797852,0.9808745655165358,1.0154231028408383,0.1311412900686264,0.9999661445617676,0.9733108085294004,1.018707494477848,-0.13132497668266296,0.9999905228614807,0.9778146704067157,1.2683243429262616,0.2839764952659607,0.4088939130306244,0.9702003990423113,1.2955868991653803,-0.0388166680932045,0.9812288880348206,0.9612123493083014,1.5259307579756751,0.4583965241909027,0.6657811999320984,0.95678548197655,1.569349619948436,0.08979759365320206,0.9786427617073059,1.0327108242792515,0.9930520398582896,0.05737235024571419,0.11749507486820221,1.0343679085457937,1.0330852687473875,-0.4993191361427307,0.9621372818946838,0.005164355039596558,0.9770926870229681,1.0170652986593431,177.00567612799264,177.83825956614317,1.0,0.021255318714282934,0.017694303229842622,-0.12536934563452257,0.10124082096567431,108.7317441659359,0.9266296505510145,73,2.433333333333333
