nose_x,nose_y,nose_z,nose_visibility,left_shoulder_x,left_shoulder_y,left_shoulder_z,left_shoulder_visibility,right_shoulder_x,right_shoulder_y,right_shoulder_z,right_shoulder_visibility,left_hip_x,left_hip_y,left_hip_z,left_hip_visibility,right_hip_x,right_hip_y,right_hip_z,right_hip_visibility,left_knee_x,left_knee_y,left_knee_z,left_knee_visibility,right_knee_x,right_knee_y,right_knee_z,right_knee_visibility,left_ankle_x,left_ankle_y,left_ankle_z,left_ankle_visibility,right_ankle_x,right_ankle_y,right_ankle_z,right_ankle_visibility,left_wrist_x,left_wrist_y,left_wrist_z,left_wrist_visibility,right_wrist_x,right_wrist_y,right_wrist_z,right_wrist_visibility,trunk_lateral_inclination,center_mass_x,center_mass_y,left_knee_angle,right_knee_angle,person_height,center_mass_velocity_x,center_mass_velocity_y,center_mass_acceleration_x,center_mass_acceleration_y,body_orientation,torso_leg_ratio,frame,timestamp
0.8258120641255341,0.5448815267729784,-0.44873180985450745,0.9999211430549622,0.9166644767390716,0.6850731194553539,-0.16600193083286285,0.9999641180038452,0.7436798132845462,0.6939956639433618,-0.230961874127388,0.9999976754188538,0.8946510276142446,1.0324439257904061,0.030471155419945717,0.9999386668205261,0.7944762045808089,1.0365935787611171,-0.03068544529378414,0.9999833106994629,0.9346220871643147,1.3028179914058333,0.06425082683563232,0.12892314791679382,0.818580848971829,1.3188539403664157,-0.026530209928750992,0.730278730392456,0.9656336889553043,1.5448815267729783,0.2538580298423767,0.20050258934497833,0.8432284469367552,1.551328710730237,0.18869753181934357,0.7485840320587158,0.9722452288344425,1.0380403785531112,-0.1833985596895218,0.18540968000888824,0.7267123470716028,1.0693439459451635,-0.32234176993370056,0.9982189536094666,0.004776060581207275,0.8445636160975267,1.0345187522757615,178.89111761970648,178.82909437293782,1.0,-0.9649170921407181,0.0464826866778398,-5.674584493131428,0.2972807314021352,95.9981477759251,0.9476476589072157,0,0.0
0.8295828405205558,0.5658517237192665,-0.45824241638183594,0.9999287128448486,0.9253192540076421,0.7069736361647957,-0.1675889790058136,0.9999672174453735,0.7461138842013887,0.72521600774131,-0.2069980800151825,0.9999973177909851,0.9077121391325859,1.0563051387583438,0.017838364467024803,0.9999443292617798,0.8025598753314408,1.064925667690262,-0.018038293346762657,0.9999845623970032,0.9472989880910968,1.3309611247454085,0.049315981566905975,0.21496744453907013,0.8297106194275777,1.3442690023377628,-0.010164812207221985,0.7556654810905457,0.9799549681666819,1.5658517237192666,0.27116453647613525,0.2797927260398865,0.8514780518127553,1.5711846741706081,0.21306352317333221,0.7728732228279114,0.9729101896175318,1.0603570033527185,-0.17928937077522278,0.26476848125457764,0.7286868420921,1.0871768182688368,-0.3279218077659607,0.9977514743804932,0.009564638137817383,0.8551360072320133,1.060615403224303,179.71318918395949,179.92804966767486,1.0,-0.05710414315137698,0.035784263395968234,7.46363493966529,-0.09386668483108815,97.5721047692907,0.9685599804401985,1,0.03333333333333333
0.8325284777618568,0.5686417621169683,-0.4961627423763275,0.9999356865882874,0.9272097502242931,0.7117576747149944,-0.20596471428871155,0.9999702572822571,0.7505899110517594,0.7270806267538792,-0.2442399263381958,0.9999972581863403,0.9064941889023017,1.0591761373077506,0.017810005694627762,0.9999493360519409,0.7987875892120225,1.0668545717557856,-0.01799166388809681,0.9999855756759644,0.9492717252718608,1.3329326013904543,0.03842503949999809,0.29232022166252136,0.8278339857055553,1.3447550487522044,-0.009940823540091515,0.7780491709709167,0.979462516429012,1.5686417621169682,0.2413857877254486,0.3511449992656708,0.8564203670100363,1.576423144202107,0.2024853527545929,0.7944527268409729,0.9793368815496231,1.0637844976477377,-0.2149267941713333,0.33741649985313416,0.7363011666429818,1.0904831635865886,-0.3428284227848053,0.9975479245185852,0.00801113247871399,0.8526408890571621,1.063015354531768,178.41769367607793,178.93255851415162,1.0,-0.03637767326011765,-0.004590148510508724,0.15408004114375157,-0.2985564488324541,97.4900757350093,0.9631994496304384,2,0.06666666666666667
0.8330447468043853,0.5741180418790311,-0.46276769042015076,0.9999418258666992,0.9274242253969819,0.7151737515245133,-0.1855749487876892,0.9999729990959167,0.7511849739763643,0.7305481471967837,-0.2290608435869217,0.999997079372406,0.9082353113246564,1.0595705555927235,0.016901474446058273,0.9999536871910095,0.8029506384773418,1.0687048091463884,-0.017107253894209862,0.9999862313270569,0.945299317087741,1.3315857217970253,0.02220715582370758,0.36200225353240967,0.8322899673869704,1.3447677092213295,-0.018165256828069687,0.7982314825057983,0.9807778918589803,1.574118041879031,0.18844911456108093,0.4154317080974579,0.8583120033351754,1.5831088924853256,0.1592186987400055,0.8140201568603516,0.9822060938025531,1.0663431739939955,-0.18917249143123627,0.40296876430511475,0.7374306888134903,1.092996697104466,-0.308437317609787,0.997319221496582,0.008019804954528809,0.8555929749009992,1.064137682369556,179.43675337722448,179.83563099564097,1.0,0.00782194266009561,-0.009968853299282302,0.3413732395635069,-0.041384171716571,98.14751077973072,0.9461861582035567,3,0.1
0.8329045268856473,0.5741373015795489,-0.47324642539024353,0.9999472498893738,0.9279557754398929,0.7152337882000623,-0.2020615041255951,0.9999754428863525,0.7487747183510252,0.7315103246869982,-0.22958338260650635,0.9999969005584717,0.9076411520975013,1.0577390609512962,0.012105005793273449,0.9999576210975647,0.7999575220842604,1.0668681568554734,-0.012312272563576698,0.9999868869781494,0.9450799280023321,1.3300400952451297,0.009218784049153328,0.4248499274253845,0.8324698080330675,1.342966954455117,-0.012976993806660175,0.8164082169532776,0.9795794674916842,1.574137301579549,0.17441977560520172,0.47336772084236145,0.8609701702321324,1.5820427867317866,0.16093912720680237,0.8317164778709412,0.9826079897897623,1.0664646280808843,-0.20917531847953796,0.46197372674942017,0.7348460635408153,1.0929920750353301,-0.3031007945537567,0.997199535369873,0.008491575717926025,0.8537993370908808,1.0623036089033848,179.78390613217812,179.91781317907893,1.0,-0.012533110163113788,-0.012618200706679671,-0.15235382954026605,-0.01984134134800275,98.24012022073578,0.9395425422192849,4,0.13333333333333333
0.8335976726969694,0.5782990785846798,-0.4616755545139313,0.9999521970748901,0.9309255143489525,0.717914373319533,-0.1878269910812378,0.9999775886535645,0.7527919112498894,0.7356358754615709,-0.21746349334716797,0.9999967217445374,0.9108070612510538,1.0603951105802782,0.012370524927973747,0.999961256980896,0.8043016054586719,1.0707889534788342,-0.012584621086716652,0.9999875426292419,0.9493879506450779,1.3350692733568064,0.0015129806706681848,0.4815365672111511,0.8367161697335196,1.3481458978909333,-0.0182484220713377,0.8330921530723572,0.9817516929287108,1.5782990785846798,0.16904914379119873,0.525577187538147,0.8630329554800504,1.5879822166625233,0.15089836716651917,0.8478282690048218,0.9840670189483427,1.0710041725657844,-0.1942751109600067,0.5152495503425598,0.7379999011093534,1.097590039532167,-0.28754112124443054,0.9971522688865662,0.009207308292388916,0.8575543333548629,1.0655920320295562,179.5836691451529,179.59601650052804,1.0,0.0016775222569572136,-0.008437572605743696,0.10849422118543343,0.03219917532616478,98.93571244296535,0.9353625152874863,5,0.16666666666666666
0.8344354855631577,0.5805401639158133,-0.4787651002407074,0.9999567270278931,0.9302170951781571,0.7190846975019409,-0.19835712015628815,0.999979555606842,0.7524317034212029,0.7380013285499404,-0.224650576710701,0.999996542930603,0.9101659940080156,1.0622259793887923,0.011151094920933247,0.9999644756317139,0.8039113751986573,1.073082146755041,-0.011349325068295002,0.9999881386756897,0.9517016620671398,1.3380573219572054,0.006500992923974991,0.5326246619224548,0.836890284827655,1.3517960575237404,-0.013455535285174847,0.8482488989830017,0.9849657701493627,1.5805401639158132,0.18428094685077667,0.5725576877593994,0.8659821367233681,1.5915263693593038,0.16514678299427032,0.862337052822113,0.9850725830350898,1.0728369025297926,-0.2005004584789276,0.5631626844406128,0.7384846309882118,1.1001177643683595,-0.28647342324256897,0.9970378279685974,0.009806543588638306,0.8570386846033364,1.0676540630719167,179.2476905081237,179.8290153927174,1.0,-0.017566013432395198,-0.0021545612302052877,-0.14009629474320295,0.04586850109364356,99.17795427585875,0.9326021486254392,6,0.2
0.8359189675401582,0.581582361138404,-0.50166916847229,0.9999607801437378,0.9307756741359097,0.7203511167004817,-0.21997150778770447,0.9999812841415405,0.7528383730201422,0.7381475191434533,-0.23541390895843506,0.9999964833259583,0.9112084489903771,1.0625358950547816,0.010324319824576378,0.9999674558639526,0.8054516251576042,1.0737674044221095,-0.010510707274079323,0.9999887943267822,0.9510805548957918,1.3380956505733188,0.02057194523513317,0.5786304473876953,0.837881576094982,1.3523421717622575,-0.012616625055670738,0.8620906472206116,0.9869203200623667,1.581582361138404,0.1873003989458084,0.6149272918701172,0.8676450125657169,1.594164319353738,0.15413805842399597,0.8755228519439697,0.9865588642038675,1.075068898923442,-0.21722424030303955,0.6060394644737244,0.7400093969308273,1.102262980907344,-0.30477991700172424,0.997008204460144,0.00920894742012024,0.8583300370739906,1.0681516497384456,179.85980550645016,179.6234641376193,1.0,-0.002152481681725519,-0.011292438890130768,0.11970223826861155,-0.07078687120101387,99.33495439697785,0.929059383852921,7,0.23333333333333334
0.8354628693590133,0.5828137729666127,-0.47427448630332947,0.9999642968177795,0.930456683748264,0.7226814393458799,-0.19985948503017426,0.9999827146530151,0.7555928891041999,0.7389028944138929,-0.2286534309387207,0.9999963045120239,0.9121112361946397,1.0638947275400015,0.01135646365582943,0.9999701380729675,0.8067455640198463,1.0744233800810363,-0.011547721922397614,0.99998939037323,0.9530549584640893,1.3394106673121384,0.01825733669102192,0.6201646327972412,0.8387361904604341,1.351638237145035,-0.01741117611527443,0.8747521638870239,0.9877193390017328,1.5828137729666127,0.1784590184688568,0.6531392335891724,0.8689431612670376,1.5939127664307502,0.14355003833770752,0.8875054717063904,0.9869548492784472,1.0778461173612204,-0.2048552930355072,0.6445033550262451,0.7405315999365673,1.1042079273699024,-0.3067222237586975,0.9969117641448975,0.008386433124542236,0.859428400107243,1.069159053810519,179.6525855206603,179.47581550112315,1.0,0.002556594044655709,0.00036816037067661844,0.03687214222335336,0.09134464648070116,98.78389562083794,0.9296950381466766,8,0.26666666666666666
0.8340428913363507,0.5830128120353854,-0.4703262746334076,0.9999675154685974,0.9303046757414718,0.7226189181699575,-0.19826315343379974,0.9999840259552002,0.7533460325977752,0.7375283087049546,-0.22490568459033966,0.9999961256980896,0.9123886170842159,1.063512860411066,0.010846280492842197,0.9999725222587585,0.8062043150185139,1.0738385759720905,-0.011042686179280281,0.9999898076057434,0.9516444302765262,1.338558828832551,0.013099247589707375,0.65753573179245,0.8382917109438122,1.3512393077212483,-0.016380738466978073,0.8860195279121399,0.9874395527286564,1.5830128120353852,0.16368110477924347,0.6875361800193787,0.8683030151216212,1.5937734765391778,0.14334389567375183,0.8982329368591309,0.9850477945386017,1.0776552702321993,-0.2021872103214264,0.679172158241272,0.7393556935583013,1.1041566148110487,-0.30286234617233276,0.9968118071556091,0.007710874080657959,0.8592964660513649,1.0686757181915782,179.79210363699934,179.54422033492045,1.0,0.0013951043865369807,-0.000777628916593296,-0.00913748261219546,-0.009020066870301614,98.56264455922147,0.927693297636045,9,0.3
0.8335355847193412,0.5829846063444543,-0.47696051001548767,0.9999703168869019,0.9296438657952037,0.7228463192502768,-0.2068498581647873,0.9999852180480957,0.7530604136222685,0.7361533415753868,-0.2313912808895111,0.9999960064888,0.9113792903524045,1.062512461389484,0.012436708435416222,0.9999746084213257,0.804848897574014,1.0724887122769307,-0.012630228884518147,0.9999901652336121,0.9487690723671138,1.337553081992733,0.020377054810523987,0.691047191619873,0.8376762061343976,1.3504860395301903,-0.016649022698402405,0.8959366679191589,0.9847782634101248,1.5829846063444544,0.17349575459957123,0.7184406518936157,0.8675146236186821,1.593878372462936,0.14335912466049194,0.9077738523483276,0.9833888634631283,1.0778884414095766,-0.21687288582324982,0.7101633548736572,0.7388005825899298,1.1032922595188608,-0.3117973804473877,0.9966971278190613,0.006888061761856079,0.8581140939632093,1.0675005868332073,179.3947270146353,179.74534555601716,1.0,-0.003361777896378929,-0.001953764759615805,-0.03586237176405473,-0.008874202718025302,98.42792691132586,0.9234472271989611,10,0.3333333333333333
0.8333094078479772,0.5827518097879612,-0.488078773021698,0.9999729990959167,0.9287484470250342,0.7226218273727614,-0.21117624640464783,0.9999863505363464,0.7525362980298844,0.7348645030241334,-0.2372564822435379,0.9999959468841553,0.9104839137023182,1.0613526734874341,0.013435756787657738,0.9999764561653137,0.8047729876111248,1.0715996472108071,-0.013623008504509926,0.9999905228614807,0.947180756015802,1.335859442654524,0.024717431515455246,0.7212217450141907,0.8366004806232049,1.3497635346950128,-0.013844706118106842,0.9047933220863342,0.9823900564493778,1.5827518097879612,0.17691364884376526,0.7462555766105652,0.8660607602228516,1.5938186748932746,0.14341169595718384,0.9163615703582764,0.9816018099979684,1.0773913599328344,-0.21671755611896515,0.7382203340530396,0.7395411059304844,1.1030333046783694,-0.32821333408355713,0.9966461658477783,0.006341397762298584,0.8576284506567214,1.0664761603491206,179.49809721130924,179.64443124793993,1.0,0.000741293092202516,-0.002460018862505913,0.033000958310794255,-0.00408463002415078,98.62303402309568,0.9207131294630426,11,0.36666666666666664
0.8359423558226992,0.5845673943234655,-0.4840283989906311,0.9999753832817078,0.9302522883748896,0.7254741473117704,-0.2062034159898758,0.9999874234199524,0.7522717757567822,0.7364380474255667,-0.24901846051216125,0.9999958872795105,0.9126940945818586,1.062886852011354,0.016282258555293083,0.9999781847000122,0.8083239924787485,1.073362172789595,-0.01647051051259041,0.9999908208847046,0.9494673407451535,1.3371948987176248,0.026689574122428894,0.7483296394348145,0.8386324527800781,1.3515412755880243,-0.020132580772042274,0.9130017757415771,0.9820106898415152,1.5845673943234655,0.17859193682670593,0.7712584137916565,0.8675984005813385,1.5964016538269301,0.1273663341999054,0.9241836071014404,0.9835283577740194,1.0793256417870258,-0.2149011194705963,0.7637020945549011,0.740005881164964,1.106508681346448,-0.34404298663139343,0.9966734051704407,0.005669206380844116,0.8605090435303036,1.0681245124004743,179.85912170534516,179.47152759127127,1.0,0.010550594039176306,-0.0015013133607997677,0.07416012106669616,0.007281151069127646,98.7102712397659,0.9199640041707692,12,0.4
0.8382999742094361,0.5861992032221989,-0.4797547459602356,0.9999775290489197,0.9320059974458743,0.7288070557073294,-0.20043520629405975,0.9999883770942688,0.753923048321152,0.7372243940068708,-0.24882802367210388,0.9999958872795105,0.9135694088478428,1.0642533608671216,0.01727958396077156,0.9999797344207764,0.8085650526144239,1.074638376647611,-0.01746821030974388,0.9999911189079285,0.9509392953376212,1.3373838003518344,0.028471529483795166,0.7725751996040344,0.8396818382779867,1.3532997350018119,-0.02191457338631153,0.920034646987915,0.9811638856159348,1.5861992032221988,0.18588165938854218,0.7936922907829285,0.8685597098298983,1.597810670252838,0.12822440266609192,0.9310756921768188,0.984938114477209,1.0807632460284176,-0.21069078147411346,0.7866188883781433,0.7414848866660823,1.1085142159446395,-0.3393007814884186,0.9967365860939026,0.0043468475341796875,0.8610672307311333,1.0694458687573662,179.13513939547934,179.63585757025947,1.0,-0.0040822913947527245,-0.00037923748814015405,-0.109248865132082,0.008384032460903296,98.79412037673995,0.9189690807840316,13,0.43333333333333335
0.8396037936294418,0.5871212943884357,-0.46142634749412537,0.999979555606842,0.9323138015821268,0.7294597996625769,-0.17894797027111053,0.9999893307685852,0.755417853292601,0.7376225076234411,-0.2273230254650116,0.9999959468841553,0.913638277136978,1.0647796098886855,0.018221251666545868,0.9999812841415405,0.8095189850137404,1.074010107904211,-0.018416572362184525,0.9999915361404419,0.9518063708354109,1.3361013313469334,0.010262629017233849,0.7946093082427979,0.8416625501548255,1.3506420141133588,-0.03983117640018463,0.9266980290412903,0.9800663016410441,1.5871212943884359,0.15471605956554413,0.813956081867218,0.8699667267238403,1.598964256354639,0.09779699146747589,0.9374228715896606,0.9860453714310535,1.0813844788172542,-0.18506769835948944,0.807427167892456,0.7426177156801902,1.109624481700738,-0.29801514744758606,0.9967801570892334,0.004211544990539551,0.8615786310753591,1.0693948588964484,178.4158168170628,179.87477610039582,1.0,-0.0019779470945500057,-0.007539131679226834,0.015614412111659794,-0.053031469663333136,98.25397968868877,0.91524860841839,14,0.4666666666666667
0.840258166868489,0.5872758386407965,-0.4645121991634369,0.9999813437461853,0.9326137445577319,0.7294203695658202,-0.17983320355415344,0.9999901652336121,0.7569221952098797,0.7366329923923794,-0.22976355254650116,0.9999960064888,0.9141014827002893,1.0646688189238407,0.01841951161623001,0.9999826550483704,0.8102832290328246,1.0734121518566107,-0.018608657643198967,0.9999918937683105,0.952355138610292,1.3348992660448693,0.018641218543052673,0.8143152594566345,0.8418371178857655,1.3491992586498553,-0.040770404040813446,0.9326000213623047,0.9791877732688734,1.5872758386407964,0.168538898229599,0.8321750164031982,0.8704325967591352,1.5990720413011528,0.10083939880132675,0.9431045651435852,0.9860825838178608,1.0813736931623852,-0.185513436794281,0.8260471224784851,0.7433919773342823,1.110078248490955,-0.32625049352645874,0.9967682361602783,0.003720611333847046,0.862192355866557,1.0690404853902256,178.0116585733075,179.998517523165,1.0,0.003443921504980796,-0.00440440991844922,0.04216341751006463,0.02438717273468937,97.97459430468058,0.9136159933026609,15,0.5
0.841165157119681,0.5870324238504091,-0.4802122712135315,0.9999829530715942,0.932624959672726,0.7290513783190754,-0.19729752838611603,0.9999908804893494,0.7574699108713089,0.7354732421857513,-0.2446351945400238,0.9999960660934448,0.9146706362856797,1.0638885110087322,0.018713125959038734,0.9999838471412659,0.8114497398692255,1.0730774396303957,-0.018902845680713654,0.9999921917915344,0.9527403339459324,1.3345250277489193,0.023650944232940674,0.8321853876113892,0.8423528079769009,1.3493380839367621,-0.036245543509721756,0.9380617141723633,0.9791748079381982,1.5870324238504092,0.18105274438858032,0.8486180305480957,0.870712939993305,1.5990761046784836,0.11017074435949326,0.9482738971710205,0.9862675559029165,1.0806410888493967,-0.19996848702430725,0.8426650762557983,0.7434222425170343,1.110431023104026,-0.3354994058609009,0.9967775940895081,0.0033131837844848633,0.8630601880774527,1.068482975319564,177.9693031851616,179.90395883481105,1.0,0.007701972444006441,-0.0031129393000629496,0.03301089473673925,0.010006072813554983,98.15649484307505,0.9124162820127931,16,0.5333333333333333
0.8419251497986389,0.5868513892046802,-0.4743097424507141,0.9999843835830688,0.9324695786891805,0.7288370457969493,-0.19536897540092468,0.9999914765357971,0.7578064996551338,0.7350988665530377,-0.24471788108348846,0.9999960660934448,0.9149284992426688,1.0636005117060172,0.018847357481718063,0.9999848008155823,0.8123256213785511,1.0728485740246074,-0.019038503989577293,0.999992311000824,0.9529113112013339,1.3343902723417884,0.024061594158411026,0.8480686545372009,0.8430798437299583,1.3490777666207288,-0.036035455763339996,0.9423239231109619,0.9793816618040426,1.58685138920468,0.18922923505306244,0.8632890582084656,0.8709662161643175,1.5988298516275472,0.12811210751533508,0.9526472687721252,0.9863974929616167,1.0779152744338554,-0.19119133055210114,0.8576416373252869,0.743772585011121,1.1116133483634896,-0.3383890688419342,0.9967390298843384,0.003231346607208252,0.86362706031061,1.0682245428653123,178.00094558870504,179.98187196609481,1.0,0.006113042425797133,-0.00012963131469427425,-0.012723655380444232,0.023910024927452443,98.14987630683355,0.9122445068535564,17,0.5666666666666667
0.8427885420980069,0.5872168128985237,-0.47208428382873535,0.9999857544898987,0.9327252207513711,0.7288291791918385,-0.19261278212070465,0.9999920725822449,0.7585549260856258,0.7348329441512157,-0.24807938933372498,0.9999961256980896,0.9156015926479381,1.0639158777466595,0.020521489903330803,0.9999857544898987,0.8130244998455767,1.0733339945010638,-0.020710520446300507,0.9999924898147583,0.9537072650800682,1.334694329970716,0.04494451731443405,0.8623537421226501,0.8436418990038759,1.3494845404294151,-0.03565355762839317,0.9466599225997925,0.979671056154223,1.5872168128985238,0.21400496363639832,0.8765013813972473,0.8710884078101044,1.599217296009202,0.12763869762420654,0.9567070603370667,0.9869490226394882,1.0771910244690013,-0.19074498116970062,0.8712285161018372,0.7450276538120373,1.1126758619040487,-0.3416544198989868,0.9967759251594543,0.003097712993621826,0.8643130462467574,1.0686249361238616,177.85996930258688,179.94517085159003,1.0,0.004183273217930416,0.0018021457566021932,-0.014529162042139531,0.01453748903692352,98.1712934949271,0.9124329659990655,18,0.6
0.8435477421131828,0.5875545226175802,-0.4573975205421448,0.9999869465827942,0.9331476194363905,0.7289736733130655,-0.1755831241607666,0.9999925494194031,0.759419034790415,0.7350355778298214,-0.245973140001297,0.9999961853027344,0.9163965633626615,1.0643799509188827,0.023182379081845284,0.9999866485595703,0.8134768476155132,1.074065708930243,-0.023376695811748505,0.9999927282333374,0.9548197297701595,1.3351377776745457,0.04292941465973854,0.875174880027771,0.8443132009230574,1.3498031780523176,-0.042844582349061966,0.9506319165229797,0.9798699008919202,1.5875545226175802,0.20857100188732147,0.8884274363517761,0.8708075053097638,1.599602640902229,0.11366840451955795,0.9604076147079468,0.9875210222388087,1.0770138347088538,-0.18119429051876068,0.883206844329834,0.7461015075343784,1.1130336176127635,-0.33941584825515747,0.9968107342720032,0.0031267106533050537,0.8649367054890873,1.069222829924563,177.59065372929317,179.67328235251162,1.0,0.0026567169634395373,0.0019594890301154982,-0.011691356417384372,0.0011995704314057235,98.235385765634,0.9134520417255603,19,0.6333333333333333
0.8445382285499161,0.5880039875941515,-0.4333570599555969,0.9999879598617554,0.9337895533543057,0.7293543029665074,-0.15225836634635925,0.9999929666519165,0.7603426778022075,0.7354074958630213,-0.238042950630188,0.9999961853027344,0.9193068329289623,1.0656399066508926,0.027939414605498314,0.9999873638153076,0.816606107373673,1.0759305542580124,-0.02814066968858242,0.999992847442627,0.9588726744815249,1.3359608196443817,0.054054997861385345,0.8866785764694214,0.845064138199598,1.3507147330087883,-0.04457058385014534,0.9543333649635315,0.9803411423333392,1.5880039875941516,0.21227140724658966,0.899217963218689,0.871247697952924,1.6005592205368036,0.11094488948583603,0.9638049602508545,0.9886024967093792,1.0769784423870805,-0.1626432090997696,0.8943246006965637,0.7471044618320364,1.1141162081688794,-0.3381691575050354,0.9968908429145813,0.0031204819679260254,0.8679564701513177,1.0707852304544525,176.5415363307697,179.9300333556611,1.0,0.019560196091801468,0.007456614887233254,0.13022234598727117,0.04234449499078699,98.18797575352465,0.9177213540348371,20,0.6666666666666666
0.8464999376766646,0.5880939766519905,-0.46024757623672485,0.9999889731407166,0.935337631754884,0.7301695587854743,-0.1549505591392517,0.9999933838844299,0.7633112931502376,0.7342424870317743,-0.25815635919570923,0.9999963045120239,0.92052872851377,1.0657429091885409,0.029298225417733192,0.9999881386756897,0.818434375377958,1.075937688689968,-0.02948925457894802,0.999993085861206,0.9631996314713649,1.335520624167625,0.05280794948339462,0.8965325355529785,0.8454975610647277,1.3501948211274026,-0.048545848578214645,0.9572668075561523,0.9803205107599677,1.5880939766519904,0.2083672732114792,0.9087598919868469,0.8714539583180608,1.600505223713023,0.09763822704553604,0.9667472243309021,0.9897134120973872,1.0769643471208585,-0.16880173981189728,0.9034876227378845,0.7475593303120583,1.1143765018594092,-0.36259743571281433,0.9968804121017456,0.002099543809890747,0.8694815519458641,1.0708402989392545,174.8898590022821,179.71536512552026,1.0,0.011048755031900686,6.14225389558682e-05,-0.06324213411752323,-0.05494502991899892,98.22928160078149,0.9179503518369725,21,0.7
0.8528892523603095,0.5892129808082536,-0.46758636832237244,0.999989926815033,0.9372433631182544,0.7311392046267036,-0.1591780185699463,0.9999938011169434,0.7667642798165408,0.7351551379828316,-0.26222145557403564,0.9999964237213135,0.9239676312309435,1.0664318640259745,0.0296026561409235,0.999988853931427,0.8219217497698423,1.0771328758857928,-0.029794609174132347,0.9999933838844299,0.9676747672342634,1.3342876194946711,0.05032656714320183,0.905443549156189,0.8473488540981949,1.3499257162038254,-0.06159883737564087,0.9601250886917114,0.9810511767940454,1.5892129808082536,0.20000895857810974,0.9173445701599121,0.8726812438364596,1.601962861459765,0.07094120234251022,0.9694842100143433,0.9920298482957105,1.0784848166606902,-0.1630294770002365,0.9118234515190125,0.7498584202138998,1.1163556002548725,-0.35501202940940857,0.9969522953033447,0.0020672976970672607,0.8729446905003929,1.0717823699558837,173.7361472556569,179.5856168976517,1.0,0.016521293193365327,-0.003969550162106597,0.039933709648377856,-0.0294976317723356,98.25383694831349,0.9172205952177366,22,0.7333333333333333
0.8615305617360962,0.5920305583617188,-0.45191770792007446,0.9999908208847046,0.9437156177123629,0.7347747510000374,-0.1555822342634201,0.9999942183494568,0.7733179368637698,0.7387412734527956,-0.25878459215164185,0.999996542930603,0.9314438797986264,1.0707538289293055,0.03137879818677902,0.9999896287918091,0.8291922159396745,1.0817944427029553,-0.0315774604678154,0.9999937415122986,0.9765364412978181,1.3316622020162951,0.04889201372861862,0.9136203527450562,0.8525656554937541,1.3538922512426437,-0.07719031721353531,0.9630357027053833,0.9829656774621145,1.592030558361719,0.18917354941368103,0.9252045154571533,0.8770120307026454,1.6092153315884312,0.0406615324318409,0.9721632599830627,0.9993309424124099,1.0841221813185624,-0.14492402970790863,0.9199151992797852,0.7557301582536456,1.1220338931774512,-0.3508058190345764,0.997036874294281,0.002031862735748291,0.8803180478691505,1.0762741358161305,171.6089942182465,179.4404881238794,1.0,0.022740700950068842,-0.005785188576746222,0.0453596697867593,-0.013272938542302628,98.25444708326958,0.9200866082474397,23,0.7666666666666667
0.8691563627877643,0.5947760635467492,-0.4432256817817688,0.9999915361404419,0.9485171137807772,0.7378769632166438,-0.150745689868927,0.9999945759773254,0.7789072788498725,0.7418738470892471,-0.2465638816356659,0.9999966025352478,0.9373247755324285,1.074930850917447,0.030977442860603333,0.9999902844429016,0.8346083189944068,1.0863393174797558,-0.03117687627673149,0.9999939799308777,0.9817492230277678,1.3362081885344719,0.043868809938430786,0.9208611845970154,0.8563146949783267,1.3597524439765203,-0.07127821445465088,0.9652674794197083,0.9840993482086562,1.5947760635467492,0.1902547925710678,0.9321644902229309,0.8806343596808687,1.6140078024716922,0.06307058781385422,0.9744260311126709,1.0044114365591532,1.088307201127817,-0.14491480588912964,0.9270133972167969,0.7602756626371989,1.126855283951646,-0.33773273229599,0.9970220327377319,0.0020386576652526855,0.8859665472634176,1.0806350841986012,170.8711462011719,179.0754633048534,1.0,0.014091366562843256,-0.0019820842684053768,-0.0660270809544416,0.02889540115631658,98.23961344648033,0.9245728030684288,24,0.8
0.8830715028928456,0.597861644478481,-0.4254387319087982,0.9999922513961792,0.958090818782852,0.7417892708506316,-0.12159732729196548,0.9999948740005493,0.7884416463335583,0.7448272977626463,-0.2503962814807892,0.9999967217445374,0.9456479961963278,1.0806978027907106,0.040173113346099854,0.9999908804893494,0.843289727659021,1.091375952217719,-0.040372662246227264,0.9999942183494568,0.993011856693337,1.3403111184395216,0.04632292687892914,0.9269399642944336,0.8639220294193649,1.3670136585502823,-0.09243153035640717,0.9674546122550964,0.9887147503731448,1.597861644478481,0.20722226798534393,0.9382466673851013,0.8854196031626542,1.6223010842216274,0.04984770715236664,0.9764347076416016,1.0120053109959621,1.0941948708815066,-0.11051473766565323,0.9333885908126831,0.7680773850388071,1.1329399057740546,-0.34810787439346313,0.9971203207969666,0.0015413165092468262,0.8944688619276744,1.0860368775042148,168.70480453738722,179.46729557116348,1.0,0.028442860652726682,-0.002978116482968501,0.108234313318171,-0.007470930812872379,98.0582642591379,0.9287400392856582,25,0.8333333333333334
0.894099675526032,0.5985963494751024,-0.43165531754493713,0.999992847442627,0.963060325884187,0.7426441570760298,-0.12326173484325409,0.9999950528144836,0.7940909587717534,0.74335780086825,-0.25865066051483154,0.9999967813491821,0.9530388247531573,1.081883518147947,0.04241608828306198,0.9999912977218628,0.8495249839775932,1.0906997411282893,-0.04260712116956711,0.9999943375587463,0.9968617918880508,1.3420997631055753,0.065459705889225,0.9326285719871521,0.8667207093660495,1.3694420023602922,-0.09317904710769653,0.9696625471115112,0.9902152814649374,1.5985963494751025,0.23483788967132568,0.9438790678977966,0.887174005308568,1.6251767408744382,0.051077425479888916,0.978352427482605,1.0173581124583726,1.0946277542751088,-0.11291714757680893,0.9388522505760193,0.774932286239847,1.134994507738518,-0.35286909341812134,0.9971863031387329,0.00036135315895080566,0.9012819043653753,1.0862916296381182,168.95617593546203,178.9574260562245,1.0,0.03853982283578433,-0.014259566373257492,0.07646494705892798,-0.0858647561579461,96.56019304303194,0.9256469797580242,26,0.8666666666666667
0.9022548130217519,0.5994049675355658,-0.4447171688079834,0.9999933838844299,0.9705396687229018,0.7428828129913378,-0.13426798582077026,0.9999952912330627,0.7995394498708195,0.7427348093343331,-0.2771434187889099,0.9999969005584717,0.9569086556912122,1.0809253464485047,0.04225925728678703,0.999991774559021,0.8530415635646236,1.0875451356632406,-0.042453065514564514,0.9999945759773254,0.9985223800567695,1.3415586665336146,0.06065819784998894,0.9373962879180908,0.8688977004734879,1.3685354127483667,-0.10618959367275238,0.9715636372566223,0.9917432113563542,1.5994049675355657,0.22121557593345642,0.9489370584487915,0.8884846376506804,1.6260884177737127,0.02743580937385559,0.980078935623169,1.0229710988525915,1.0945350813757821,-0.11571905761957169,0.9430397748947144,0.7821215826170737,1.1365001007615498,-0.3641255795955658,0.9972696304321289,7.483363151550293e-05,0.9049751096279178,1.0842352410558727,169.4224565792222,178.88076657876223,1.0,0.01809052677121956,-0.027389312390532702,-0.15500133378763367,-0.09909540083549094,95.95582279189651,0.9153406962893939,27,0.9
0.9065040976291354,0.5994456405408866,-0.4256897568702698,0.9999938607215881,0.9759502286075512,0.741288957068089,-0.11229081451892853,0.9999954700469971,0.8060742810079717,0.7397236832518649,-0.2714306712150574,0.9999969601631165,0.9610539549660454,1.0811158915670918,0.04457723721861839,0.9999921917915344,0.857879574479423,1.0875703323963932,-0.044779520481824875,0.9999947547912598,1.0021324601030248,1.3423204438648269,0.06715049594640732,0.9418736100196838,0.8727565135644881,1.3684578168314858,-0.10166232287883759,0.9735279083251953,0.9916734082177995,1.5994456405408866,0.23407535254955292,0.9535114169120789,0.8885880374269856,1.6259019157951773,0.03348585590720177,0.9817137718200684,1.0296037995704428,1.0920466358932837,-0.09725042432546616,0.9471518993377686,0.7876951935471626,1.1364693119326517,-0.3606026768684387,0.9973506331443787,0.0007913708686828613,0.9094667647227342,1.0843431119817426,168.73321410343723,179.51281142237832,1.0,0.03137065458349577,0.0001518866222131534,0.09425569456381172,0.19551037902419094,96.0896235850772,0.9162633974582995,28,0.9333333333333333
0.9120556417772095,0.5997883216320664,-0.4086098074913025,0.9999942779541016,0.9786639568189331,0.7404775234361771,-0.0964307114481926,0.9999955296516418,0.812036316313114,0.7381959517189909,-0.2641579508781433,0.9999970197677612,0.9651390788053998,1.0809667399863419,0.0475037507712841,0.9999924898147583,0.8636654812261574,1.0868455944925905,-0.04771297425031662,0.9999948740005493,1.0026932471264791,1.3431641931860383,0.06678436696529388,0.9458680152893066,0.8773672293761671,1.3670912276832587,-0.10174304246902466,0.975153923034668,0.9916458476390784,1.5997883216320663,0.2281758040189743,0.9576396942138672,0.8884781630212225,1.6243701469377685,0.03955081105232239,0.983090877532959,1.0342245776879235,1.0907947315684785,-0.10020367801189423,0.9500303268432617,0.7937801474145694,1.1351163485469744,-0.35800880193710327,0.9974493384361267,0.001153707504272461,0.9144022800157786,1.083906167239466,169.3840414870708,179.67378617257373,1.0,0.039940987070653425,-0.002022621397517301,0.06734497983667882,-0.01707656989638417,95.59041552291077,0.9155169892748027,29,0.9666666666666667
0.9201807461459842,0.5999099711065952,-0.35981330275535583,0.9999945759773254,0.9828687557188915,0.7404345479454542,-0.059372566640377045,0.9999955892562866,0.8178941089066722,0.7374410695592839,-0.23491840064525604,0.999997079372406,0.9685518867818891,1.0809562251891602,0.05159636586904526,0.9999926686286926,0.8672993795455721,1.0867501113574196,-0.051810212433338165,0.9999949336051941,1.0046675231080642,1.347518247116936,0.05707152560353279,0.9495725631713867,0.879434008455738,1.367516849182037,-0.10706299543380737,0.9765233397483826,0.991591056186964,1.5999099711065952,0.20813381671905518,0.9612433910369873,0.8877650403827559,1.6239247481978603,0.038103170692920685,0.9842067360877991,1.035890269418359,1.0902213746603437,-0.057254791259765625,0.9534617066383362,0.8025834214114829,1.1336708650682825,-0.34473946690559387,0.9975569844245911,0.001513749361038208,0.9179256331637305,1.08385316827329,169.3183072094092,179.3861998981798,1.0,0.027776619365002083,-9.709128189607202e-05,-0.09496458799914018,0.015033453555412038,95.68253798927918,0.9156776386429585,30,1.0
0.926296722409351,0.5998048277382655,-0.2944070100784302,0.9999948143959045,0.9858360465797305,0.7388062603606457,-0.0052345870062708855,0.9999954104423523,0.8244549712656513,0.7361097673688524,-0.1816670000553131,0.999997079372406,0.9731291091261829,1.0807547917783478,0.051885105669498444,0.9999926686286926,0.872869759341359,1.0856719260575003,-0.05211583524942398,0.9999948740005493,1.0073603817749504,1.348377891302885,0.012836858630180359,0.9528614282608032,0.8816337150949282,1.3661806136507217,-0.10346827656030655,0.9773070216178894,0.9913135262909245,1.5998048277382655,0.13142848014831543,0.9643694162368774,0.8877239805572509,1.622398474069205,0.03203977271914482,0.9850144982337952,1.0374290715223495,1.0863357380067518,-0.026848604902625084,0.9550126194953918,0.8110625975964422,1.1310196036053957,-0.29341623187065125,0.9976784586906433,0.0013638734817504883,0.922999434233771,1.083213358917924,169.05911786204035,179.572142284821,1.0,0.042828943889196384,-0.0032283772166332896,0.12217845092748358,-0.025406096178082847,94.9359265933454,0.915310020232319,31,1.0333333333333334
0.9371660255535595,0.5997124711993987,-0.31199586391448975,0.9999950528144836,0.9881409982228877,0.7367132519410727,-0.01538916490972042,0.9999952912330627,0.833255035288911,0.7336471971421037,-0.20711806416511536,0.9999971389770508,0.9777069148072501,1.0803277842466457,0.057125866413116455,0.9999927878379822,0.8785186104259296,1.0843991647265956,-0.05733808875083923,0.9999949336051941,1.0095140666649227,1.3484247658894364,0.02610110305249691,0.9555489420890808,0.8838840590366077,1.3666211371491876,-0.10327380895614624,0.9780761003494263,0.9921025611296223,1.5997124711993989,0.16554930806159973,0.9670045971870422,0.8876437791290523,1.6220067346922904,0.03878660500049591,0.9856880307197571,1.040448569437581,1.082750133678151,-0.038877829909324646,0.9561967253684998,0.821663861134029,1.130242463533378,-0.3155297636985779,0.9977922439575195,0.0015509724617004395,0.9281127626165898,1.0823634744866206,169.27038898706562,179.75428799943452,1.0,0.03915274161558424,-0.005452554026940846,-0.027546003132973527,-0.01669075065942279,94.08978923567156,0.9131847842720697,32,1.0666666666666667
0.9438713808025304,0.5982852075768689,-0.31592345237731934,0.999995231628418,0.9904714078995028,0.7346239830325654,-0.014322693459689617,0.9999951124191284,0.8390062153018591,0.7315163615178517,-0.2167011797428131,0.9999971985816956,0.9813162669078842,1.0792489961736558,0.06081570312380791,0.999992847442627,0.8840194281644613,1.0829152647787776,-0.06100090220570564,0.9999949932098389,1.0086795614761532,1.3493807494660173,0.06521492451429367,0.9573848247528076,0.8873731344284566,1.3653689044534045,-0.1057433933019638,0.9790590405464172,0.9912499605105456,1.5982852075768688,0.2214454710483551,0.9693405628204346,0.8863732643833242,1.620349296799445,0.03843192011117935,0.9864346385002136,1.04170056974826,1.08046230046942,-0.056658316403627396,0.9564082622528076,0.8275590093050391,1.1292394392844565,-0.3265485167503357,0.9979044795036316,0.0015742778778076172,0.9326678475361728,1.0810821304762166,170.2102766934343,179.0950556976415,1.0,0.04665030219361008,0.0022570362984027496,0.059744906975396285,0.060911164604605765,93.67969085696478,0.9141619183573658,33,1.1
0.9452019313300181,0.5982887868745165,-0.31915539503097534,0.9999955296516418,0.9894683364800434,0.7336227671817773,-0.015015782788395882,0.9999951720237732,0.8386042195771207,0.7303538091647901,-0.22058065235614777,0.9999972581863403,0.9833003969062798,1.0785559645377416,0.06208210438489914,0.9999929666519165,0.8870237059992491,1.0816871584843977,-0.062275230884552,0.9999950528144836,1.0100655930943057,1.3497023379220994,0.059549711644649506,0.9595550298690796,0.8891649263961365,1.3641415876110135,-0.10988811403512955,0.9800060987472534,0.9907671037267062,1.5982887868745164,0.20915324985980988,0.9715535640716553,0.8852040330549136,1.61984815860453,0.020172595977783203,0.9871994853019714,1.0432643831214095,1.0775762175017263,-0.04559434950351715,0.9581906199455261,0.8289415746339202,1.1275936260843338,-0.3404836356639862,0.9980236291885376,0.0016576051712036133,0.9351620514527644,1.0801215615110697,169.9233909204126,178.67822220317916,1.0,0.025760089090051896,0.0006122994418293218,-0.15828479582632662,-0.012472498164665283,92.88719445192555,0.9111097729870665,34,1.1333333333333333
0.9490225938033656,0.5979939366111798,-0.29798445105552673,0.999995768070221,1.0005484714428772,0.7325604708275361,-0.004669134970754385,0.999995231628418,0.8442281166416719,0.7303410241949122,-0.20351159572601318,0.9999973177909851,0.9893529317955135,1.0783797070031942,0.06161419302225113,0.9999930262565613,0.8921421564646709,1.081065418998924,-0.061817415058612823,0.9999949932098389,1.0101082335000529,1.3476998691871518,0.04781823977828026,0.9611266255378723,0.8939400545509909,1.3612079910185597,-0.10919696092605591,0.9808278679847717,0.9898178456648133,1.5979939366111797,0.1676820069551468,0.9735046625137329,0.8850372360047821,1.6179471561220966,0.00409172335639596,0.9878931641578674,1.0480204552700796,1.0696411830953274,-0.05677739903330803,0.9602966904640198,0.8375786495944402,1.126808078360316,-0.3234160542488098,0.9981274008750916,0.0011256635189056396,0.9407475441300922,1.079722563001059,170.95856452126006,177.64627042101955,1.0,0.0440092930455963,-0.001292589389468957,0.1388993514748018,-0.01449326701444436,93.43679304990377,0.9120496365443368,35,1.1666666666666667
0.9593268417411382,0.5967072907825935,-0.2659638524055481,0.999995768070221,1.0127581297939565,0.7341731040109191,0.023979047313332558,0.9999945759773254,0.8598102824979228,0.7297877684275095,-0.15966081619262695,0.9999973177909851,1.0024398658032712,1.0763564451487544,0.05963365361094475,0.9999929070472717,0.9089349649361025,1.0779493620113165,-0.05982862785458565,0.9999949336051941,1.0092136960321034,1.337969731996376,0.045920781791210175,0.9611983895301819,0.9014318991054021,1.3567785035364492,-0.10463885962963104,0.9810214638710022,0.9889853192385749,1.5967072907825934,0.15342360734939575,0.9749921560287476,0.8847022210657678,1.6148212894289782,0.0027485426981002092,0.9882980585098267,1.054547597990337,1.0636217993126715,-0.06141166016459465,0.9570624828338623,0.8503756024222293,1.1253239024889707,-0.27306923270225525,0.998173713684082,0.0022260844707489014,0.9556874153696868,1.0771529035800353,174.04644702734484,177.83194739250726,1.0,0.11832692589141734,-0.012304308499904593,0.5585615154336686,-0.08272873551831399,92.70316137247914,0.9083282013511308,36,1.2
0.9655890520215265,0.5946261284448071,-0.2812270224094391,0.9999956488609314,1.019707479911813,0.7341242505361901,0.015230285003781319,0.9999938011169434,0.8678924022778995,0.7273605148080206,-0.1641702651977539,0.9999973177909851,1.0054249133185185,1.0745615785174323,0.059452980756759644,0.9999927878379822,0.9120162046482173,1.0761633912138193,-0.05963478609919548,0.9999949336051941,1.0068912231218954,1.3376239462397537,0.04576637223362923,0.9629696607589722,0.9021866867120457,1.352416462407952,-0.0946405678987503,0.981724202632904,0.9862661148102673,1.5946261284448071,0.1607753038406372,0.976678729057312,0.8824895040839846,1.6095573068998938,0.024598028510808945,0.9888855218887329,1.0549911226882744,1.0614228295227337,-0.063289575278759,0.9552283883094788,0.8578159835608545,1.1201905980416673,-0.28402021527290344,0.998257577419281,0.0034452974796295166,0.9587205589833679,1.0753624848656258,175.09233143008373,177.65746827203066,1.0,0.04659637104342521,0.014180371542789614,-0.5249253548853917,0.194612433270942,93.38479095635114,0.9117986779460162,37,1.2333333333333334
0.9733506079645604,0.597379766873336,-0.24163386225700378,0.9999954104423523,1.0205967282768749,0.7368210674721338,0.037463463842868805,0.9999929666519165,0.8786343682155379,0.7285257172146696,-0.16486795246601105,0.9999972581863403,1.0111215008632726,1.0764769806769554,0.06050019711256027,0.9999927282333374,0.9220600232108326,1.0777276961646112,-0.060686368495225906,0.9999949336051941,1.0087174506216108,1.339618824152836,0.05874759703874588,0.9640485048294067,0.9126069437619232,1.350330704854289,-0.09817975014448166,0.9825736284255981,0.9874618496913729,1.597379766873336,0.1674395352602005,0.9782973527908325,0.885970149113809,1.6114875516426963,-0.009257370606064796,0.9895705580711365,1.0614654652001276,1.0638676404818155,-0.01770639605820179,0.95463627576828,0.8701071674387889,1.1202686630146743,-0.29268285632133484,0.9983246922492981,0.004219323396682739,0.9665907620370526,1.0771023384207834,175.80935193432012,176.16228901315313,1.0,0.05182374891385499,0.0013911345552482886,0.04130143759963673,-0.10254188696445535,92.40250795028321,0.9083479846816418,38,1.2666666666666666
0.9805034998617741,0.6031095484309916,-0.2744428217411041,0.9999951720237732,1.0309743675854959,0.7416618484552268,0.012000035494565964,0.9999922513961792,0.8880799154017318,0.7310345026271158,-0.17906466126441956,0.9999972581863403,1.01969240350025,1.0811907725988814,0.05976909399032593,0.9999926090240479,0.9305783041377353,1.0815247255089342,-0.05996902659535408,0.9999949336051941,1.0138946752501972,1.3437911157472555,0.055067867040634155,0.9640344977378845,0.9230126244783015,1.349300985995967,-0.10374244302511215,0.9828363656997681,0.9875707195262384,1.6031095484309916,0.1536012887954712,0.9795566201210022,0.8934146367562449,1.6155963299515899,-0.011704185046255589,0.9900128841400146,1.0669699053161188,1.0713986618130609,-0.036695513874292374,0.951702356338501,0.8829827827284729,1.1234834392869495,-0.3042183518409729,0.9983879327774048,0.0053868889808654785,0.9751353538189926,1.081357749053908,175.46842026183796,175.27615374723578,1.0,0.03806775302190063,0.003955621058218568,-0.10178133422020844,0.018696415460613645,92.11785383316607,0.9038915485490592,39,1.3
0.9859263316100391,0.603853230079272,-0.3189239203929901,0.9999942183494568,1.0400001789090478,0.7412270712459379,-0.03184562548995018,0.9999914765357971,0.897160254366293,0.7313993736064662,-0.20511722564697266,0.9999971985816956,1.0246248294920266,1.0884578122460182,0.05761076882481575,0.9999926090240479,0.9380139000559915,1.0859210702715898,-0.05781003087759018,0.9999949932098389,1.0172657824557785,1.3467802315389108,0.07511882483959198,0.9634373188018799,0.9297776101682487,1.3516217222420552,-0.09046841412782669,0.9827920794487,0.9877773340362576,1.603853230079272,0.2200462520122528,0.9804590344429016,0.8985157258110553,1.616908176225883,0.01048306468874216,0.9903424978256226,1.073241833125646,1.0731171853086952,-0.0607282929122448,0.9500341415405273,0.893857499178725,1.119650133940494,-0.34566357731819153,0.9984291195869446,0.004976719617843628,0.981319364774009,1.0871894412588041,175.0880814923295,175.05465485355606,1.0,0.0382904174554492,0.03495934715807962,0.001357694101564101,0.22668151437215933,90.8577435237736,0.9214123975453486,40,1.3333333333333333
0.9965394805957145,0.6102328684541445,-0.334305077791214,0.9999935626983643,1.0428988992416988,0.7441167386070936,-0.03835432976484299,0.9999907612800598,0.9071066822412114,0.7334750856556599,-0.24155299365520477,0.9999971389770508,1.0354632287885321,1.0932871552340475,0.061333995312452316,0.9999922513961792,0.9521278457580848,1.0903743779661974,-0.06153523921966553,0.9999948143959045,1.0263479103850348,1.3513606165362784,0.07781167328357697,0.9609445333480835,0.9445820829195507,1.3513110690502752,-0.09513455629348755,0.9824056029319763,0.9923701601625441,1.6102328684541445,0.20438897609710693,0.981121301651001,0.9085676235677643,1.6180111142460967,0.005088967736810446,0.990487813949585,1.081876451983756,1.0794984091591189,-0.0606020987033844,0.9484367966651917,0.9121439114417325,1.1250771297082232,-0.3723476529121399,0.9985032677650452,0.005363911390304565,0.9937955372733084,1.0918307666001226,174.54538512801722,173.9658689975905,1.0,0.05968612819280739,-0.003204953961002655,0.1602251928130873,-0.2894328047436579,89.21812947123178,0.9189419394870043,41,1.3666666666666667
1.011300626925699,0.6094129319463669,-0.3314327001571655,0.9999904036521912,1.049716396386382,0.738249267266177,-0.05092061311006546,0.9999900460243225,0.9133528137747454,0.7331537443186152,-0.282560795545578,0.9999970197677612,1.0369569831883634,1.0931790271092299,0.06913185864686966,0.9999918937683105,0.9580186238853784,1.0886049469362946,-0.0693114846944809,0.9999945759773254,1.0261997352283996,1.3505774657963932,0.11064711958169937,0.945672333240509,0.948929708993661,1.3511474520020175,-0.0905861109495163,0.9785404801368713,0.9898038100384977,1.6094129319463668,0.23438718914985657,0.9788179397583008,0.9156635638683143,1.6181488574555556,0.00776514271274209,0.9892929792404175,1.0852322132079522,1.0814050278223037,-0.08943062275648117,0.9472768902778625,0.9218801976504033,1.124800371791832,-0.4173770546913147,0.9985530376434326,0.0025683343410491943,0.9974878035368708,1.0908919870227622,174.38900585275132,174.88074285080697,1.0,0.027094056695546848,-0.007110659388444723,-0.2406197214229589,-0.028833210339326967,88.74255293094845,0.9178252933551857,42,1.4
1.0260157828925582,0.6053732997042492,-0.2476894110441208,0.9999849200248718,1.0420537367722331,0.7349399679793044,0.004353368654847145,0.9999895691871643,0.9179025205650564,0.7313640955533799,-0.27940377593040466,0.9999969601631165,1.0358375313650512,1.0904384683437873,0.08362793177366257,0.9999918937683105,0.9643459193078943,1.085799112900971,-0.08376608788967133,0.9999945759773254,1.025126607508642,1.3474645406365655,0.12157686054706573,0.9327187538146973,0.9587041327602437,1.3487380776233475,-0.0882718488574028,0.9758238792419434,0.9870060295694171,1.6053732997042491,0.23779520392417908,0.976577877998352,0.9203414707175563,1.6074946029519868,0.01764143817126751,0.9882609248161316,1.0845265197118632,1.0796617145995944,-0.03111412189900875,0.9358336925506592,0.9324927477996832,1.1228497782016478,-0.4115625321865082,0.9985969662666321,0.0018066465854644775,1.0000917253364727,1.088118790622379,173.9784681174198,172.7960720980551,1.0,0.03728977586588494,-0.0014505691345159963,0.07708545467768287,0.04239986980515047,87.28883605471053,0.9289949672553076,43,1.4333333333333333
1.0314164961928751,0.6069956714865935,-0.26932427287101746,0.9999857544898987,1.0440251483173668,0.7406520855094767,0.024640493094921112,0.9999890923500061,0.9249131536071487,0.7319527687926498,-0.2810599207878113,0.999997079372406,1.0409112883625096,1.0990069846264978,0.09490251541137695,0.9999918341636658,0.9712266227938446,1.0940099245426445,-0.09505091607570648,0.999994695186615,1.029613386998985,1.3496325473967345,0.1395782232284546,0.9017682671546936,0.9734163656611887,1.3587437772267097,-0.09615987539291382,0.9735924005508423,0.9883832114988375,1.6069956714865934,0.26309651136398315,0.9707914590835571,0.9269026691367278,1.6079233324207929,0.026364225894212723,0.9867316484451294,1.089289520756753,1.0858119440036784,-0.03657488897442818,0.9147483706474304,0.9441791579879338,1.1284546967929074,-0.42364072799682617,0.9986492991447449,0.004389464855194092,1.0060689555781772,1.0965084545845711,173.4794974104467,168.95252614416617,1.0,0.03379244154179625,0.050399254292012044,-0.025625860127474184,0.3747315728091953,86.39621180493668,0.9550424984245859,44,1.4666666666666666
1.034095160533534,0.6069012986959299,-0.27656471729278564,0.9999865293502808,1.0435067418149024,0.7427104449335031,0.014471113681793213,0.9999892115592957,0.9251851810293127,0.7316185109865465,-0.2991594672203064,0.9999972581863403,1.0417515637591166,1.1009878782277307,0.09779808670282364,0.9999918937683105,0.971762657641949,1.0965447737240632,-0.09792881458997726,0.9999948740005493,1.032147101874444,1.3513849341114308,0.1492685228586197,0.8691526055335999,0.9744244217789721,1.3689426203828023,-0.11067768186330795,0.9721731543540955,0.9883713548090668,1.60690129869593,0.27927035093307495,0.9613733887672424,0.9281864646361445,1.6086319089835057,0.014867126941680908,0.9848533272743225,1.0898720261410504,1.0878321926939827,-0.043055735528469086,0.8970117568969727,0.9472059331160227,1.132551672778588,-0.43062466382980347,0.9987146258354187,0.0055973827838897705,1.0067571107005329,1.098766325975897,172.47492902078696,168.52145984996758,1.0,0.0060789361016646785,0.01798389929450727,-0.2087326408707679,-0.2441363669406992,86.64825355896927,0.9634632285695025,45,1.5
1.0363423621970513,0.6011322298905443,-0.19047300517559052,0.9999861717224121,1.0318043333885303,0.7360581748954114,0.05577077716588974,0.9999895691871643,0.9262722433614013,0.7256822254712653,-0.28747886419296265,0.9999974370002747,1.0394375052151612,1.0966423953504711,0.1095108613371849,0.9999915361404419,0.9773107386363035,1.0929879869754253,-0.10960737615823746,0.9999948740005493,1.034491207988456,1.345323879018381,0.1815708428621292,0.8003517389297485,0.9834245258337168,1.3636055715163518,-0.07152526080608368,0.9619521498680115,0.9834091672206948,1.6011322298905444,0.3065604269504547,0.9153181314468384,0.9331924460103561,1.6029472531091187,0.03509581834077835,0.9763637185096741,1.085479802482352,1.0843226692775132,0.04240662604570389,0.8713478446006775,0.9511807360388737,1.1286589247487984,-0.42585936188697815,0.998794436454773,0.005254924297332764,1.0083741219257323,1.0948151911629482,169.8466859119025,166.85281950514374,1.0,0.040774381082907325,-7.158391421069056e-05,0.27072272846641754,-0.14029228323984325,85.42093037284042,0.9701435506258058,46,1.5333333333333334
1.0343795931808253,0.5982330230515045,-0.17732319235801697,0.9999869465827942,1.026003710787871,0.7307608759884205,0.0635112002491951,0.9999902248382568,0.9312392863717656,0.7236874582865315,-0.2794420123100281,0.9999976754188538,1.0348575101395816,1.0944836423287339,0.11293866485357285,0.9999917149543762,0.9797327025017449,1.0907970557589757,-0.11300178617238998,0.9999951124191284,1.0241218833922565,1.3429221003580971,0.21472778916358948,0.7321194410324097,0.9892191426653786,1.361863965425504,-0.07953238487243652,0.9585781097412109,0.972816475775966,1.5982330230515045,0.35416120290756226,0.8626290559768677,0.9375669867934909,1.615187796811044,0.0013324462343007326,0.9716417789459229,1.085364333555492,1.0822888885834356,0.045628029853105545,0.8438079357147217,0.9592067682815866,1.12662637737418,-0.43556395173072815,0.9988476037979126,0.0035887062549591064,1.0072951063206632,1.0926403490438548,171.11194329535684,166.47115120560906,1.0,0.005506982225725974,-0.001833754868801481,-0.2740607273219367,-0.013722808747379231,84.77949456278934,0.9582797235936592,47,1.5666666666666667
1.0418988422327748,0.5968964090068266,-0.1770385205745697,0.999987781047821,1.026182543996557,0.7299217195446109,0.061222486197948456,0.9999908208847046,0.9396268318071953,0.7212116332670487,-0.2828962206840515,0.9999978542327881,1.0331346516666733,1.0929776330406558,0.11448763310909271,0.9999918341636658,0.9796944609942408,1.089048793207365,-0.11452963203191757,0.9999953508377075,1.0228554236585847,1.3374657586456982,0.21370311081409454,0.6679925918579102,1.004237328168271,1.3532373347992739,-0.09282991290092468,0.9557164907455444,0.972949674854938,1.5968964090068265,0.34734225273132324,0.8085505366325378,0.9534123932738628,1.6155625059158227,-0.03935707360506058,0.96696537733078,1.0848064771166146,1.0800066873370087,0.046460818499326706,0.8297606706619263,0.9739736073177635,1.1241059075604172,-0.4446161389350891,0.99891597032547,0.004423558712005615,1.006414556330457,1.0910132131240105,171.51874605569589,163.72743193703354,1.0,0.0011157772682445213,-0.004101310582339662,-0.03466588531001304,-0.017938471499351436,84.69825292961545,0.9581461085414233,48,1.6
1.0463971627474622,0.5971890748585813,-0.1746538281440735,0.9999884963035583,1.026724538401596,0.7291997716256897,0.07216110080480576,0.9999911785125732,0.943507948243298,0.718568705579858,-0.28463271260261536,0.9999980330467224,1.0326117998403916,1.0893884387736552,0.11770514398813248,0.9999915957450867,0.9810378160990267,1.0845715351291076,-0.1177501529455185,0.9999954700469971,1.0259641909833013,1.3341157963908217,0.2036626785993576,0.6072002649307251,1.0181987833501882,1.346498479774876,-0.11593036353588104,0.9502443075180054,0.9739209642637887,1.5971890748585813,0.3253893554210663,0.7496286630630493,0.9702585556992355,1.6162441444441678,-0.0622931607067585,0.9579975605010986,1.0848355136613588,1.0737467713123914,0.06515049934387207,0.7998066544532776,0.98421700773288,1.1209315248142169,-0.452522337436676,0.9989897608757019,0.005396157503128052,1.006824807969709,1.0869799869513814,170.36574576587068,161.84743417388825,1.0,-0.0011529196700128471,-0.035752498144443916,-0.017485070873903958,-0.24385451734219865,83.7277590515419,0.9433457563361913,49,1.6333333333333333
1.0578402526078865,0.6025118463053406,-0.1721048206090927,0.9999886155128479,1.0324745489718097,0.7329251759125597,0.06959004700183868,0.9999913573265076,0.9532525295248921,0.7209360729084745,-0.28385621309280396,0.9999982118606567,1.0373702665524915,1.0951066663141964,0.11693166196346283,0.9999910593032837,0.9874707441811722,1.0901655131133101,-0.11696361005306244,0.9999954700469971,1.034569072055937,1.341173475794262,0.21622979640960693,0.5511409044265747,1.0352088291913357,1.3536257860952368,-0.0966842770576477,0.9410250782966614,0.9836463041132336,1.6025118463053405,0.3446841835975647,0.6925483345985413,0.9881997793599077,1.626564873568601,-0.03330737724900246,0.9463286995887756,1.0910277277658138,1.078233057116233,0.042697444558143616,0.7619832158088684,0.9962913912599333,1.1242395139309151,-0.47264498472213745,0.9990394115447998,0.006055235862731934,1.0124205053668318,1.0926360897137533,169.62608239015265,159.95730280562344,1.0,0.004517453204001773,0.0018128974972093177,0.04516687877388499,0.3003412253735479,83.57045227223459,0.9419181608601445,50,1.6666666666666667
1.1232860851613686,0.646889406353701,-0.17703375220298767,0.9999814629554749,1.0806287740786475,0.7745390325906033,0.0653417557477951,0.9999905824661255,1.0149307895497588,0.7598530489862317,-0.2929556667804718,0.9999983310699463,1.094484041181606,1.1587861946683138,0.11981050670146942,0.9999913573265076,1.0541286553914793,1.1539592709104403,-0.11982700973749161,0.999995768070221,1.0943043086533344,1.4123656853757738,0.2714136242866516,0.504081666469574,1.1092293527574362,1.4328483240441343,-0.14826655387878418,0.9450470209121704,1.036859719261288,1.646889406353701,0.4648010730743408,0.6591047048568726,1.0528092013062396,1.7222228155019368,-0.1100464016199112,0.9499762654304504,1.1393748318130072,1.1413185410589843,0.03148632124066353,0.7029613256454468,1.063467377703037,1.18650946877547,-0.46415814757347107,0.9990074038505554,0.007008373737335205,1.0743063482865427,1.156372732789377,166.27747216165315,157.79118058069758,1.0,0.020897856021216972,-0.0001556421024256933,0.11990166329981501,-0.015432041317788017,81.11414437829737,0.9675338794141015,51,1.7
1.126375069895743,0.6477223263380549,-0.1948738396167755,0.9999791979789734,1.078973164351804,0.7708951904533474,0.05709713697433472,0.9999904036521912,1.0204536358080936,0.7577724035057083,-0.31328901648521423,0.9999984502792358,1.0912948367466315,1.153305758157882,0.12006201595067978,0.9999916553497314,1.053799497244933,1.1548371608285015,-0.12008517980575562,0.9999960660934448,1.096047841129549,1.4201644987750217,0.2743249237537384,0.46180805563926697,1.1194525992519553,1.4356056626861,-0.13515309989452362,0.9479812979698181,1.0433520975417658,1.647722326338055,0.46094489097595215,0.6294152140617371,1.0636418690095117,1.7251142217041353,-0.07743929326534271,0.9524807333946228,1.1322902034339184,1.143484534215769,0.02555869147181511,0.6466223001480103,1.075624550569668,1.1889113082224423,-0.4683089852333069,0.9989949464797974,0.0062506794929504395,1.0725471669957822,1.1540714594931918,165.94140389817497,155.9273173103906,1.0,-0.029205350044108278,-0.03459282936459147,-0.38820274030460844,-0.26661081584803337,90.49330982696034,0.9559078061606883,52,1.7333333333333334
1.1204559602076956,0.6437741401508185,-0.1624087691307068,0.9999750852584839,1.0645287535501704,0.7602364784914803,0.07668401300907135,0.9999902844429016,1.0158989944918662,0.7483989068716288,-0.299151748418808,0.9999985098838806,1.0784205777600917,1.1420892572626322,0.12342153489589691,0.9999919533729553,1.04548144761659,1.1443008230719438,-0.12344517558813095,0.9999963045120239,1.0917618057026661,1.394287656774316,0.2554566264152527,0.4219907522201538,1.1185657202957315,1.4200727573638994,-0.17988379299640656,0.9508793354034424,1.043252512839854,1.6437741401508186,0.42755240201950073,0.5871578454971313,1.07414942460643,1.7165169885560216,-0.1717727780342102,0.9542208313941956,1.1209396859504595,1.1328052960462958,0.021277563646435738,0.6020540595054626,1.0736625972623406,1.1771032346290067,-0.455929696559906,0.9988008141517639,0.0056871771812438965,1.061951012688341,1.143195040167288,165.96878566947228,156.6356084558957,1.0,-0.010702103237737992,-0.0075480852490369624,0.13790316261495725,0.20208561832689684,91.75762583462291,0.9364454241627912,53,1.7666666666666666
1.1041608224150816,0.6359610145966474,-0.13544811308383942,0.9999740123748779,1.045042966307216,0.746326251086741,0.09496544301509857,0.9999901056289673,1.00575281790034,0.7367918490612083,-0.2835727632045746,0.9999985694885254,1.0568574348336714,1.123162271403078,0.12409880012273788,0.9999922513961792,1.0355621310800298,1.1237417445815474,-0.1241438239812851,0.9999964833259583,1.0741142412641276,1.3702180803196926,0.22691063582897186,0.3884037733078003,1.1064081875448042,1.3944827417903392,-0.20179450511932373,0.9536308646202087,1.0295215289111237,1.6359610145966474,0.3275846540927887,0.5594558715820312,1.0718413739456705,1.6961620426154995,-0.22404396533966064,0.9564036726951599,1.097309153028385,1.1188991351829538,0.02345959283411503,0.5566167831420898,1.0667136037094094,1.1554035050257006,-0.4531581997871399,0.998572587966919,0.004657387733459473,1.0462097829568506,1.1234520079923127,166.4786787134727,158.79942552936507,1.0,0.014088069765568858,-0.007292354009857973,0.1975971186865754,0.0010546481287255906,89.7629740333657,0.9047111537368568,54,1.8
1.089341496503983,0.6245568053278123,-0.13311532139778137,0.9999647736549377,1.0161496911821684,0.7281923271153932,0.09710665047168732,0.9999886155128479,0.9960381473089246,0.7225103549036002,-0.2832741141319275,0.9999984502792358,1.0320633157522885,1.1065946311639117,0.12494383752346039,0.9999920725822449,1.0320894654074848,1.1060059040643522,-0.1250273734331131,0.999996542930603,1.0462247934717026,1.3566511887897148,0.2776002287864685,0.37440019845962524,1.092800808000355,1.3785966271742898,-0.16916397213935852,0.9570105671882629,1.011717804436565,1.6245568053278123,0.44152194261550903,0.5638158321380615,1.0710502925042853,1.679479717823629,-0.1437404751777649,0.9593260288238525,1.0713630087937211,1.1103472266371424,0.09104440361261368,0.5156015753746033,1.0570801390969733,1.1330428482492325,-0.4292752146720886,0.9983181953430176,0.002823382616043091,1.0320763905798866,1.1063002676141318,169.41917850550723,163.309371171253,1.0,0.027130808643644595,0.014223580577576908,0.10027508702539231,0.1615126986313761,4.951393143440645,0.8888524100578212,55,1.8333333333333333
1.0873840010520903,0.6227562378202599,-0.12677904963493347,0.9999562501907349,1.0114396901115454,0.723974211828844,0.10335779190063477,0.9999873042106628,0.9943080712073933,0.7186662960439009,-0.2784733474254608,0.9999983906745911,1.0268002104180864,1.1044123238047416,0.12526291608810425,0.9999920725822449,1.0320488265605012,1.1027900720921058,-0.12535199522972107,0.9999966621398926,1.0288767739081572,1.3758249943211027,0.2790158987045288,0.3625585436820984,1.092201977451789,1.376627930609854,-0.1541348695755005,0.9603851437568665,1.007923436509929,1.62275623782026,0.4440988600254059,0.5698895454406738,1.0714133878507466,1.6781409083844434,-0.11986662447452545,0.9623178839683533,1.0679780734789521,1.1100190093612137,0.0964217334985733,0.4812912046909332,1.0557552933299859,1.1285887641524097,-0.42272400856018066,0.9981990456581116,0.0026462674140930176,1.0294245184892938,1.1036011979484237,174.7114302122328,163.66661616189378,1.0,0.0058916052484752806,0.007424448204206558,-0.16344814339958788,-0.05218172218135554,75.13668407012649,0.885509883930928,56,1.8666666666666667
1.0787321207802645,0.6131728395486638,-0.12874189019203186,0.9999479055404663,1.0072129868893733,0.718889751175926,0.10778725147247314,0.999984860420227,0.9914345780688693,0.7138884533937153,-0.27520352602005005,0.9999982714653015,1.0197112170514935,1.1003753539824113,0.12544859945774078,0.9999920725822449,1.0303850751841372,1.101559320633859,-0.12550786137580872,0.9999967813491821,1.0224692564473428,1.3646580495193814,0.2890741229057312,0.3588692247867584,1.0868013946975241,1.3719471112507333,-0.14006544649600983,0.963797926902771,1.0011964282090262,1.6131728395486638,0.4606972336769104,0.5877810716629028,1.072117644699156,1.670920765500427,-0.11018884181976318,0.9655523300170898,1.0595800122787882,1.1027868433960806,0.12151215970516205,0.4451788365840912,1.0510803992398212,1.1197535507428098,-0.4247036874294281,0.9981388449668884,0.0025117695331573486,1.0250481461178154,1.100967337308135,174.50950275197235,165.40258462282142,1.0,0.022358215760533172,0.03857046949597308,0.11714188214179198,0.2213768264578487,98.20594646552856,0.906752158877272,57,1.9
1.0683727538721215,0.6016586989417809,-0.14526182413101196,0.9999472498893738,0.9913740743096091,0.7083195555110956,0.09427937120199203,0.9999841451644897,0.9901723621725046,0.7072956375251571,-0.2999414801597595,0.9999982118606567,1.0078874775200601,1.090328009931552,0.12795111536979675,0.9999921321868896,1.0247557637337312,1.0911643771286075,-0.12803854048252106,0.9999969005584717,1.0082000425765565,1.3667042865376384,0.29434460401535034,0.3621625006198883,1.080926020118187,1.3599227180252942,-0.13594183325767517,0.9668040871620178,0.9935847168265207,1.601658698941781,0.4644836485385895,0.6017657518386841,1.0667967630062152,1.6572146397996292,-0.10172458738088608,0.968193531036377,1.0474606351994333,1.0943753688861293,0.10156510025262833,0.41392749547958374,1.0457708560767807,1.1089419114475805,-0.42695003747940063,0.9980573058128357,0.00051918625831604,1.0163216206268957,1.0907461935300797,176.37570761833678,165.47413324214057,1.0,0.008047222676483601,0.002126269306674968,-0.10830510928760442,-0.27715388568710464,95.31376000401818,0.9127407250285803,58,1.9333333333333333
1.0700715303624857,0.5989279471022737,-0.12125551700592041,0.9999467134475708,0.9882989848657009,0.7011571963698687,0.1078769713640213,0.9999830722808838,0.9977635773011067,0.7031483510133409,-0.2987173795700073,0.9999982118606567,1.0037620661920168,1.0871758271306204,0.12926992774009705,0.9999920129776001,1.0230176890720744,1.0875393044256554,-0.12938246130943298,0.9999969601631165,1.007173900150056,1.3654355714517126,0.2784622013568878,0.3598543405532837,1.082924631382918,1.3558273931774105,-0.12128305435180664,0.9691992998123169,0.9943790539556903,1.5989279471022737,0.436544805765152,0.606751024723053,1.0694650706641589,1.6523870061496935,-0.0887640044093132,0.9702882170677185,1.0448135505648375,1.093141261975352,0.11850370466709137,0.38548991084098816,1.0498914491057942,1.105941734390344,-0.4202078878879547,0.9980481266975403,0.0010125339031219482,1.0133898776320456,1.087357565778138,176.16097261754652,164.81409847268716,1.0,-0.00015286155949052765,-0.0021381510633737555,-0.06664963891000161,-0.03470896731292792,93.37533100663035,0.9129011492070256,59,1.9666666666666666
1.0675912575504574,0.5953589713642912,-0.042559586465358734,0.9999505877494812,0.9804361217313696,0.6966471860279991,0.15704397857189178,0.9999805688858032,1.0070386564941327,0.7003661373352876,-0.2368057668209076,0.9999982714653015,0.9986277156773722,1.0843297826733262,0.12913824617862701,0.9999914169311523,1.0295606971597175,1.0853578852745522,-0.12928256392478943,0.9999969601631165,1.0038962446430582,1.3590292345195094,0.28827765583992004,0.3851964473724365,1.0809182450333024,1.356969054392286,-0.08874692022800446,0.9719118475914001,0.9920078291988855,1.5953589713642913,0.4355847239494324,0.6312692761421204,1.0676563761709807,1.6540191575006655,-0.04419504106044769,0.9727577567100525,1.034370589952489,1.0918429750394598,0.17720794677734375,0.35940250754356384,1.067049498685995,1.1030847637509307,-0.33157089352607727,0.998181939125061,0.0018960535526275635,1.0140942064185448,1.0848438339739392,176.02144489039208,166.73636508493294,1.0,0.02602920577758181,0.0023518658698893757,0.2048204882288784,0.035082326896591826,94.59018069082109,0.9117218753958323,60,2.0
1.0621244185584098,0.5823150875804128,-0.09215658158063889,0.9999537467956543,0.9732636287442806,0.6851661332389717,0.1265038102865219,0.9999786019325256,1.0040375954660565,0.6938036851401425,-0.2526516318321228,0.9999982714653015,0.9892816835703941,1.0725050868632073,0.12862509489059448,0.9999908208847046,1.0223142401316647,1.074753257250882,-0.12877041101455688,0.9999969005584717,0.992276118251748,1.3448093561583387,0.28108683228492737,0.40408533811569214,1.0705382416746698,1.3460462608610484,-0.07724873721599579,0.9742152094841003,0.9819856360910362,1.5823150875804128,0.428154319524765,0.6528481841087341,1.0596660067873467,1.6378632691226898,-0.0182994045317173,0.9748913645744324,1.026543727168738,1.0805066470024598,0.1501464545726776,0.3381907045841217,1.0692193706176436,1.093216988962501,-0.35306718945503235,0.998289167881012,0.0044470131397247314,1.0057979618510295,1.0736291720570446,176.88904398972477,167.78691921762743,1.0,0.012807994361353594,-0.005338862737134776,-0.10553590431862211,-0.062402852383904486,96.26156867333108,0.9214789285044606,61,2.033333333333333
1.0634525357697524,0.5819950470337487,0.02566933073103428,0.9999541640281677,0.9718535409822566,0.6856880625926137,0.17354026436805725,0.9999761581420898,1.0084500213505878,0.6920565751251543,-0.19812361896038055,0.9999982118606567,0.9863240579718191,1.0707675987366374,0.1268506497144699,0.9999899864196777,1.0256872090317382,1.0735775257652787,-0.12703603506088257,0.9999967813491821,0.986040231631902,1.3372368129471075,0.27515536546707153,0.42465940117836,1.0690788667117272,1.3457617811062796,-0.059950005263090134,0.976115345954895,0.9806135275288418,1.5819950470337487,0.3880590498447418,0.6716642379760742,1.0593486197064768,1.636482764778516,-0.02791505493223667,0.9765711426734924,1.0226193632019498,1.0791529668989555,0.20180153846740723,0.31222090125083923,1.0760988844491386,1.0926664085165483,-0.2795882523059845,0.9982724189758301,0.003282010555267334,1.0060056335017786,1.072172562250958,178.79089159833637,169.02518125291917,1.0,0.008987259531689613,-0.0030851656043550486,-0.028769067898260222,0.0169860558464904,96.23516425726145,0.9186267707610916,62,2.066666666666667
1.075742962877289,0.5872023582746122,0.007634061388671398,0.9999507665634155,0.9757170859713917,0.6882841452563174,0.16153021156787872,0.9999743103981018,1.0177444542088159,0.6939350486760327,-0.21208634972572327,0.999998152256012,0.9900479822484077,1.069585199407994,0.12599466741085052,0.9999889731407166,1.033353817040932,1.0754214601666556,-0.12620145082473755,0.999996542930603,0.9855819962196156,1.3343742515559078,0.27082690596580505,0.4271875023841858,1.0749372329793767,1.350000211820378,-0.06405316293239594,0.9772138595581055,0.9836400966341974,1.5872023582746122,0.3687964081764221,0.6800787448883057,1.0636267211929074,1.642501288767409,-0.03909163922071457,0.977531373500824,1.0305703231758014,1.0824945198005917,0.17961996793746948,0.2897510230541229,1.0853048249026018,1.0962792096674123,-0.29062768816947937,0.9982358813285828,0.0029019713401794434,1.01170089964467,1.0725033297873248,179.47379300529624,169.17388866790768,1.0,0.01620878512815299,-0.025941660013549,0.05414127069536092,-0.1720323732314137,99.82782180129186,0.9023499801016709,63,2.1
1.0835567246459978,0.5954956795451984,-0.024712540209293365,0.9999514222145081,0.9820702832572085,0.6925435297222047,0.14859722554683685,0.999972939491272,1.0289126391020489,0.6964005128328119,-0.23017141222953796,0.9999980926513672,0.9955683528399917,1.0717006023643971,0.1260184347629547,0.9999878406524658,1.0431872754160902,1.0783119231878169,-0.1262148916721344,0.9999962449073792,0.9929185260240595,1.3359744071428268,0.26967352628707886,0.42773663997650146,1.079559401665487,1.3598006742032387,-0.052759699523448944,0.9780312180519104,0.9887897912402129,1.5954956795451984,0.3750590682029724,0.6873572468757629,1.0656223979864818,1.6506210637365335,-0.014310036785900593,0.9781405329704285,1.0350189698073213,1.0882441346541503,0.18112094700336456,0.2681000232696533,1.1023902768336689,1.1023747548355838,-0.30425989627838135,0.9981526136398315,0.001969844102859497,1.019377814128041,1.075006262776107,179.66303135664995,169.89372054106454,1.0,0.015727192440685767,-0.0257054465955059,-0.00429451725189544,0.0028533508056546057,99.9431883268259,0.8826448646716912,64,2.1333333333333333
1.093064709472796,0.6051677856880933,0.041353560984134674,0.9999496340751648,0.9882790909606027,0.6973878343595801,0.16776268184185028,0.9999706149101257,1.044802370804624,0.7006370627294963,-0.20468676090240479,0.9999980330467224,1.0022206622763095,1.0765148772746316,0.12447802722454071,0.9999870657920837,1.0546792358770336,1.082289456478243,-0.12469182163476944,0.9999961256980896,0.9998094595550748,1.3323249075702688,0.2545734643936157,0.43351438641548157,1.0887233232367448,1.3679914952610037,-0.04182150214910507,0.9785076975822449,0.9948387320282047,1.6051677856880933,0.3358643352985382,0.6951830387115479,1.0740484794784417,1.6600843016692695,-0.015223415568470955,0.9785915017127991,1.03936800464813,1.092663664406898,0.1929861605167389,0.24454377591609955,1.1200150553374666,1.1094690380584722,-0.2633160948753357,0.9980540871620178,0.0016491413116455078,1.0284499490766716,1.0794021668764373,179.49632499454532,170.32856812077117,1.0,0.02032047001843305,-0.01749577618060885,0.03383420883896427,0.06300492100729477,98.38774052922722,0.8650860364369052,65,2.1666666666666665
1.0934679118190553,0.6068395353441955,0.05027584359049797,0.9999444484710693,0.9887943104637857,0.6986138304661937,0.1728840172290802,0.999967634677887,1.0467798707470868,0.7010018723377037,-0.19809824228286743,0.9999979734420776,1.0034904682913661,1.0765258658680033,0.12323504686355591,0.9999862909317017,1.0593891080834101,1.0814817288341418,-0.12344507873058319,0.9999960064888,1.0017052570784102,1.332188264708386,0.2543085515499115,0.43685635924339294,1.0911752270109523,1.3693547089928177,-0.040995173156261444,0.9789319038391113,0.9959324509845882,1.6068395353441955,0.34191465377807617,0.6995525360107422,1.0772561528233922,1.6617287541875978,-0.01702519878745079,0.978865385055542,1.0401183979637092,1.0932734351447335,0.19993528723716736,0.22222523391246796,1.1230735168860781,1.110882627800805,-0.2556486129760742,0.9979110956192017,0.0012105703353881836,1.031439788187388,1.0790037973510724,179.19596801719766,170.97345965086126,1.0,0.01274069632967831,-0.012595645878461155,-0.05584087575699812,0.036138754850083034,97.2934669082723,0.8575829103753754,66,2.2
1.0909968922708537,0.6064074226858881,0.09960634261369705,0.9999343156814575,0.9874020429002112,0.698473950052242,0.18077611923217773,0.9999647736549377,1.0560784327780612,0.7006636320483474,-0.1628112494945526,0.9999979138374329,1.0030226518806924,1.0768889899736325,0.11732220649719238,0.9999859929084778,1.062428675080816,1.0813379199066877,-0.11750735342502594,0.9999960064888,1.001426865602539,1.3317161993987834,0.24993209540843964,0.4545498490333557,1.0906061714037802,1.3700268210779865,-0.035836223512887955,0.9798858761787415,0.9953016550172114,1.606407422685888,0.3257225453853607,0.7118093371391296,1.0765787634806778,1.6608108086670466,-0.015732888132333755,0.979398787021637,1.0294624098029692,1.0869682957337452,0.19298656284809113,0.20162373781204224,1.1296016415681878,1.1102586672023558,-0.21773743629455566,0.9977272748947144,0.001110672950744629,1.0327256634807542,1.07911345494016,179.0813945983525,171.663495295392,1.0,0.01495026525473638,0.005898482554722471,0.017480402305480196,0.14575498368558348,96.64667102900634,0.8589325786929678,67,2.2333333333333334
1.0982419773742984,0.6074380381533169,0.03866337984800339,0.9999353289604187,0.9889183464877267,0.6989099094326323,0.15159977972507477,0.9999630451202393,1.065729945207063,0.7008180515465318,-0.1871109902858734,0.9999979138374329,1.0039561668263743,1.0793146093703465,0.11685021221637726,0.9999854564666748,1.0685675804349932,1.0831183106321536,-0.11702845245599747,0.9999959468841553,1.0024892517068882,1.3341545972601239,0.25109273195266724,0.46208059787750244,1.0915407835977393,1.373965808083074,-0.024629034101963043,0.9801910519599915,0.9957925266472234,1.6074380381533169,0.33587267994880676,0.7193852066993713,1.0774237541349596,1.6617905713483865,0.016863670200109482,0.9793968796730042,1.0306142974597874,1.081197938345701,0.18086901307106018,0.1831693798303604,1.1388420343269192,1.112112639418822,-0.2505682706832886,0.9976735711097717,0.0009671449661254883,1.0362618736306837,1.0812164600012502,178.9260692968063,172.67579517278762,1.0,0.02152041837289155,0.010094976033067542,0.051053588503781694,0.03263021462808662,95.63292529207206,0.8634178392541947,68,2.2666666666666666
1.1020521122097522,0.6069874130587611,0.04360254853963852,0.999930739402771,0.9939067565300773,0.6990117051304069,0.15201586484909058,0.9999585747718811,1.071994815671962,0.6988255594380658,-0.19775250554084778,0.9999978542327881,1.0044315727317845,1.0814334488287196,0.11680567264556885,0.9999852776527405,1.0727328133757732,1.0833437057915005,-0.1169760450720787,0.9999959468841553,1.003060115239823,1.3347268194374438,0.24838343262672424,0.4747549295425415,1.092141000599535,1.3741137427789905,-0.028320366516709328,0.9807997941970825,0.995681431696731,1.6069874130587611,0.33579105138778687,0.7299484014511108,1.0770758992891833,1.6614760083425726,0.015105189755558968,0.9798363447189331,1.0301613052963976,1.0778007268618877,0.17736093699932098,0.16629305481910706,1.1456685290839121,1.1120738764393587,-0.2588112950325012,0.9974626898765564,9.435415267944336e-05,1.0385821930537789,1.08238857731011,178.75780077771898,173.18030077047095,1.0,0.017718850394024266,0.00920994107053506,-0.028231210675801637,-0.006570085060687056,93.17850461477565,0.8691125404030787,69,2.3
1.096360275666901,0.5988365545931156,0.046811968088150024,0.999921977519989,0.9914896686335682,0.6952487186007534,0.13253091275691986,0.9999561905860901,1.0720871789642912,0.6947940082596644,-0.2039947509765625,0.9999977350234985,0.9997922711409744,1.0845241181044154,0.11468400061130524,0.99998539686203,1.0715283994482638,1.0844463148426569,-0.11484700441360474,0.9999960064888,1.0037217453506262,1.3324282415544413,0.2530848979949951,0.4948634207248688,1.0860036670490727,1.3714035807868998,-0.00784232746809721,0.9812340140342712,0.9907697837168771,1.5988365545931156,0.3424280285835266,0.7435712814331055,1.071715127276484,1.65298856075607,0.05120694637298584,0.9801525473594666,1.022287709559137,1.0726343757390944,0.17443032562732697,0.15103933215141296,1.1435557342495632,1.1064390154927353,-0.24888010323047638,0.9970418214797974,0.00023165345191955566,1.035660335294619,1.0844852164735361,176.30853820159675,174.20733730137755,1.0,0.01753225938325062,0.057190721604764495,-0.0007359221921817001,0.3635288859506165,91.1596976840526,0.9039241653036687,70,2.3333333333333335
1.0879223130621436,0.5886964607890035,0.06239800527691841,0.9999060034751892,0.9853376682118231,0.6908905875669347,0.11697296798229218,0.9999560117721558,1.0716608801049643,0.6899155131182507,-0.2025136947631836,0.9999977350234985,0.9948943743947566,1.078552088268943,0.1101551428437233,0.9999858140945435,1.0684403558050966,1.0784409435004987,-0.11031623184680939,0.9999961256980896,1.0010309374834512,1.324130174473453,0.2512059211730957,0.5114442706108093,1.0787358956736608,1.362449077297873,-0.004693006165325642,0.9812808632850647,0.9847970581979468,1.5886964607890035,0.33913639187812805,0.7558619379997253,1.0644944840048902,1.6424878547309973,0.048823945224285126,0.9802635312080383,1.0160964015776743,1.0616785452637942,0.1738089621067047,0.13763660192489624,1.1406185357502205,1.098490599402225,-0.24331235885620117,0.9967257976531982,0.0004999041557312012,1.0316673650999266,1.0784965158847208,175.05729085380742,175.01261072030897,1.0,0.019710618290888944,0.006571714235628645,0.017814512574245368,-0.3911761211132609,91.32559365554943,0.9178552912511229,71,2.3666666666666667
1.0948307407475908,0.5928285620437769,0.07766781002283096,0.9998969435691833,0.9918984573250546,0.6991131837333749,0.12294922769069672,0.9999557733535767,1.090375354659783,0.6947558346348354,-0.1911415308713913,0.9999977350234985,1.0018855878485171,1.0876023418373642,0.10812903940677643,0.9999860525131226,1.077035066455617,1.086707073904321,-0.10829582065343857,0.9999962449073792,1.0141421429820616,1.3286477310319205,0.2533128559589386,0.5304213166236877,1.0863177353654478,1.3714777797261613,-0.015720512717962265,0.9820227026939392,0.993848310614895,1.5928285620437768,0.3441789746284485,0.7667185068130493,1.0717159013304234,1.6536869985042189,0.02851942740380764,0.9806612133979797,1.0220114404191465,1.0686265948423297,0.175940603017807,0.12654903531074524,1.156518774990653,1.1048658654986354,-0.23737092316150665,0.996597170829773,0.002218693494796753,1.039460327152067,1.0871547078708426,172.69644187375278,175.1710817534176,1.0,0.005304538516798692,0.009399711055958567,-0.10957839692506112,0.02097023717992297,90.7900719801873,0.9277640189281997,72,2.4
1.0934152546550782,0.5920618066126347,0.10277114808559418,0.9998733997344971,0.9899370507914806,0.7036508154928703,0.12142284214496613,0.9999566078186035,1.1026129819313941,0.6942388734184699,-0.17257799208164215,0.9999977946281433,1.0010921270418316,1.0865812002449873,0.10286704450845718,0.9999858736991882,1.0787525061172272,1.0852505304345543,-0.10302998125553131,0.9999961853027344,1.0163297408445398,1.3257120507490823,0.24984495341777802,0.5309653878211975,1.0853411755170088,1.3692826272149639,-0.0011301013873890042,0.9798332452774048,0.9983523063237694,1.5920618066126349,0.3411378562450409,0.7672687768936157,1.070679596593125,1.6522466325205667,0.06361468136310577,0.9775367975234985,1.0130562252732642,1.0679696010312252,0.17543739080429077,0.11636801064014435,1.162184579236346,1.1063964491923495,-0.20544464886188507,0.9961094856262207,0.004796415567398071,1.0399223165795295,1.085915865339771,172.49263930015127,175.70506514840636,1.0,0.010003189480832958,-0.002494417223842792,0.03538606512169254,-0.08943266519444648,90.68696414012784,0.9262963942417146,73,2.433333333333333
1.0936975868218077,0.5908086357075281,0.1182592362165451,0.9998510479927063,0.9863631127415956,0.7108022557541878,0.12420252710580826,0.9999571442604065,1.1096611465108126,0.6940429552743412,-0.16296350955963135,0.9999977946281433,1.0013611463296304,1.0842694465402167,0.10152144730091095,0.9999859929084778,1.0818075887663026,1.0845353753392126,-0.10167980194091797,0.9999962449073792,1.015493830071965,1.3192061435046483,0.26052558422088623,0.5267059803009033,1.0850230478444485,1.368288417374724,0.005928809754550457,0.9782092571258545,1.001302700439741,1.5908086357075282,0.3580459654331207,0.7638026475906372,1.0698396238936851,1.651184759556239,0.0659269466996193,0.9747432470321655,1.0103763079532642,1.067764444127278,0.17537106573581696,0.10636056214570999,1.1634349888540765,1.106046151329384,-0.19050367176532745,0.9951011538505554,0.008545786142349243,1.0415843675479663,1.0844024109397146,173.5665410745037,176.27856492743265,1.0,0.017033789194175707,-0.006475179268340442,0.05254616258901701,-0.02973782239107309,92.48909987771361,0.9249151973469859,74,2.466666666666667
1.0915735820220076,0.5883153203859529,0.11877807229757309,0.9998377561569214,0.9764743058370002,0.7131402167972813,0.11030477285385132,0.9999576807022095,1.1113488133513185,0.6929768616710098,-0.16207720339298248,0.9999977946281433,0.9999255964755488,1.0828864015742035,0.09667810797691345,0.999985933303833,1.0813734715546572,1.0837470315182083,-0.09683908522129059,0.9999962449073792,1.0141053326318978,1.3159948028408726,0.2575671374797821,0.5410708785057068,1.0832382864780785,1.3660084434870219,0.00796758197247982,0.978009045124054,1.003165388530828,1.588315320385953,0.3408810794353485,0.7730347514152527,1.0667698395539056,1.6486250082792158,0.06481097638607025,0.9740113019943237,1.005617962119561,1.0656623649758392,0.15405873954296112,0.09770790487527847,1.162760539988685,1.1068921881259561,-0.17817899584770203,0.9944478869438171,0.010297447443008423,1.040649534015103,1.0833167165462059,174.21853897318002,176.28653897515895,1.0,0.005143252004236535,0.004494654090492768,-0.09075426031726369,0.08383606745450406,94.23454617031982,0.9297970215769872,75,2.5
1.0764297458326615,0.5733763653908173,0.15297967195510864,0.9998415112495422,0.9637295641900092,0.7058138192583063,0.1096719279885292,0.9999598860740662,1.10594830985278,0.6863295044999087,-0.12484320253133774,0.9999978542327881,0.9905321881728395,1.0741589091983856,0.08712776005268097,0.9999863505363464,1.071522278494725,1.0755018497514732,-0.08728773891925812,0.9999963641166687,1.0040936217780656,1.3029886496898062,0.25935202836990356,0.5591638684272766,1.0729967846770667,1.3530467125616445,0.038323573768138885,0.9770998954772949,0.9958935453705748,1.5733763653908173,0.36150380969047546,0.780450701713562,1.0555199440718903,1.631696587924021,0.127070352435112,0.9712985754013062,0.9853353458173084,1.0557652711942778,0.16628631949424744,0.0920397937297821,1.1537028180999391,1.0974216315976246,-0.1278626024723053,0.993776261806488,0.010045349597930908,1.0310272333337822,1.0748303794749294,174.87129032271088,176.10673497047054,1.0,0.0014843791920333138,0.01369391425256328,-0.02865858351183689,0.07335822879012939,95.11175681970721,0.9540874978918402,76,2.533333333333333
1.070179695888983,0.5684144932475914,0.1666322648525238,0.9998441934585571,0.9590498797790936,0.7037075189601281,0.11422890424728394,0.999961793422699,1.103490686927061,0.6840542497200299,-0.11244931071996689,0.9999979138374329,0.9871001187172089,1.0709676103549797,0.08451274782419205,0.9999866485595703,1.0677204302487715,1.0728226315582674,-0.08467571437358856,0.9999964237213135,1.0006733799560228,1.2974567231814969,0.25830066204071045,0.5746336579322815,1.0693449997217295,1.3484235430870415,0.03258880227804184,0.9762269854545593,0.9934548251810458,1.5684144932475914,0.35720759630203247,0.7857283353805542,1.0503549705615198,1.624880006664664,0.10806739330291748,0.9686102867126465,0.9790681845600336,1.0524105999960593,0.18680010735988617,0.08650777488946915,1.1503347253770104,1.0945559581163198,-0.10442052036523819,0.993071436882019,0.010166347026824951,1.0274102744829903,1.0718951209566236,175.04437496713544,175.73274255213227,1.0,-0.0014006782114759635,0.0050450437181445255,-0.022428199748667534,-0.06699563484377365,95.6857087508157,0.9628627394597303,77,2.566666666666667
1.0637062926366405,0.5628924229427555,0.15862736105918884,0.9998440146446228,0.9530420130690063,0.6992047834558935,0.11586059629917145,0.9999634027481079,1.0992538339068776,0.6802207350498242,-0.11376521736383438,0.9999979138374329,0.9815608229315957,1.067200779215854,0.08399583399295807,0.9999866485595703,1.0626791090508623,1.0688313257422575,-0.08416299521923065,0.9999963641166687,0.9953915376915363,1.2948184746615923,0.2546465992927551,0.5914653539657593,1.0632829302998361,1.342006818826184,0.04406333342194557,0.9745046496391296,0.988702527347116,1.5628924229427554,0.35647279024124146,0.7916184067726135,1.0444422178297186,1.615714293325478,0.1381607949733734,0.9650957584381104,0.9742982396891936,1.046425432630191,0.19033686816692352,0.08202711492776871,1.1456976561595467,1.0883646567038452,-0.10709406435489655,0.9919085502624512,0.009875774383544922,1.022119965991229,1.0680160524790558,175.09346266547826,175.93559918947886,1.0,0.0038164005750967,0.01664060297097887,0.04020176569826016,0.08970756021416462,95.58296736392627,0.972212533608063,78,2.6
1.0567153374198814,0.5591361094929,0.17107225954532623,0.9998441338539124,0.9469645762931165,0.6945330885460546,0.10852734744548798,0.9999653100967407,1.0988651773011717,0.678290352588767,-0.09203232079744339,0.9999979138374329,0.977862016705265,1.0633072890611717,0.07503096014261246,0.9999866485595703,1.0604323493386218,1.0646824339367993,-0.07520801573991776,0.9999963045120239,0.9856271848346188,1.289972646066052,0.2399715930223465,0.6081911325454712,1.0592722599079747,1.335493628440238,0.05357280373573303,0.9715530276298523,0.9841608354470274,1.5591361094929002,0.3366600573062897,0.7965245246887207,1.0399007183525337,1.6086663234987513,0.14458343386650085,0.960229754447937,0.9665995721834914,1.0406743015535074,0.18603575229644775,0.07920755445957184,1.1420875548475569,1.0838665439419972,-0.07529793679714203,0.9907119274139404,0.008481442928314209,1.0191471830219434,1.0639948614989856,177.7257787651152,176.18920447591304,1.0,0.006586402350741179,-0.00018969544613655105,0.02152099324758371,-0.12960772003391863,95.7434222223897,0.9736471148105085,79,2.6333333333333333
1.045403788056262,0.5514912758701432,0.18371134996414185,0.9998473525047302,0.941197563110784,0.6881735540391112,0.10608216375112534,0.9999672770500183,1.0947868107559162,0.6757309672400034,-0.07564572244882584,0.9999979734420776,0.9710423616745416,1.0564677718514672,0.06969736516475677,0.9999867081642151,1.054887624006928,1.0578412710186629,-0.0698772519826889,0.9999962449073792,0.9767597929725046,1.2869167739464789,0.224993035197258,0.6201052069664001,1.0524594453388445,1.3266831475224872,0.05014748498797417,0.9678636789321899,0.9770587643849511,1.5514912758701431,0.3106533885002136,0.7973954677581787,1.0324121418460566,1.5978481770768207,0.13369223475456238,0.953551173210144,0.9530127749599874,1.0341322482349657,0.1837618350982666,0.07903804630041122,1.1347957867034053,1.0767754844349142,-0.06209980323910713,0.9899862408638,0.0065389275550842285,1.012964992840735,1.057154521435065,178.64353004914219,176.2892809287772,1.0,0.002592310011706845,-0.0002988240895497249,-0.03076012742649792,-0.0008588373281656211,95.5713509234118,0.9789794505218703,80,2.6666666666666665
1.036895624697025,0.5458267254448536,0.17363744974136353,0.9998515844345093,0.9334597555646553,0.6820499287057944,0.09487796574831009,0.9999690055847168,1.0876669700830266,0.6721879016426175,-0.08331410586833954,0.9999980330467224,0.9597448598196133,1.0471523221492967,0.06628154963254929,0.9999862909317017,1.0471270812735916,1.0488781670256355,-0.06645616143941879,0.9999960660934448,0.9682539646767466,1.2825321646507395,0.2098459005355835,0.6367392539978027,1.0455778098447077,1.318054415271451,0.046670764684677124,0.9651327133178711,0.9617973712078683,1.5458267254448534,0.2812279164791107,0.8034728169441223,1.0256960002451971,1.5881108263750023,0.1287972331047058,0.9492401480674744,0.9386321067995539,1.027479538551719,0.1774379312992096,0.08009941130876541,1.1287791732125798,1.0684286901315163,-0.06405143439769745,0.9902257323265076,0.005216628313064575,1.0034359705466025,1.048015244587466,176.52488517159662,176.1191945475796,1.0,-0.023007795915132953,-0.017739545021785708,-0.19921664007042844,-0.1358257433797015,95.24931031023173,0.9696675880994953,81,2.7
1.0355189437441157,0.5460390966753541,0.1722705364227295,0.9998576641082764,0.9308533374126995,0.6808158807325312,0.08513466268777847,0.9999711513519287,1.0859092018577614,0.6710568407933617,-0.08415263891220093,0.9999980330467224,0.9551766144335324,1.0452698287003657,0.06548838317394257,0.999986469745636,1.044659611012939,1.0469801254630062,-0.06565333157777786,0.9999959468841553,0.9577287303985144,1.2860868117616224,0.20843109488487244,0.656892716884613,1.0431130888038271,1.315752052524839,0.044196717441082,0.963777482509613,0.9512517617575169,1.546039096675354,0.27697187662124634,0.8119775056838989,1.0230332712054864,1.5843931624123901,0.1256844699382782,0.9461532235145569,0.927944989297288,1.0328435469338952,0.1428188532590866,0.09675832092761993,1.126941926398186,1.065854580344579,-0.08521447330713272,0.9898796081542969,0.005171328783035278,0.9999181127232356,1.0461249770816858,177.9655311245637,176.05500329999575,1.0,-0.014002908153045059,-0.00024615815102798624,0.07225436464077582,0.14075084935514964,94.91316471600908,0.9655296281857307,82,2.7333333333333334
1.0302159744197183,0.5440367854823236,0.1657891571521759,0.9998685717582703,0.9260630861303509,0.6781057008249505,0.057560622692108154,0.9999736547470093,1.080639265203967,0.6687914337987948,-0.0799063965678215,0.9999980330467224,0.9493643164743656,1.0407749278486071,0.05798252671957016,0.9999867081642151,1.0396810548473745,1.0425360969693225,-0.05812515690922737,0.9999957084655762,0.9476717803270132,1.2817017439381018,0.19622313976287842,0.6818028688430786,1.03758791710346,1.3096554053728757,0.04298735782504082,0.9635390639305115,0.9342563292645064,1.5440367854823236,0.2555732727050781,0.8237668871879578,1.0186580921354562,1.5776551863743506,0.11767145246267319,0.9449177980422974,0.9131164777692425,1.0311711259625551,0.08470679819583893,0.16235694289207458,1.1221281775079335,1.05817377846463,-0.10301345586776733,0.9901089668273926,0.0049585700035095215,0.99452268566087,1.0416555124089648,177.47502550797415,176.4086540622788,1.0,-0.00578924309073906,0.0027556830692214273,0.06110155016347906,0.02249962159820474,94.79328027968545,0.9603289642633839,83,2.7666666666666666
1.025051065074747,0.5421645878742178,0.1593410223722458,0.9998805522918701,0.9200837996120104,0.6756235763650772,0.046337950974702835,0.9999759793281555,1.0750901519220843,0.6665475724758075,-0.08256479352712631,0.9999980926513672,0.9450449861382842,1.035534887270765,0.05357746034860611,0.9999868869781494,1.035855905996969,1.0380049573235899,-0.05370918661355972,0.9999954700469971,0.9385960468613697,1.277336412673199,0.1797640025615692,0.7059969305992126,1.0320266669820692,1.3050856194991929,0.0408608578145504,0.9631614685058594,0.9204973748322658,1.5421645878742178,0.23217102885246277,0.8337671756744385,1.0151814966457615,1.5725504552842227,0.10319942235946655,0.9427277445793152,0.9005684385814298,1.0294007181803717,0.06787442415952682,0.22714856266975403,1.1177759349544871,1.048533746689111,-0.11925600469112396,0.9905974268913269,0.0048482418060302734,0.9904504460676266,1.0367699222971773,177.61815562510083,177.21763687234588,1.0,-0.005508749631838753,-0.010761184397332986,0.0020981733150001658,-0.10868047863281836,95.52539170690983,0.9515119607563197,84,2.8
1.0125685759577552,0.5416970066144646,0.14767132699489594,0.9998910427093506,0.9054833521980623,0.6712668158865894,0.022842828184366226,0.9999780058860779,1.0682245849542304,0.6630128149392007,-0.082463338971138,0.9999980926513672,0.9360378320722661,1.0296783922068427,0.04426995664834976,0.9999862909317017,1.0300133130479467,1.0316750442191502,-0.044406991451978683,0.9999948143959045,0.9288965162850266,1.2708826556892237,0.15894456207752228,0.7317976355552673,1.0251906970798021,1.2977992826501628,0.04591856896877289,0.9627693891525269,0.907761990246568,1.5416970066144646,0.19687899947166443,0.8463298082351685,1.009900306672299,1.5640369369524834,0.1096762865781784,0.9422604441642761,0.8814795266873815,1.0242057989801339,0.04747484251856804,0.2929408848285675,1.1113973018452996,1.03806217775452,-0.11741320043802261,0.9912706613540649,0.004433244466781616,0.9830255725601064,1.0306767182129966,177.23350122969092,177.7512178339504,1.0,-0.015371337721421527,-0.0034403333997763685,-0.07453636877931424,0.054718911304674094,96.0898196796801,0.9371003219238244,85,2.8333333333333335
1.0064135913142795,0.5399309203494415,0.1456582248210907,0.9999004006385803,0.8963837304326978,0.6643077360728593,0.021664217114448547,0.9999797940254211,1.0636027324721622,0.6603647420143549,-0.07654420286417007,0.9999980926513672,0.9227896897175956,1.023844646686405,0.040200673043727875,0.9999857544898987,1.0229995180090963,1.026188098733009,-0.040338899940252304,0.9999942183494568,0.9186727278446294,1.2675053938590966,0.1493559181690216,0.7552043199539185,1.0192890891223239,1.2918661948142112,0.04641340300440788,0.9624146819114685,0.901849150169714,1.5399309203494416,0.18793751299381256,0.8578684329986572,1.0061457018866082,1.558161995489883,0.11356951296329498,0.9417455196380615,0.8668160014788646,1.0198004339852953,0.05318088456988335,0.35238003730773926,1.1068638346121653,1.0302283312362666,-0.11423653364181519,0.991908073425293,0.0021257102489471436,0.9728946038633459,1.025016372709707,177.434193390783,177.97451680145105,1.0,-0.048297345666808614,-0.013595539061957193,-0.24624531064065486,-0.075912053259101,95.54015370830615,0.9272837281842995,86,2.8666666666666667
0.9950649255146906,0.5396822710570574,0.12810319662094116,0.9999094009399414,0.8840826662599169,0.6614859731153789,0.0012015344109386206,0.9999815225601196,1.057866194516519,0.6584424612761339,-0.08142454922199249,0.9999980926513672,0.9130151295795382,1.0203897267322057,0.03501007705926895,0.9999852180480957,1.0168494826261398,1.0229492953275912,-0.03512270003557205,0.999993622303009,0.9130136412018661,1.2679666892256947,0.14394041895866394,0.7774185538291931,1.0138542052484938,1.287847776669702,0.05437838286161423,0.96287602186203,0.8960740841640089,1.5396822710570575,0.18760570883750916,0.8696602582931519,1.0034079989936362,1.552888701267552,0.13395069539546967,0.9429972767829895,0.8532191155982697,1.0138439519800853,0.027913589030504227,0.4108337461948395,1.103546710280175,1.022775320515241,-0.12030069530010223,0.992567777633667,0.001645416021347046,0.9649323061028391,1.0216695110298983,176.43297216891636,178.39076859406896,1.0,-0.0400137178755372,-0.003559156883770982,0.062374399221415154,0.07653923247981077,96.02092667828073,0.9201477065947656,87,2.9
0.9898950549489356,0.5415576707795968,0.13186593353748322,0.9999176263809204,0.8827250972906926,0.6619785192391903,0.00022193642507772893,0.9999830722808838,1.0582116390391705,0.659078172894919,-0.07242795825004578,0.9999980926513672,0.9137030673936689,1.0208620997132485,0.030959725379943848,0.9999845623970032,1.0174806522184396,1.0233105895003742,-0.031068921089172363,0.9999929070472717,0.9128810184269631,1.2703368006017544,0.13885872066020966,0.7973647713661194,1.012972239486955,1.2890639346404305,0.05586609989404678,0.9633179903030396,0.8961837902405605,1.5415576707795968,0.17920556664466858,0.880161702632904,1.0038622727529558,1.554429926864238,0.1311139166355133,0.9441993236541748,0.8506131542843219,1.0130158304846524,0.02078268490731716,0.4657585024833679,1.1039741305637563,1.0207434659853376,-0.12352202087640762,0.9931564331054688,0.0015664994716644287,0.9655918598060542,1.0220863446068114,176.66592958473043,179.00572803595838,1.0,-0.0020824319505994516,-0.00433796435849198,0.287719384601549,-0.005875328244533287,96.28497064735402,0.9144773853346658,88,2.933333333333333
0.9837124542260123,0.5445846899014322,0.14844946563243866,0.9999253153800964,0.880137975778499,0.6628146890871321,0.011042621918022633,0.9999845623970032,1.0578739655932308,0.6611470315231309,-0.055575400590896606,0.999998152256012,0.9097839077757248,1.0208215501994924,0.02866697683930397,0.9999842047691345,1.0171060442822277,1.024028367249055,-0.02880863845348358,0.9999924898147583,0.9127326237838121,1.271445064198767,0.12475962936878204,0.8161038756370544,1.0111952431624494,1.2902129654008703,0.053838927298784256,0.9649882316589355,0.8984987822514432,1.5445846899014322,0.14635829627513885,0.8901412487030029,1.0044080475816342,1.5566769888668512,0.10610614717006683,0.946307897567749,0.8484750769524498,1.0122856537696066,0.04658232256770134,0.5160505175590515,1.1046314662956611,1.0195610978531098,-0.09185349196195602,0.9937290549278259,0.0008996427059173584,0.9634449760289763,1.0224249587242737,176.3428194266945,179.81299602099432,1.0,-0.02661299319772717,-0.007096709014621053,-0.1979577045686329,-0.022223161459795002,96.44526998966197,0.9052247106527799,89,2.966666666666667
0.9739174698191003,0.5451207575449558,0.16513848304748535,0.9999319314956665,0.8695420873365381,0.6648490390624987,0.01841977797448635,0.9999858736991882,1.0524970719229774,0.6607680291247275,-0.042679738253355026,0.9999982118606567,0.9053515903077795,1.019852414651364,0.0270847138017416,0.9999834895133972,1.0135371849360697,1.0229021740492368,-0.027240103110671043,0.9999918937683105,0.9095938866598086,1.2714801958553588,0.12114071846008301,0.8330370783805847,1.0086885466057296,1.2890808379982843,0.04722189903259277,0.9665893316268921,0.8963924666990748,1.545120757544956,0.13632221519947052,0.8993749618530273,1.003180080145328,1.5558227348600935,0.0947006568312645,0.948226273059845,0.8456370341426559,1.0114973147357549,0.059658877551555634,0.5604377388954163,1.1008387279922287,1.0142141242189104,-0.056953974068164825,0.9942396879196167,0.002203434705734253,0.9594443876219245,1.0213772943503003,176.27210222966943,179.86052636760667,1.0,-0.023792072363293795,-0.0013348987165664838,0.02092592093863008,0.04304222535901822,97.37473693303666,0.9003975879429669,90,3.0
0.957438800543603,0.5438620739864806,0.17030037939548492,0.9999375939369202,0.8607718985509805,0.6663073717326462,0.016547787934541702,0.999987006187439,1.0432685010324927,0.6603557576907464,-0.036464132368564606,0.9999982714653015,0.8979282307312165,1.0198836460226972,0.024304969236254692,0.9999832510948181,1.006090162198415,1.022155350429764,-0.024453414604067802,0.9999917149543762,0.9094899420215676,1.272803967595616,0.13715064525604248,0.8473889231681824,1.0054789397977373,1.2890946275084276,0.06585708260536194,0.9669190049171448,0.8974140802873329,1.5438620739864806,0.17364045977592468,0.9073723554611206,1.001529986409926,1.5551614703754038,0.1363500952720642,0.9497354626655579,0.8426104524435659,1.019937035598934,0.06195126846432686,0.5989400744438171,1.0976475493743272,1.0125236061349476,-0.05367841571569443,0.9946715235710144,0.0032159090042114258,0.9520091964648159,1.0210194982262306,174.83178076456514,179.28087317043978,1.0,-0.05126844334116055,0.0033186001895699913,-0.2106364003220495,0.03564232671395376,97.20222868385875,0.902910352395764,91,3.033333333333333
0.9409160924997648,0.5341948936524017,0.17803287506103516,0.9999426007270813,0.8474902032430492,0.6609874102647695,0.02076677605509758,0.9999880194664001,1.0288585875603613,0.655566428685517,-0.03172276169061661,0.9999983310699463,0.8865125295653106,1.0126534059456633,0.025227967649698257,0.9999833106994629,0.9938777653548165,1.0137988224199685,-0.0253562331199646,0.9999916553497314,0.8993187124074751,1.2653938722953622,0.1428290605545044,0.8597332239151001,0.9930877890070651,1.279529208667094,0.06473018229007721,0.9669366478919983,0.8889377055349762,1.5341948936524017,0.18619105219841003,0.9138952493667603,0.9928853992766482,1.5430365898752623,0.1420806497335434,0.9503907561302185,0.830674515741545,1.0175256378558504,0.06364189088344574,0.6323805451393127,1.0813468872459462,1.0055547776010363,-0.07101158797740936,0.9949238300323486,0.0029535293579101562,0.9401951474600636,1.0132261141828158,174.88769852592517,179.87367543584566,1.0,-0.02933002527497562,0.004598631574675795,0.15906096322571606,0.009665140043169188,96.9431070806791,0.9117607563858746,92,3.066666666666667
0.9404642874631005,0.5344875458790322,0.17008520662784576,0.999947190284729,0.842912163110372,0.6623812588957518,0.01471767108887434,0.999988853931427,1.0202638900933023,0.6557429455644957,-0.03914010897278786,0.9999983310699463,0.882687386285517,1.0144095381882334,0.023841258138418198,0.9999824166297913,0.9899689156476873,1.0146791565780897,-0.023956451565027237,0.9999909400939941,0.8966222472922583,1.266153016642972,0.1317604035139084,0.8706538081169128,0.9892502250695315,1.2797233347658634,0.06112030893564224,0.965799868106842,0.8886165835553026,1.5344875458790324,0.16864484548568726,0.919264554977417,0.9923002831047805,1.5438291008954361,0.13419663906097412,0.949387788772583,0.82369873427625,1.021327153849079,0.03588041663169861,0.665485143661499,1.0778067353715748,1.0061723899935906,-0.08740115910768509,0.9952686429023743,0.0036160051822662354,0.9363281509666022,1.0145443473831615,175.12282425475345,179.18297987338616,1.0,-0.030594843578818837,0.008302097672290117,-0.009469650833936272,0.027857377140263696,96.59043123454704,0.9150691438542236,93,3.1
0.9299632326294482,0.5347805978342178,0.1815102994441986,0.9999514222145081,0.8400073190123928,0.6657987419285051,0.022959645837545395,0.9999896883964539,1.0124620681789527,0.6582664497948844,-0.02447674795985222,0.9999983310699463,0.8760507199900662,1.015039148237625,0.024126704782247543,0.9999823570251465,0.9826152669237802,1.0148818277619767,-0.024255448952317238,0.999990701675415,0.8908616003748122,1.2654912668264122,0.11955904960632324,0.8816360831260681,0.9856009644904822,1.279339954176856,0.054039645940065384,0.9667308926582336,0.887395025095515,1.5347805978342177,0.1412201225757599,0.925026535987854,0.9910451500465917,1.5438801323001747,0.10846599191427231,0.9505195021629333,0.8151689540403766,1.0271956011532095,0.04695956036448479,0.6955468058586121,1.0708813529560905,1.0068184422701958,-0.08808968961238861,0.9955562353134155,0.004103749990463257,0.9293329934569232,1.0149604879998009,175.87813459737112,179.46786475007332,1.0,-0.05521695295660189,0.004930207714011143,-0.19947083531712204,-0.027297451919510954,95.80777166954336,0.9155622984884552,94,3.1333333333333333
0.9202225203442753,0.5354584794479639,0.17777757346630096,0.9999548196792603,0.8333911359207542,0.6662031692971634,0.017413705587387085,0.9999904632568359,1.0066666867401777,0.6591639364410595,-0.035523008555173874,0.9999983310699463,0.8716358278229265,1.0162823729846309,0.0251922570168972,0.9999820590019226,0.9776917414929601,1.0153926419815402,-0.025318767875432968,0.9999904036521912,0.8874750324301257,1.2663328076810743,0.12460361421108246,0.8901797533035278,0.982770303284291,1.2798237399743078,0.05454060435295105,0.9666917324066162,0.8873630222386216,1.5354584794479638,0.15077108144760132,0.9296408295631409,0.9918832028235766,1.5437107728237873,0.10932932049036026,0.9513272643089294,0.8084620798146521,1.0303363125160987,0.0405808687210083,0.7228621244430542,1.061647595462547,1.0076860561271792,-0.0889175683259964,0.9957903623580933,0.0038319826126098633,0.9246637846579433,1.0158375074830857,176.35164991786476,179.12243697314167,1.0,-0.0406415555535736,0.0003425327819701035,0.10942328409382762,-0.03436518349818201,95.75394251904397,0.9168585821964469,95,3.1666666666666665
0.9048246817034091,0.5365956753039111,0.176297128200531,0.9999557733535767,0.8241393832862265,0.6695743121327413,0.005225040018558502,0.9999908804893494,1.0028908578012634,0.6597990686408157,-0.035320062190294266,0.9999983310699463,0.8661666719185205,1.0172985103459236,0.020965129137039185,0.9999819993972778,0.9721417014088212,1.0155912103148235,-0.021124865859746933,0.9999904036521912,0.8838849104193582,1.2656911005739135,0.11315573751926422,0.8990277051925659,0.9809088081808355,1.2795616939831567,0.05404553934931755,0.9677256345748901,0.8870346526446737,1.5365956753039112,0.1279871165752411,0.9350008368492126,0.9928374395979729,1.5452314765975113,0.09280175715684891,0.9537913799285889,0.8048923895158384,1.0306653642069268,0.04048926383256912,0.7406031489372253,1.0538199564050468,1.0091181132783762,-0.06953511387109756,0.9959078431129456,0.005315959453582764,0.9191541866636709,1.0164448603303735,176.586045866181,179.33136772128893,1.0,-0.04969413583468238,-0.003325457324149416,-0.06936441086659341,-0.028237969738870314,95.96858326520734,0.9146112394819081,96,3.2
0.8876616787218344,0.5359667569681237,0.13809293508529663,0.9999573230743408,0.8129674075505692,0.6704062557588818,-0.017529692500829697,0.9999913573265076,0.9925498558923728,0.6612329665836402,-0.05554770305752754,0.9999982714653015,0.8580046292370305,1.0233718840135744,0.02173609845340252,0.9999823570251465,0.9621318944702245,1.0180653312744339,-0.021884988993406296,0.9999904632568359,0.8738975541912827,1.2730188186833955,0.15384253859519958,0.906444787979126,0.9772679613016294,1.279518069385089,0.08301013708114624,0.9683063626289368,0.8853361039511982,1.5359667569681237,0.21686331927776337,0.93976229429245,0.991696692284583,1.5446552866233105,0.16830699145793915,0.9555721282958984,0.7946915518286757,1.033421290151663,0.03072286769747734,0.7617665529251099,1.0427228222963303,1.0154484296727826,-0.06274811178445816,0.9959610104560852,0.004990488290786743,0.9100682618536275,1.020718607644004,178.84823877860273,179.80167695695542,1.0,-0.06579520724578407,0.03506330891129038,-0.12136274019189396,0.28901151584742985,94.35406171980516,0.932542493552503,97,3.2333333333333334
0.8843633092134979,0.5336378965687247,0.1445874273777008,0.9999597072601318,0.8132564325103333,0.6686112169014611,-0.0069721960462629795,0.9999918937683105,0.9893406511890905,0.6609534775676567,-0.05488760396838188,0.9999982714653015,0.8529460078183974,1.0215235242601493,0.023177867755293846,0.9999831914901733,0.9577863067242557,1.0161063051892858,-0.023323534056544304,0.9999908804893494,0.870779810051855,1.2765351488688426,0.1659443974494934,0.9133949875831604,0.9730587100273053,1.27678496411762,0.08294885605573654,0.9693942666053772,0.8824240978457999,1.5336378965687247,0.2323424071073532,0.9439179301261902,0.9883980222722594,1.5400934068508088,0.16454783082008362,0.9573685526847839,0.79150452135535,1.034721969020832,0.04274073615670204,0.7794042229652405,1.0351287797607447,1.016982899790904,-0.06155318021774292,0.9958834052085876,0.004174917936325073,0.9053661572713265,1.0188149147247176,178.59280758381595,179.98109801475417,1.0,-0.02070298603210396,0.002090497439427964,0.3376007014890606,-0.24707345057398,93.45878464662638,0.9358446714235901,98,3.2666666666666666
0.8719170055206134,0.532638299590545,0.14747607707977295,0.9999621510505676,0.8084864753195706,0.6681722288872013,-0.008077015168964863,0.9999924302101135,0.9813205925232867,0.660604914192242,-0.04877864569425583,0.9999983310699463,0.8497861424130182,1.0213504622657916,0.022160883992910385,0.9999836683273315,0.9538055482385578,1.0155069903600853,-0.022305132821202278,0.9999911189079285,0.868250602265867,1.2749871285494427,0.15892361104488373,0.9178099036216736,0.9710002653789042,1.2758970771330314,0.08069945871829987,0.9691790342330933,0.8824852819067591,1.532638299590545,0.215180441737175,0.9460881352424622,0.9880650523083839,1.5385444964256352,0.15174421668052673,0.957824170589447,0.7860095323315593,1.0336826860563193,0.03582913801074028,0.7976211905479431,1.027959965103521,1.0172577152619315,-0.06553296744823456,0.9957893490791321,0.004127562046051025,0.9017958453257879,1.0184287263129386,178.99853298323248,179.9393987389689,1.0,-0.02394105627389216,0.0007105911690020558,-0.024730040355838347,-0.010499617124514558,93.454404719892,0.9391436520338654,99,3.3
0.8582139353654167,0.5314326573330784,0.17867609858512878,0.9999631643295288,0.8036348960882425,0.6649798138547811,0.018481789156794548,0.999992847442627,0.971304315453195,0.6564218716026312,-0.022625688463449478,0.9999982714653015,0.8429442299653456,1.0187911816630972,0.02295939065515995,0.9999842643737793,0.9468500461599284,1.0127058221250311,-0.023102018982172012,0.9999913573265076,0.8630369488191949,1.2726924273788525,0.15572690963745117,0.9223230481147766,0.9682133962832986,1.2726186238209214,0.07993996143341064,0.9692636132240295,0.8791991103891371,1.5314326573330785,0.2093997746706009,0.9479646682739258,0.9856899043764256,1.5345991243104287,0.14684554934501648,0.958095133304596,0.7752331175860198,1.0305207146255704,0.04408847913146019,0.8129047155380249,1.0162657263853552,1.014761856249965,-0.05982286483049393,0.9948345422744751,0.004679083824157715,0.8948971380626369,1.0157485018940642,179.04959960050402,179.11767695638997,1.0,-0.03618722750003709,-0.0018703870682619695,-0.09388055541124554,-0.019681052625322295,92.98794310607747,0.936511450294016,100,3.3333333333333335
0.8607349554120265,0.528631342697259,0.17788442969322205,0.9999644756317139,0.8008494096743024,0.6582613468365573,0.02692793309688568,0.9999932646751404,0.9702974086383361,0.6546879265899195,-0.03074459172785282,0.9999982714653015,0.8359334150320135,1.0165728501825173,0.028770852833986282,0.9999848008155823,0.9388106894579237,1.010068052151897,-0.028882617130875587,0.9999915361404419,0.8582117992073901,1.2701883212204221,0.1580684781074524,0.9258051514625549,0.9650254843560727,1.2683608106848914,0.06454702466726303,0.9694592952728271,0.8752102675474119,1.5303515380912758,0.20614740252494812,0.9496148228645325,0.9826846421159632,1.528631342697259,0.11556115001440048,0.9584733247756958,0.7689790959454992,1.0269815490804768,0.04493968188762665,0.8280318975448608,1.0077765966226067,1.0120725728701885,-0.11342565715312958,0.9945263862609863,0.0019589364528656006,0.8873720522449686,1.0133204511672071,178.7181052033371,178.0862745560708,1.0,-0.04051937060125418,0.0019274037527025286,-0.0347041605909422,0.02973034021797842,91.9743571926154,0.9373866763489838,101,3.3666666666666667
0.861205024173606,0.5290000809388383,0.17769910395145416,0.9999651312828064,0.7973720405682657,0.6579068563251798,0.02551431581377983,0.9999936819076538,0.9659262731551347,0.6587005141602961,-0.042066238820552826,0.9999982118606567,0.8335123476906059,1.0189209094738556,0.03519148379564285,0.9999855160713196,0.9335012056729907,1.0116192138460172,-0.03532947599887848,0.999991774559021,0.8581082835376227,1.275641268835766,0.16556276381015778,0.9270673394203186,0.9647208451038017,1.2677044727607607,0.06298905611038208,0.9690274596214294,0.8753881539832278,1.5341868071653133,0.21916799247264862,0.9502415060997009,0.9835027923354893,1.5290000809388382,0.11962394416332245,0.9582516551017761,0.7639810412610086,1.0281202861087235,0.05814633518457413,0.8400754332542419,0.99971625140289,1.0144315527133643,-0.1013217344880104,0.9934219121932983,0.00043454766273498535,0.8835067766817983,1.0152700616599364,178.35096653310785,177.16066043039004,1.0,-0.036984894314282354,0.005280682324003391,0.026762176582872246,0.025020620573764446,91.5400899895885,0.9390705146117991,102,3.4
0.8540025206669862,0.530305058551345,0.14425387978553772,0.9999676942825317,0.7940317110712071,0.6609597034355343,0.02402409166097641,0.9999940991401672,0.9664170647899821,0.6648570507868831,-0.07081464678049088,0.9999982714653015,0.8323124513800229,1.022555958506951,0.04166974872350693,0.9999863505363464,0.9307904738542876,1.0142302811288593,-0.04180247709155083,0.9999921917915344,0.8584078214348374,1.2781901185379259,0.1709214746952057,0.9273212552070618,0.964087071335858,1.267708422296579,0.05738748982548714,0.9691270589828491,0.8755921780194456,1.5384006616273336,0.2193346470594406,0.9514209628105164,0.9834353596807337,1.530305058551345,0.1156463474035263,0.9588950276374817,0.7607187966502796,1.0304230152885356,0.05767601728439331,0.8521143198013306,0.9988459721853484,1.0189606655346677,-0.13885772228240967,0.9932579398155212,0.002128392457962036,0.8815514626171552,1.018393119817905,177.94972226821832,176.7305137491284,1.0,-0.03310262421271617,0.0038870578330290517,0.031057747590627016,-0.010987426257930618,91.21066979934655,0.9434158898631569,103,3.433333333333333
0.8428687198021203,0.533043622707418,0.14118802547454834,0.9999698400497437,0.7931274516347211,0.665442029531136,0.02329665794968605,0.9999944567680359,0.9627187821865532,0.669232478162158,-0.0709843784570694,0.9999982714653015,0.8326110858872763,1.027508433593278,0.044112034142017365,0.9999871253967285,0.929562982117925,1.017625199504873,-0.04425695911049843,0.9999925494194031,0.8593609581213476,1.2840325850144536,0.17394332587718964,0.9282354712486267,0.966173877816451,1.2679199564211105,0.05218573287129402,0.9697250127792358,0.8797816799863687,1.545667702632321,0.22478429973125458,0.9529350996017456,0.9862278227605371,1.533043622707418,0.11359673738479614,0.9600029587745667,0.7609101463998197,1.03664363580346,0.06964234262704849,0.863010048866272,0.9961803759320853,1.0234556802354566,-0.14590264856815338,0.992761492729187,0.002059847116470337,0.8810870340026007,1.0225668165490756,178.5097261186801,176.00390910037797,1.0,-0.03565043184285361,-0.006312663803849237,-0.017652913480561954,-0.07565485789739453,90.40295805003043,0.9453607427731254,104,3.466666666666667
0.8462379314337239,0.5370020868035524,0.14533482491970062,0.999971330165863,0.7962297317366538,0.671834908637239,0.023984037339687347,0.9999947547912598,0.9677582160909352,0.6739544446283801,-0.0672667920589447,0.9999982714653015,0.8368099385415287,1.0359136779240823,0.04188856482505798,0.9999876022338867,0.9332417488543923,1.0240133353724759,-0.04202893003821373,0.9999926686286926,0.8652909753459492,1.2941646576579475,0.15200184285640717,0.9304424524307251,0.9684715842069079,1.2746342288198729,0.050701338797807693,0.9692128896713257,0.8882488554428241,1.5561809736728351,0.18046067655086517,0.9545586109161377,0.9883468094774123,1.5370020868035523,0.10827223211526871,0.9600973725318909,0.7644485794950955,1.044981226951138,0.07106100022792816,0.872730016708374,1.0025125464211777,1.0256926421790427,-0.13155165314674377,0.9921413064002991,0.0011424422264099121,0.8850258436979606,1.029963506648279,178.71407580117048,176.33041783165228,1.0,-0.02500107148950961,-0.0075759678445027605,0.0830298621947665,-0.0091928777380353,89.32481472289794,0.9520877759653491,105,3.5
0.8482340227941103,0.5362277748791788,0.16318361461162567,0.9999721646308899,0.7938722049293079,0.6724500495214988,0.023111527785658836,0.9999949932098389,0.9676945192795752,0.6744212812906898,-0.0336158461868763,0.999998152256012,0.834655022543501,1.0378803083164965,0.032522641122341156,0.999987781047821,0.9314242752677091,1.024466259837276,-0.0326785184442997,0.9999924898147583,0.8665813521275431,1.2961210769242433,0.12642216682434082,0.9344015717506409,0.9641617514524858,1.2726845344683078,0.04728133603930473,0.9690985083580017,0.88909779459869,1.5572746470234062,0.14466319978237152,0.9565027356147766,0.9855588901894311,1.5362277748791788,0.09531152248382568,0.959785521030426,0.7594158770589713,1.0458013134056543,0.067626953125,0.8827724456787109,0.9995363532732413,1.0251854960414064,-0.0757952332496643,0.9910098314285278,0.0010616779327392578,0.883039648905605,1.0311732840768861,177.88008676334434,177.1283084626708,1.0,-0.020455691218481776,0.003111498440925392,0.03489481230001576,0.08174241967175187,88.47599760714448,0.9570582163567435,106,3.533333333333333
0.8444691037266905,0.5376059848603201,0.14833416044712067,0.999973714351654,0.7944957219930124,0.6742005754605104,0.012125028297305107,0.9999951720237732,0.9665041461916462,0.6787257362130917,-0.03477531298995018,0.9999980926513672,0.8370582077906861,1.0412180358892786,0.029536757618188858,0.9999876022338867,0.9315463404155601,1.0269767641064607,-0.02969317138195038,0.9999921321868896,0.8700996426339634,1.299258882667481,0.1232975497841835,0.9374849200248718,0.9628534825879479,1.2734793302893015,0.04946886748075485,0.9678238034248352,0.8914641577665422,1.5611323603556262,0.14424832165241241,0.9579126238822937,0.9847003220377498,1.53760598486032,0.10286059230566025,0.9585511088371277,0.7580751875594722,1.048338727258525,0.05190484598278999,0.8922275304794312,1.00064210048856,1.0279371964252744,-0.08111607283353806,0.9911417365074158,0.0024308860301971436,0.8843022741031231,1.0340973999978698,177.36718916215523,177.490252708525,1.0,-0.008153263469706627,0.0019902984847706153,0.09810958906592966,-0.008967039624165288,88.04384168788178,0.9614226876862889,107,3.566666666666667
0.8512330202259291,0.5401959758520302,0.1465015411376953,0.9999722242355347,0.7983566579161562,0.6784921019281682,-0.00877372920513153,0.9999951720237732,0.9725226003365386,0.6841365329776701,-0.03678891435265541,0.9999979138374329,0.84116879782859,1.048183045389835,0.018024694174528122,0.9999863505363464,0.9358504088143685,1.0333204284798465,-0.018189359456300735,0.9999908208847046,0.8755573104468902,1.3073870217671415,0.1097044125199318,0.9405580759048462,0.9619965278611394,1.2807050181641304,0.06908360123634338,0.9646133184432983,0.8978849589075146,1.570813643381837,0.12818053364753723,0.9593684077262878,0.9867489450645188,1.5401959758520303,0.1305428445339203,0.955810010433197,0.7600624636597353,1.0548976263965633,0.028516355901956558,0.9006776213645935,1.0070510303019882,1.0345133550717023,-0.07271751016378403,0.9912495613098145,0.0030128657817840576,0.8885096033214792,1.040751736934841,177.28744499694562,179.4156614419913,1.0,-0.01110846128111539,0.0002697875888044933,-0.022195400451640968,-0.01325182528660283,87.68453857306416,0.9698243135725463,108,3.6
