nose_x,nose_y,nose_z,nose_visibility,left_shoulder_x,left_shoulder_y,left_shoulder_z,left_shoulder_visibility,right_shoulder_x,right_shoulder_y,right_shoulder_z,right_shoulder_visibility,left_hip_x,left_hip_y,left_hip_z,left_hip_visibility,right_hip_x,right_hip_y,right_hip_z,right_hip_visibility,left_knee_x,left_knee_y,left_knee_z,left_knee_visibility,right_knee_x,right_knee_y,right_knee_z,right_knee_visibility,left_ankle_x,left_ankle_y,left_ankle_z,left_ankle_visibility,right_ankle_x,right_ankle_y,right_ankle_z,right_ankle_visibility,left_wrist_x,left_wrist_y,left_wrist_z,left_wrist_visibility,right_wrist_x,right_wrist_y,right_wrist_z,right_wrist_visibility,trunk_lateral_inclination,center_mass_x,center_mass_y,left_knee_angle,right_knee_angle,person_height,center_mass_velocity_x,center_mass_velocity_y,center_mass_acceleration_x,center_mass_acceleration_y,body_orientation,torso_leg_ratio,frame,timestamp
0.9048991451473396,0.43186471694660217,-0.13689088821411133,0.9995805621147156,0.8607664502494622,0.5278208155244185,0.02405572310090065,0.9999716877937317,0.8507107403553412,0.5371008311907689,-0.29917505383491516,0.9999241232872009,0.8775056049724426,0.8758427383164584,0.10905207693576813,0.9997637271881104,0.8705182186912211,0.8992824655136593,-0.10935647785663605,0.9997904300689697,0.9071045522459763,1.1925098331742592,0.2872662842273712,0.9063391089439392,0.8828191351836041,1.2147413188455234,-0.11177468299865723,0.9545544385910034,0.893122651414944,1.4318647169466021,0.4032437205314636,0.8265199065208435,0.8704200069906534,1.4676448631246202,-0.06894909590482712,0.8943558931350708,0.9279784987658443,0.9550101803060889,0.005659817717969418,0.9250374436378479,0.922138565720087,0.9594145592608857,-0.5180712938308716,0.9902432560920715,0.005586981773376465,0.8740119118318319,0.8875626019150589,171.31693485681478,174.96015664998046,1.0,0.1888722109764141,-0.5909193200153584,1.003168276619426,-3.086566376839252,160.64698358448325,0.8123531727068586,0,0.0
0.921270445232864,0.44479192600596607,-0.11595982313156128,0.9995885491371155,0.8446508623290515,0.5433575588986487,0.053236328065395355,0.9999690055847168,0.8905926956193694,0.5523657068218131,-0.30099284648895264,0.9999309182167053,0.871347391361447,0.8914018595863721,0.12323489040136337,0.9997838139533997,0.908359011621274,0.9025073536160116,-0.12349513918161392,0.999809980392456,0.9062629331610687,1.1717703288629364,0.32100042700767517,0.8783356547355652,0.9187258228165174,1.200999209495786,-0.1486586034297943,0.9572578072547913,0.8956748416329515,1.444791926005966,0.4183688759803772,0.8311325311660767,0.9030320577600488,1.474545916429659,-0.16399872303009033,0.9036762714385986,0.9268740502160323,0.9590691217087466,0.025760019198060036,0.8610658049583435,0.9524244241970348,0.966915750707727,-0.5199713706970215,0.9908669590950012,0.005294531583786011,0.8898532014913605,0.8969546066011919,170.68036380444804,174.72733955921063,1.0,-0.04527890260229283,-0.10194694061823097,-1.99579175576136,4.207718798631594,111.08834548722541,0.8053587259029377,1,0.03333333333333333
0.9682081997320077,0.4694448580449532,-0.08306079357862473,0.9996173977851868,0.8796393110627062,0.5559367254018601,0.126199871301651,0.9999645948410034,0.9175380345672687,0.5695185069029132,-0.2594122290611267,0.9999375343322754,0.9029571072601084,0.9167342339104544,0.12822362780570984,0.999801754951477,0.9367474586317464,0.9275480722148045,-0.12849104404449463,0.9998278617858887,0.9283354730131766,1.1988056751191156,0.2468576729297638,0.8612632751464844,0.9417487926771934,1.2313532701291785,-0.11650240421295166,0.9597995281219482,0.9103828178475507,1.469444858044953,0.36904972791671753,0.8340533971786499,0.9215281824042079,1.5094771200955925,-0.07707280665636063,0.9119126796722412,0.9388182002515095,0.9801159501130837,0.11202162504196167,0.8013867139816284,0.9740612884507267,0.984703862410585,-0.5099303722381592,0.9917569160461426,0.007799267768859863,0.9198522829459274,0.9221411530626294,171.06374598265865,174.898570421766,1.0,0.06821914112551737,0.0307769724869995,0.86142184361293,1.0160055840869606,111.44389245959944,0.8024740803030515,2,0.06666666666666667
0.9777918072986197,0.47223058192447404,-0.1148744598031044,0.9994442462921143,0.8995100135152253,0.5592006301135392,0.08098732680082321,0.9999231696128845,0.9223420462697345,0.5753659581485173,-0.27888384461402893,0.9999419450759888,0.9198710887655848,0.9367148225663888,0.12106318771839142,0.9998103380203247,0.9429110158381432,0.9498111172769552,-0.12129326164722443,0.9998413324356079,0.9381578290722242,1.2155097958807706,0.2570951581001282,0.7980181574821472,0.9473475957912345,1.2531560530682453,-0.06817124783992767,0.955116868019104,0.9225561198143656,1.472230581924474,0.3754904866218567,0.8030814528465271,0.9308055967664003,1.5191781461073937,-0.013383246958255768,0.9158450961112976,0.9488403503076862,0.5732924610660286,0.17946219444274902,0.7369916439056396,0.980427195069438,0.9936814266221294,-0.500676155090332,0.9923091530799866,0.00919988751411438,0.931391052301864,0.943262969921672,172.7694639055458,175.60384809216973,1.0,0.02513221800068426,0.09923435906238015,-0.33866196656443637,0.5283473014291188,122.70188557786715,0.8567308760945892,3,0.1
0.9543336476009879,0.45408592404405607,-0.1790725290775299,0.9994230270385742,0.8893387379822201,0.5437989783130839,0.03322325274348259,0.9999141097068787,0.901491803244411,0.5604329458102233,-0.3173471689224243,0.9999470114707947,0.8996482197996171,0.9035763019919217,0.12091301381587982,0.9998225569725037,0.9127415891158913,0.9091738599144832,-0.12108205258846283,0.9998549222946167,0.9150960721167005,1.1800854637346738,0.24120362102985382,0.7307018041610718,0.9253043735868092,1.1982582496789282,-0.09685899317264557,0.940467119216919,0.8978051463364121,1.454085924044056,0.35095733404159546,0.758048951625824,0.9115790350852544,1.4775241679000146,-0.0763116329908371,0.9137749075889587,0.9451977354165537,0.8968793257594607,0.025573302060365677,0.6738687753677368,0.9559488612901585,0.9675129998131937,-0.5231724977493286,0.9928757548332214,0.009720563888549805,0.9061949044577542,0.9063750809532025,173.19146835729947,174.6979499819765,1.0,-0.006652911145832163,-0.09451432885588831,-0.24030037876047897,-1.4756527277225175,114.78860658296233,0.8130431465313908,4,0.13333333333333333
0.9649342086212115,0.46801583390543783,-0.15202264487743378,0.9994485974311829,0.8901212349052178,0.555529399765623,0.0680670291185379,0.9999061822891235,0.9023553792815905,0.5708777915561217,-0.318226158618927,0.9999517202377319,0.90334208979978,0.9140787425949943,0.12598136067390442,0.999834418296814,0.9161981303650014,0.9201660884118661,-0.126152902841568,0.9998676180839539,0.9151234707896119,1.2002323782198978,0.22872428596019745,0.6742075681686401,0.92869796699809,1.2183499865078151,-0.09984732419252396,0.9296538233757019,0.8993356924796637,1.4680158339054379,0.3197753429412842,0.7144401669502258,0.9159703648578938,1.4951133689486014,-0.0817173421382904,0.9120943546295166,0.9523261269946459,0.939300646112931,0.04489394277334213,0.6115207076072693,0.9620644862373308,0.9741830052797623,-0.4818130433559418,0.9934048652648926,0.008924812078475952,0.9097701100823907,0.9171224155034302,174.26828075403355,174.96654914632472,1.0,-0.007204308281213342,0.04765130854004106,-0.003964187350381804,1.0910856579805217,117.44931461182591,0.8016361500116189,5,0.16666666666666666
0.9785031315777956,0.48458805972342206,-0.07948680222034454,0.9994953274726868,0.8886466996053749,0.5763584319999437,0.1510045826435089,0.9999037981033325,0.9081666660975805,0.5844737561767839,-0.2898736000061035,0.9999562501907349,0.9073226595528824,0.9276101681008155,0.14080029726028442,0.9998449087142944,0.9267121501038272,0.9298431588132257,-0.14098218083381653,0.9998791813850403,0.9214499653736925,1.2116413925145715,0.21861879527568817,0.6260510683059692,0.9368656823131222,1.230012218797703,-0.11929430067539215,0.9272391200065613,0.910163848189742,1.484588059723422,0.27648696303367615,0.6770338416099548,0.9236724021241607,1.510486033745569,-0.11743475496768951,0.9141550660133362,0.9405677431397437,0.966500069273309,0.10761680454015732,0.5544933080673218,0.9671700389161826,0.9831064179780741,-0.4287433624267578,0.9939844608306885,0.00467488169670105,0.9170174048283548,0.9287266634570206,174.78475277669207,175.36948329718808,1.0,-0.00958007009586795,0.02149656888825448,-0.016727356768458705,-0.1928187475711381,99.61306196814148,0.7882644697057231,6,0.2
0.979183230771836,0.4799699440224455,-0.13770374655723572,0.9995370507240295,0.8931309060285013,0.5807078065001369,0.09982986748218536,0.9999059438705444,0.9027620770138476,0.5862353473495435,-0.3070152699947357,0.9999603629112244,0.907604922291028,0.9286695077419853,0.13588294386863708,0.9998555183410645,0.921631527014653,0.9292127415537004,-0.13604646921157837,0.9998898506164551,0.9191169151506166,1.2064796507773787,0.21824955940246582,0.5734594464302063,0.931327646501723,1.2239487326058827,-0.11162881553173065,0.9111770391464233,0.9081911109146938,1.4799699440224456,0.2750176787376404,0.6349510550498962,0.9213433373988962,1.506895486399226,-0.10107710212469101,0.9077070355415344,0.9498282633576042,0.9732058002212999,0.07972011715173721,0.5036252737045288,0.9678313891462277,0.9836729379315358,-0.4404474198818207,0.9943942427635193,0.003190755844116211,0.9146182246528405,0.9289411246478428,175.339393215902,176.09483246116366,1.0,-0.0039027871358810486,0.016386305288461092,0.043515831647876466,-0.03896541284015762,94.59982456282658,0.8035344719350385,7,0.23333333333333334
0.9849379870751093,0.48124726461855344,-0.14606973528862,0.9995687007904053,0.9049960750191767,0.5897216320519026,0.0971856415271759,0.9999068379402161,0.9082799139647122,0.5972585542612897,-0.3133065402507782,0.9999641180038452,0.9184099660582065,0.9391068452176345,0.1347537338733673,0.999866783618927,0.929079159000736,0.9402439195372937,-0.13487118482589722,0.9999000430107117,0.9249620076137487,1.213497847736596,0.2366735190153122,0.5242637395858765,0.939189405069227,1.232315030880981,-0.1265372931957245,0.9054973721504211,0.9172388045270944,1.4812472646185535,0.3106910288333893,0.5993601083755493,0.9313169270993904,1.5182506526476147,-0.11874240636825562,0.9079636931419373,0.961243309668087,0.9783972036811478,0.0872320830821991,0.4566454291343689,0.9763922084973997,0.9935101389387442,-0.446166455745697,0.994780957698822,0.004309535026550293,0.9237445625294712,0.9396753823774642,176.97989104873318,176.44036935858767,1.0,0.0031122578062262878,0.014638064824902415,0.055248849466240674,-0.014921196124864826,98.28202996740335,0.8257712242141236,8,0.26666666666666666
0.9944672070209032,0.49848975736692974,-0.13018301129341125,0.9996069073677063,0.9145735900836164,0.6062410835366526,0.11221873760223389,0.9999135136604309,0.9151243482313658,0.6094920514030411,-0.3130255341529846,0.9999675750732422,0.9354927151129268,0.9492910383638525,0.13682249188423157,0.9998778104782104,0.93850988446132,0.9503536057842238,-0.13691453635692596,0.9999093413352966,0.9350776464247432,1.222925623701759,0.23043346405029297,0.4820363223552704,0.9473929649383805,1.2442292899225311,-0.14746889472007751,0.9034801125526428,0.9276208316479612,1.4984897573669298,0.3164834976196289,0.5690673589706421,0.9401799490664507,1.5332914194312253,-0.14429619908332825,0.9087700843811035,0.9728383703264311,0.9887975140090945,0.09977754205465317,0.4244554042816162,0.983683737239309,1.002420146253026,-0.46028751134872437,0.9951570630073547,0.0018407702445983887,0.9370012997871233,0.9498223220740382,178.5368545292849,176.8392135481318,1.0,0.03196736431091654,0.006949146586188545,0.2207716197733527,-0.05999309749408395,112.89048384914274,0.8037335075331377,9,0.3
0.9971380072729067,0.5068263316829117,-0.1579398810863495,0.9996414184570312,0.9283125632037235,0.6144554808249546,0.09355877339839935,0.9999193549156189,0.9158858655501948,0.6152709106877836,-0.3312932550907135,0.9999706149101257,0.9439805220617673,0.9518639071022649,0.13623008131980896,0.9998881220817566,0.9382124564675662,0.9522153882186968,-0.1362811028957367,0.99991774559021,0.9373194645401901,1.2227125346887238,0.22477230429649353,0.4547453820705414,0.9482707429617963,1.2459811540528658,-0.13181082904338837,0.9071727991104126,0.9297512841372607,1.5068263316829118,0.32627174258232117,0.5710596442222595,0.9413566991820972,1.5351750290014103,-0.10781538486480713,0.9142171144485474,1.0257421163117768,0.980869799235526,0.0959479957818985,0.4103923439979553,0.9847365133357978,1.0036458388532372,-0.5000503063201904,0.9955496788024902,0.000460892915725708,0.9410964892646668,0.9520396476604809,179.88293197829742,176.6694420593886,1.0,0.018230610121544484,0.003940735724157378,-0.1037032983195166,-0.022710793198611468,90.82835941713088,0.7886373140804542,10,0.3333333333333333
1.1488512342242245,0.5753162448852571,-0.1872888207435608,0.9996681213378906,1.0747748054391932,0.707455854572331,0.08084648847579956,0.9999246597290039,1.0554522004031013,0.7095694620372419,-0.35213327407836914,0.9999734163284302,1.0909084609942354,1.0980282559912087,0.13848228752613068,0.999897301197052,1.0799560429942305,1.098565926999278,-0.13848178088665009,0.999925434589386,1.0917177026629485,1.4008673485513394,0.2634374499320984,0.429334819316864,1.0924994712030556,1.4378294040276092,-0.14482872188091278,0.9147313833236694,1.2123061381776807,1.5753162448852571,0.4397203028202057,0.5729749798774719,1.0846082404798316,1.7687360658966087,-0.10667015612125397,0.9210374355316162,1.1779537867939345,1.1297860985969255,0.09329046308994293,0.40049535036087036,1.1352336796244205,1.1575101322357049,-0.4925660192966461,0.9959068894386292,0.0010363459587097168,1.085432251994233,1.0982970914952432,145.49879638249777,176.51650390837364,1.0,0.004654487277580691,0.006632788561608171,-0.129375030438661,0.01652799680721306,90.44506820057337,0.9127305980453494,11,0.36666666666666664
1.9093241176542481,0.9529457348915868,-0.20389142632484436,0.9996887445449829,1.7983355738538978,1.174444550727059,0.0745612233877182,0.9999288320541382,1.7516144323530294,1.1815157002933974,-0.3712191581726074,0.9999760389328003,1.8157931498352209,1.823607918564308,0.137058287858963,0.9999045729637146,1.7941439536398602,1.8263888643383905,-0.1370563805103302,0.9999324679374695,2.1257892115424806,1.9807261023962173,0.24488332867622375,0.42541244626045227,1.8145259064209525,2.389396649309829,-0.13403239846229553,0.9229801893234253,2.491471661918123,1.9529457348915868,0.4101570248603821,0.5817813873291016,1.8020470031551796,2.9432052531310133,-0.062390923500061035,0.9285472631454468,1.9559125349524744,1.8739144316762775,0.07851730287075043,0.3881290853023529,1.882087373938522,1.9215448450737858,-0.48744621872901917,0.9962453842163086,0.002086341381072998,1.8049685517375407,1.8249983914513492,148.77798418558172,176.63586868342463,1.0,0.009278229729909857,-0.0014125830650643404,0.012228188470524308,-0.09852903068494413,95.77938862524559,1.235841226160594,12,0.4
1.0368381512151634,0.514359702614652,-0.2001810520887375,0.9997178316116333,0.9817693305269155,0.6374975042144199,0.0716760903596878,0.9999347925186157,0.9490594620058584,0.6400389465799179,-0.3565860390663147,0.9999783039093018,0.9879764622427698,0.9893586002237648,0.13509181141853333,0.9999113082885742,0.9727888298360382,0.9907994593491648,-0.13511700928211212,0.9999381899833679,1.0229625419901374,1.1726762627168663,0.2068788707256317,0.39373376965522766,0.9843893233784926,1.2940708351192978,-0.12460173666477203,0.9164628386497498,1.0161534089897581,1.514359702614652,0.31902825832366943,0.5497693419456482,0.9774038078361504,1.5969156061575036,-0.06616591662168503,0.9251920580863953,1.0736329736754533,1.0071720318638897,0.07597264647483826,0.3917123079299927,1.0191970486051674,1.0417478304810395,-0.49225202202796936,0.9965206980705261,0.0013827085494995117,0.980382646039404,0.9900790297864648,168.05341454202298,176.4880670482123,1.0,0.011803348174028025,0.0028444541226003415,0.05203299967795907,0.02774273395360056,94.40882023444453,0.846693428355551,13,0.43333333333333335
0.9890114193068265,0.4914096502075682,-0.2248000204563141,0.9997448921203613,0.9367292025322311,0.6091578536619188,0.061685096472501755,0.9999402761459351,0.9045558921194451,0.6112830825080185,-0.3778342306613922,0.9999803900718689,0.9423795984713556,0.9441657805890474,0.13782711327075958,0.9999184012413025,0.9264096308901537,0.9445659121145353,-0.13784071803092957,0.9999436736106873,0.943162423640088,1.1606201245064791,0.20265629887580872,0.3679957985877991,0.9394079536164862,1.233030356220432,-0.12368843704462051,0.9156093597412109,0.9317352854294172,1.4914096502075682,0.31086066365242004,0.5274820923805237,0.9316993654803651,1.5228248826258235,-0.06604903191328049,0.9237415194511414,1.008249788996404,0.9633279248053457,0.07043477892875671,0.3812077045440674,0.9708483508827693,0.9930108550294873,-0.5247844457626343,0.9967477917671204,0.0012131333351135254,0.9343946146807547,0.9443658463517914,177.81428757709205,175.89625556157137,1.0,-0.00020846774372741724,0.0052972087167938425,-0.0864893645264603,0.019520085152463902,90.46897474388213,0.810714148076999,14,0.4666666666666667
0.9896578448434815,0.4922256321449738,-0.22302234172821045,0.9997685551643372,0.9368257602273778,0.6077766615718982,0.05289580300450325,0.9999448657035828,0.9049623232185644,0.6135070873500156,-0.37790775299072266,0.9999822378158569,0.9445148843676716,0.9445251251081482,0.13676077127456665,0.9999246597290039,0.9267705025502317,0.9455078182044941,-0.1367914229631424,0.9999486207962036,0.9407025074818798,1.174961326836315,0.19738146662712097,0.344992071390152,0.9416499849706684,1.2319874126669914,-0.12181998789310455,0.9125129580497742,0.9290779085753714,1.4922256321449738,0.30279970169067383,0.5057200789451599,0.9326764838793764,1.5222121922180718,-0.06855406612157822,0.9221673011779785,0.9882646861492574,0.9640598600540116,0.06876394897699356,0.36355966329574585,0.9720621627576559,0.9939032587551409,-0.5151316523551941,0.9969534873962402,0.003268599510192871,0.9356426934589517,0.9450164716563212,178.84943999339038,175.255810292715,1.0,0.004183923015383413,-0.00048553670462859083,0.03390289880285439,-0.04466371540232471,91.86179993028567,0.8110663686069167,15,0.5
0.985310101883306,0.48939603639499224,-0.21536779403686523,0.9997891187667847,0.9322960352134921,0.604797577539589,0.056308288127183914,0.9999487996101379,0.9012688010110727,0.6113489696980612,-0.36939698457717896,0.9999838471412659,0.9425262648258097,0.9410467352002666,0.13653624057769775,0.9999290704727173,0.9242306052981276,0.9432000842352335,-0.13657303154468536,0.999952495098114,0.9360224970115073,1.1803149796050698,0.1952795386314392,0.32124751806259155,0.9386838390509524,1.2269344761371588,-0.11259164661169052,0.9058349132537842,0.923419065654088,1.4893960363949923,0.29407209157943726,0.4811992943286896,0.929887128222379,1.514726878550063,-0.05668964982032776,0.9159659147262573,0.9882014981317464,0.9599361636003962,0.06740352511405945,0.35247403383255005,0.9686763497975289,0.9903063379986626,-0.5078325271606445,0.9971311688423157,0.0037512481212615967,0.9333784350619686,0.94212340971775,179.22196282255203,175.3331457981116,1.0,0.011145994035795947,0.006143668750671182,0.05887617214583728,0.05591672630358386,94.97001316618554,0.8137719080623693,16,0.5333333333333333
0.9861670011208227,0.48972249164073056,-0.19347736239433289,0.9998065233230591,0.9267198333086323,0.6053887036832064,0.07117368280887604,0.9999521970748901,0.9022556947360105,0.6113899097609544,-0.3684985041618347,0.9999852776527405,0.940218065360409,0.9425166169206496,0.13686339557170868,0.9999335408210754,0.9250946716835833,0.9447361668447851,-0.13692240417003632,0.9999562501907349,0.9313623780034431,1.1849155234879785,0.19930210709571838,0.2982543706893921,0.9396595300465734,1.2299120622157687,-0.10942689329385757,0.9001065492630005,0.9218722804103666,1.4897224916407306,0.304721474647522,0.4568462371826172,0.9309501728968524,1.516931780732314,-0.05481799319386482,0.9099658131599426,0.9803225476297529,0.9668952919819176,0.08397269248962402,0.3370509445667267,0.9697207990463106,0.9916486515838161,-0.4935671389102936,0.9972636103630066,0.003432035446166992,0.9326563685219961,0.9436263918827174,179.69102888212626,175.3382030530621,1.0,-0.013145885401354338,0.0025079778005442158,-0.17181899102286344,-0.025754178766213952,96.05644183802494,0.8165387007085021,17,0.5666666666666667
0.9891762319136115,0.4933077127197196,-0.18901881575584412,0.9998215436935425,0.923564559371197,0.6064064082906214,0.07238657772541046,0.9999551773071289,0.9052118341091412,0.6133070329891543,-0.3639400899410248,0.9999865889549255,0.9413982842031924,0.9476839096010635,0.13794082403182983,0.999937891960144,0.9286627477585231,0.9507622524702324,-0.13801561295986176,0.9999597668647766,0.9335049391575785,1.1958719439902015,0.21570703387260437,0.27632567286491394,0.9431993610532686,1.2349789348883478,-0.10790141671895981,0.8957669734954834,0.9256397244999732,1.4933077127197196,0.3273419141769409,0.4337647557258606,0.9340421354520012,1.5226711319736108,-0.04687701165676117,0.9040701985359192,0.9743690858538919,0.9754009168519586,0.09107258170843124,0.31839635968208313,0.9730033502873823,0.9951840043711904,-0.4777970314025879,0.9973679184913635,0.0039331912994384766,0.9350305159808577,0.9492230810356479,179.69312785890483,175.2489821372456,1.0,-0.005979838689933559,0.019115465887940938,0.056798537677319995,0.13075936161306448,100.59717619170283,0.8216280736941357,18,0.6
0.9884481820078573,0.4941484252155848,-0.1895260512828827,0.999837338924408,0.9186300465864898,0.6058007474545809,0.0707026869058609,0.9999585747718811,0.9051463717287096,0.6129046511713032,-0.3646676242351532,0.9999878406524658,0.9392927157429287,0.9479818883189697,0.13788332045078278,0.999942421913147,0.928203049953539,0.9512406940754263,-0.1379624903202057,0.9999631643295288,0.934151311705921,1.1988987411869227,0.20170755684375763,0.26149919629096985,0.9436314453838901,1.2350749363220361,-0.12072213739156723,0.8980252146720886,0.9258141654513252,1.4941484252155848,0.29244464635849,0.42268919944763184,0.9340775807027663,1.5226674726528573,-0.08242645859718323,0.9047078490257263,0.9702440496204422,0.9784673050063352,0.08924569189548492,0.30624523758888245,0.9728568462896834,0.9954487577371798,-0.4800432324409485,0.9975095391273499,0.004048705101013184,0.9337478828482338,0.949611291197198,179.55638691203626,174.98595756274327,1.0,-0.010325920314777427,0.0023177485658226827,-0.03290810912135762,-0.12721836332832076,102.9203165242606,0.8209135599489399,19,0.6333333333333333
0.9849348463542563,0.4920754220226999,-0.19037160277366638,0.999849796295166,0.9152834016694913,0.6033323537647302,0.06946145743131638,0.9999611377716064,0.9019639091072208,0.6107334731411722,-0.36366111040115356,0.9999889135360718,0.9359565899109784,0.9453375183616999,0.1379060298204422,0.9999459385871887,0.924953145647711,0.9487109587669713,-0.1379883587360382,0.9999659657478333,0.9322439918996156,1.1999403399466113,0.1999046951532364,0.24544832110404968,0.9407433607214739,1.231032149670856,-0.112776018679142,0.8950920104980469,0.9251334599250737,1.4920754220227,0.29837092757225037,0.40716663002967834,0.9310012825764972,1.5177211152031567,-0.0578576922416687,0.9008421301841736,0.9676667838014616,0.9759717675786487,0.08587324619293213,0.2924959361553192,0.9693151481346931,0.9920906132399979,-0.4794844686985016,0.9976035356521606,0.004232466220855713,0.9304548677793447,0.9470242385643356,179.44112634143076,174.85254504611422,1.0,-0.0009299722262658909,0.0048251190551248935,0.0709018894379056,0.01905109949030848,103.58536395206127,0.8213208158545341,20,0.6666666666666666
0.988185157810716,0.49524362546462397,-0.1912710815668106,0.9998622536659241,0.9150444185379518,0.6049129551432769,0.06870214641094208,0.9999638199806213,0.9049415835897039,0.6124557533634503,-0.3627045750617981,0.9999898672103882,0.9371291603080578,0.9507294240557908,0.13772214949131012,0.9999497532844543,0.9267554662685004,0.9525429250219681,-0.1378059983253479,0.9999687671661377,0.936513923229226,1.2084888703319618,0.20102521777153015,0.23130536079406738,0.9440228902076857,1.2357044571745894,-0.11390376091003418,0.8939200043678284,0.9278530207717026,1.495243625464624,0.30308791995048523,0.39408165216445923,0.9341039047893691,1.5220943368749815,-0.05898647382855415,0.8984069228172302,0.9716849239463752,0.9821713539320452,0.0853174552321434,0.28134244680404663,0.972453891860815,0.9955194781936209,-0.4794197976589203,0.997657060623169,0.0042990148067474365,0.931942313288279,0.9516361745388794,178.4067688334603,174.52675656575363,1.0,-0.01247765766044606,0.010798766214906703,-0.08756647592155464,0.045187432264651425,96.26199147884829,0.8255220328864897,21,0.7
0.98570674085483,0.4935412718151112,-0.20218782126903534,0.9998728036880493,0.9152181483746928,0.602915246096161,0.06100735068321228,0.999966025352478,0.9024291162539788,0.6105253865749785,-0.3653815686702728,0.9999907612800598,0.9344873127218062,0.9480368791895935,0.13765685260295868,0.9999527931213379,0.9220033077456403,0.9500771718675707,-0.13774022459983826,0.9999710917472839,0.9345516551998186,1.2066972906967608,0.18020232021808624,0.2215023785829544,0.9412841517646133,1.2325404417762882,-0.10814748704433441,0.8925529718399048,0.9275847309355558,1.4935412718151113,0.2628170847892761,0.3890575170516968,0.9314494509276762,1.5169528612093643,-0.05724899843335152,0.896973192691803,0.9696219556140142,0.9792465266402626,0.07214689254760742,0.27058690786361694,0.9693176584489573,0.992756987063877,-0.48013606667518616,0.9977611303329468,0.004349708557128906,0.9282453102337233,0.9490570255285821,178.59440965975278,174.1146250355603,1.0,-0.008246077911779556,0.0008915117710844774,0.03267191800902159,-0.07689948984076074,96.08625929760427,0.8254787608606178,22,0.7333333333333333
0.9851639269410436,0.49289103204681173,-0.2310403287410736,0.9998836517333984,0.9145908550395446,0.6018317405249227,0.029393743723630905,0.9999685287475586,0.9015381904938674,0.6097962080051835,-0.38732054829597473,0.9999915957450867,0.9335628626365993,0.947018832241713,0.1359982043504715,0.9999557733535767,0.917777913104169,0.9500716983878268,-0.13607339560985565,0.9999732375144958,0.9349978201627213,1.205409642970836,0.1794596016407013,0.21338841319084167,0.9411748158650897,1.2316091564522011,-0.09845656156539917,0.8898041248321533,0.9277741691704798,1.4928910320468116,0.27031856775283813,0.38297101855278015,0.9306080357725649,1.5152998322027995,-0.03652004152536392,0.8943905830383301,0.9667097251165024,0.9778432785294441,0.03721632808446884,0.2648307979106903,0.9675889530670537,0.9918967564052548,-0.5054818391799927,0.9978691935539246,0.004556447267532349,0.9256703878703841,0.9485452653147699,178.24242535365877,173.11626419810295,1.0,-0.013495976882552121,0.002883331997161919,-0.041353131909606725,0.015673161121057915,97.80016850298516,0.827128005881703,23,0.7666666666666667
0.9870003843618789,0.4953335837287779,-0.2304064780473709,0.9998937249183655,0.9167580944085473,0.6028250493709806,0.0340595468878746,0.9999709725379944,0.9035702646292912,0.610868307097834,-0.39336949586868286,0.999992311000824,0.9323869666039425,0.954971306477552,0.1373981088399887,0.9999590516090393,0.9194576050517803,0.9556970217904582,-0.13745996356010437,0.9999755024909973,0.9388912631684655,1.2089995379723857,0.2167990654706955,0.20606720447540283,0.948553861918256,1.2351914721352253,-0.13482530415058136,0.8956764340400696,0.9287946131713989,1.4953335837287778,0.3367716372013092,0.378963828086853,0.9319289057879137,1.518319300958274,-0.0805436223745346,0.8973521590232849,0.9645613545739377,0.980725013815941,0.04524604231119156,0.2588467597961426,0.9691861194628454,0.9929770967504197,-0.5299092531204224,0.9978897571563721,0.004592567682266235,0.9259222858278614,0.9553341641340052,176.51376894907142,170.69624952498447,1.0,-0.01208225927037287,0.03842480035199373,0.011202625446896491,0.27644817829503077,90.67137782345733,0.8413921604078232,24,0.8
0.9871605551337889,0.4959619163327482,-0.21168705821037292,0.9999023675918579,0.9172353903794115,0.602617568224658,0.04475583881139755,0.9999731779098511,0.9039875900018783,0.6110638240556792,-0.3853031396865845,0.9999929666519165,0.9293436376885303,0.9566964613400305,0.1390887051820755,0.9999621510505676,0.9174392026929119,0.9582857170899235,-0.13914380967617035,0.9999775290489197,0.9423061843567994,1.2120165944152712,0.21548080444335938,0.20024047791957855,0.9506134155487704,1.2380631189611335,-0.14932242035865784,0.9012463092803955,0.9297490696625684,1.4959619163327482,0.3246239125728607,0.3770984709262848,0.9320940598003287,1.5188935163147477,-0.11978533118963242,0.9007550477981567,0.9626968127909767,0.980767614390444,0.04604409635066986,0.25235700607299805,0.9681646628080847,0.993065265150736,-0.5236487984657288,0.9978920221328735,0.0048216283321380615,0.9233914201907212,0.9574910892149769,174.5614195250808,169.46490045415837,1.0,-0.02043107135387965,0.014585366222716667,-0.06242851307413845,-0.178378320256287,95.64554028955662,0.8471315306308173,25,0.8333333333333334
0.9892786517459297,0.5023438515514479,-0.15238365530967712,0.9999081492424011,0.9171813313114474,0.6041336024415371,0.09399082511663437,0.99997478723526,0.9074913436483342,0.612375124003104,-0.3429225981235504,0.9999935626983643,0.9202582036896628,0.9609747945138124,0.1406499147415161,0.9999649524688721,0.9136397529693399,0.9607816726746983,-0.1407204270362854,0.9999793767929077,0.9462000322741535,1.2184910499378447,0.20917455852031708,0.19320090115070343,0.953726867029703,1.2405354998688372,-0.150455042719841,0.904367208480835,0.9320826793719774,1.5023438515514478,0.2996431887149811,0.3690778613090515,0.9340832584236456,1.521930967311827,-0.1273750513792038,0.9012893438339233,0.9539388198173764,0.9834937843485002,0.08970867097377777,0.23980408906936646,0.9674373668266164,0.9947835657081103,-0.48998409509658813,0.9977798461914062,0.00469556450843811,0.9169489783295013,0.9608782335942553,171.40026374765367,167.85213951407,1.0,-0.06226944695011811,0.011422974888807728,-0.3155045696032906,-0.024085964200732918,87.83460072232899,0.8417163171531372,26,0.8666666666666667
0.9897409362842955,0.5042452452270277,-0.16154485940933228,0.9999122619628906,0.917942760940648,0.6046574590824588,0.09221582114696503,0.999975860118866,0.9084743202827709,0.6120632092623076,-0.3402947783470154,0.9999940395355225,0.9157049807683739,0.9639565208569061,0.14054587483406067,0.999967098236084,0.906358705440771,0.9618989554655074,-0.1406187117099762,0.9999808669090271,0.9463399246131134,1.2214760165818517,0.1981022208929062,0.18410536646842957,0.9533621300445757,1.2402845615446552,-0.14324282109737396,0.9028247594833374,0.9319818375297333,1.5042452452270278,0.2804836630821228,0.3582679331302643,0.9340361605193868,1.52163487334865,-0.11478561162948608,0.8978418111801147,0.9565427169694966,0.9835391630879965,0.09033839404582977,0.22684243321418762,0.9642774140360852,0.9945779721266411,-0.4893379211425781,0.9976334571838379,0.004220306873321533,0.9110318431045725,0.9629277381612068,170.3090884569044,166.48692539919205,1.0,-0.04603373743449446,0.01818561685749136,0.13061052765243827,0.05446854479890195,77.94132820341052,0.8454612597124502,27,0.9
0.9936480536337459,0.5053795974294683,-0.14646564424037933,0.9999150633811951,0.9185690438985229,0.6068925645177419,0.09606365859508514,0.9999771118164062,0.9134430036423078,0.6136231835015866,-0.3348528742790222,0.9999945163726807,0.9110742699630374,0.9678562001604055,0.14088766276836395,0.9999690651893616,0.9019982798656223,0.9647936087563316,-0.14095720648765564,0.9999822378158569,0.9488920827041112,1.223344294706928,0.21403229236602783,0.1736457198858261,0.9562645960379289,1.2423463370456589,-0.15096865594387054,0.9023248553276062,0.933977232184459,1.5053795974294681,0.3158308267593384,0.342862606048584,0.9352236198263114,1.5247385736755534,-0.11439453065395355,0.8941815495491028,0.9508889010998164,0.9906200346363132,0.09041529893875122,0.21587014198303223,0.9644157218752555,0.9968348961719913,-0.4798054099082947,0.9975813031196594,0.0038293004035949707,0.9065362749143299,0.9663249044583685,168.5529653809227,164.6760287054084,1.0,-0.04358912048322387,0.013253304498280659,0.01834617963855311,-0.036125247137687215,72.54308312465935,0.853766209773769,28,0.9333333333333333
1.002232796738771,0.5141318153695101,-0.1606210172176361,0.9999147057533264,0.9261274738232235,0.6136722031376561,0.09173287451267242,0.999978244304657,0.9237059714810555,0.6199538706754812,-0.34030240774154663,0.9999949336051941,0.9124635229328424,0.9787315979760178,0.14148101210594177,0.9999710917472839,0.9038654822566408,0.9758938999187897,-0.14153604209423065,0.9999836087226868,0.9553625616408883,1.2304097525332318,0.25537487864494324,0.16452652215957642,0.9634445997288562,1.2505186769276282,-0.17122142016887665,0.9065465927124023,0.9383749470204144,1.5141318153695102,0.39415615797042847,0.3294893801212311,0.9402900375087299,1.534104993984976,-0.1403939574956894,0.8959488868713379,0.9514546008623546,1.0034146703140265,0.06724030524492264,0.20438547432422638,0.9696991286501637,1.005324596560752,-0.495067298412323,0.9974583983421326,0.0035525858402252197,0.9081645025947416,0.9773127489474037,166.90034269054604,163.0917239818457,1.0,-0.028177815006712105,0.038493378465944916,0.11608351504248636,0.18636040140604002,73.87858455106843,0.8629559795026658,29,0.9666666666666667
1.016464649896585,0.5246799867492854,-0.15354296565055847,0.9999110102653503,0.9343340029474346,0.6234273801383681,0.08988989889621735,0.9999790787696838,0.9356002531226243,0.6293349372926922,-0.3426121175289154,0.9999952912330627,0.9145603905563177,0.9916130833818202,0.14276811480522156,0.9999725818634033,0.9074342029822602,0.9936147057449493,-0.14281564950942993,0.9999847412109375,0.9623418514475981,1.2446198701260092,0.25795498490333557,0.15479479730129242,0.9733358036855674,1.2675724860803792,-0.17168620228767395,0.9086021780967712,0.9450594370994525,1.5246799867492855,0.3957975506782532,0.3137812912464142,0.9471641559677056,1.5470758178706272,-0.1291966736316681,0.8939763307571411,0.9603662421058443,1.013962197240284,0.07337429374456406,0.19568420946598053,0.9762109326889182,1.0229291511473335,-0.4982761740684509,0.9974279999732971,0.0033163726329803467,0.9109972967692889,0.9926138945633847,165.77416860258546,161.1248999870799,1.0,-0.03213832160969325,0.0660348820627069,-0.030805173066307215,0.2238257019244087,108.76327809921851,0.8811035684887245,30,1.0
1.0275462545657303,0.540941267970783,-0.09909491240978241,0.9999133944511414,0.9378134384413527,0.6350733657109181,0.12921293079853058,0.999978244304657,0.9502395818837942,0.6413773518139748,-0.3083052337169647,0.9999956488609314,0.9069020131967205,1.0068260209810904,0.14313894510269165,0.9999737739562988,0.9101043625357146,1.009798353721517,-0.14321836829185486,0.9999857544898987,0.9720702773525797,1.2648381453616022,0.24303250014781952,0.14715908467769623,0.983465736548647,1.2853294331884504,-0.11598183959722519,0.9043975472450256,0.9546997407976361,1.540941267970783,0.3650502562522888,0.29926738142967224,0.9554163474445697,1.5619962463818298,-0.051768071949481964,0.8883084654808044,0.9589017200005161,1.0280825316260775,0.13358892500400543,0.18098556995391846,0.9844861407235768,1.0407952320600304,-0.43945103883743286,0.9974365234375,0.0035088956356048584,0.9085031878662175,1.0083121873513037,162.22488763867008,159.30158197269319,1.0,-0.0745575419829315,0.05221076500057819,-0.3053924345665795,-0.10426892307818553,128.1133896033511,0.8846985642465709,31,1.0333333333333334
1.0533478932827316,0.5605846329607093,-0.12759841978549957,0.9998937249183655,0.9608344955796666,0.6556938678418781,0.10888953506946564,0.9999762177467346,0.9667475492469675,0.6587062692950522,-0.3236066699028015,0.9999959468841553,0.924189316230275,1.0251162381951304,0.14291514456272125,0.9999749064445496,0.9160518017394909,1.0278135176436316,-0.14297151565551758,0.9999867677688599,0.986192676302055,1.2828738866439588,0.26122015714645386,0.13809698820114136,0.9980962486431418,1.304526006923028,-0.12378130108118057,0.9032803773880005,0.9672949035294858,1.5605846329607094,0.4051600992679596,0.28310757875442505,0.9674327999205821,1.5828187172380797,-0.061807721853256226,0.8832428455352783,0.9571426479036439,1.055768078016158,0.06701326370239258,0.16485720872879028,0.9974745756919366,1.0643301311209155,-0.47150999307632446,0.9974326491355896,0.0016549527645111084,0.920120558984883,1.026464877919381,162.5816400245405,157.19733947282268,1.0,-0.00268867232438338,0.03766069819970533,0.5630328003178228,-0.11776565440256424,114.0033871222948,0.8853859525291871,32,1.0666666666666667
1.0679972600821592,0.5717656855404842,-0.13625633716583252,0.9998795390129089,0.9769088193578594,0.6661948016437103,0.08874969184398651,0.9999715685844421,0.9811577360732001,0.6717795184856188,-0.3294314742088318,0.9999962449073792,0.9310465123079052,1.035112999202761,0.13845595717430115,0.9999759793281555,0.9183796664123248,1.0424001356732635,-0.13848553597927094,0.999987781047821,0.9946048234730923,1.2921031044659534,0.24939295649528503,0.1337742656469345,1.0058896865528961,1.3169287320217486,-0.08113137632608414,0.9028939604759216,0.9746180486649678,1.5717656855404842,0.37842902541160583,0.28242141008377075,0.9747800433286536,1.5988271017946811,-0.008792738430202007,0.8862771391868591,0.9209615246824066,1.0552253690639053,0.06811413168907166,0.14930160343647003,1.00461810495866,1.088073011716357,-0.48013702034950256,0.9975496530532837,0.00304529070854187,0.9247130893601151,1.0387565674380124,162.0206350783189,156.02201063286603,1.0,-0.018040746278063395,0.035892286812727596,-0.11981309655785057,-0.01602681976444636,126.99788439997849,0.8900471042047073,33,1.1
1.0718615679341095,0.5747507136310759,-0.14122828841209412,0.9998793005943298,0.9812285161643531,0.6733237146348495,0.0908321961760521,0.9999708533287048,0.9851680634283666,0.6774323392982092,-0.33165088295936584,0.999996542930603,0.9236798106069972,1.0372093632695358,0.13906137645244598,0.9999775290489197,0.9148062624645925,1.0435521780036334,-0.13907893002033234,0.9999887943267822,0.9985189280339374,1.2972304475063194,0.2573036253452301,0.1357143074274063,1.009838561236857,1.3241087101888924,-0.09347225725650787,0.9081206917762756,0.9764057533025876,1.5747507136310759,0.3920591175556183,0.29380375146865845,0.9769591473586837,1.6040360814678944,-0.014887182042002678,0.8926405906677246,0.9264278117629077,1.069012032620096,0.09173678606748581,0.1356687992811203,1.0077646767159534,1.0977997076452206,-0.47119244933128357,0.997611939907074,0.002233445644378662,0.9192430365357949,1.0403807706365846,159.3873774090617,154.58823774513402,1.0,-0.06090849598523033,-0.011724751945815366,-0.31242990158462197,-0.34831334558206334,134.54412038014937,0.8876703774623543,34,1.1333333333333333
1.0916554834804597,0.5994156797972526,-0.159048393368721,0.999883770942688,0.9998303791357759,0.7052584863212332,0.07239728420972824,0.9999718070030212,1.0035010971879645,0.7027371237014046,-0.331890344619751,0.9999967217445374,0.9348822438484027,1.0596317327715477,0.13612039387226105,0.9999791383743286,0.9254896486430526,1.0679769678819413,-0.13615387678146362,0.9999896883964539,1.018472297013542,1.321570799498056,0.2413184940814972,0.15717585384845734,1.0277542626503045,1.348244112108863,-0.09383556991815567,0.9144357442855835,0.9911737546555914,1.5994156797972527,0.3589326739311218,0.32333606481552124,0.9936249850363204,1.630764623560611,-0.022349894046783447,0.9007024765014648,0.9509586252655096,1.0994101371778797,0.07106788456439972,0.126271054148674,1.0240502331771615,1.1332496388523914,-0.46965235471725464,0.997309684753418,0.001348942518234253,0.9301859462457277,1.0638043503267445,156.68970639196718,153.06573711176637,1.0,-0.026615938660681092,0.046723850153819364,0.245544857356709,0.40821125101400946,142.00648109555516,0.8862134210611579,35,1.1666666666666667
1.1179415708024047,0.6343010459862035,-0.12460014969110489,0.9998936057090759,1.0124382203458797,0.7426215054799821,0.11321834474802017,0.9999719262123108,1.0295639882867003,0.750540053401808,-0.3263433277606964,0.9999969601631165,0.9220784719244973,1.1086429684967523,0.14130805432796478,0.9999803900718689,0.93830530640117,1.1210409533582082,-0.1413852572441101,0.9999905228614807,1.0397217432103187,1.3596163489730404,0.2404627799987793,0.18120557069778442,1.0503631195639473,1.3816212945278377,-0.06939907371997833,0.9214726686477661,1.011227518707227,1.6343010459862035,0.34988242387771606,0.35727059841156006,1.0134345600533927,1.6645238050856743,0.019682010635733604,0.9090269804000854,0.9603107634239897,1.1520780832088005,0.10515834391117096,0.1157439649105072,1.0451271645895004,1.189994003321587,-0.4174128472805023,0.9974101185798645,0.0041525959968566895,0.9301918891628337,1.1148419609274802,148.96290380944436,149.29373119230038,1.0,-0.14530537890927742,0.2286399661296046,-0.9141240049327142,1.4001575735784366,113.51401367682294,0.9539057526663481,36,1.2
1.1465068088143195,0.6801581101353025,-0.1325540393590927,0.9999018907546997,1.0402394372351116,0.7812697746901444,0.10527549684047699,0.9999732375144958,1.0575894903948384,0.7877069661088536,-0.32519835233688354,0.999997079372406,0.9414525858930106,1.1497343761378367,0.14124949276447296,0.9999814629554749,0.9587435079593947,1.1612859702014244,-0.14132428169250488,0.9999910593032837,1.0543874397401727,1.4189530592330435,0.24016669392585754,0.22129936516284943,1.0823934402353592,1.4217918177713695,-0.07079972326755524,0.9284138679504395,1.0236108416714,1.6801581101353025,0.3479059338569641,0.4011557400226593,1.0397097624561251,1.7043501259812703,0.035546012222766876,0.9169420599937439,0.9947375074642082,1.207973085157513,0.09849560260772705,0.1193489357829094,1.0742166877849142,1.2368630809338634,-0.40616893768310547,0.9974539279937744,0.0032930374145507812,0.9500980469262027,1.1555101731696305,150.52246504626356,146.01826003039983,1.0,-0.02630916534917987,0.09634883410514773,0.9329889036615943,-1.0500489560067068,108.73752802836434,0.9473632070035249,37,1.2333333333333334
1.1604390366101238,0.7023714123298607,-0.1339699923992157,0.999908447265625,1.0595368197069712,0.8068667766411699,0.09786904603242874,0.9999743103981018,1.071333941433203,0.8137981939126786,-0.3267133831977844,0.9999972581863403,0.9516658042797932,1.174854027094735,0.14125490188598633,0.9999825358390808,0.9596438375676509,1.1892000423772304,-0.1413237750530243,0.9999916553497314,1.0727866725736526,1.4288270991285856,0.24510696530342102,0.23812375962734222,1.1014420895895751,1.443499801755348,-0.08325544744729996,0.9349038600921631,1.037996242032567,1.7023714123298608,0.3694623112678528,0.42633476853370667,1.0539237264183645,1.7275603530065806,0.0192427858710289,0.9239377379417419,1.015047578125932,1.2466726846743124,0.07844813168048859,0.11527979373931885,1.0913773792753847,1.2742581592998827,-0.43259376287460327,0.9974747896194458,0.0034980177879333496,0.955654820923722,1.1820270347359827,147.25513581841497,141.35919050565334,1.0,-0.05762284129132769,0.08296631585925901,-0.2397624031386646,-0.11386682609235729,134.58304937582463,0.9648578703850996,38,1.2666666666666666
1.1640756428729755,0.7081015622849828,-0.13163188099861145,0.9999083876609802,1.0762934033403677,0.8373762277347534,0.11919797956943512,0.9999735951423645,1.0718189429162712,0.8345413216402409,-0.31875258684158325,0.9999972581863403,0.9494860892980327,1.1994461229047237,0.14317159354686737,0.9999809861183167,0.9530031910967719,1.2042188885821001,-0.14321954548358917,0.9999910593032837,1.0643237866774151,1.4373315411343117,0.2943327724933624,0.2667931318283081,1.1050599732649835,1.445345653813794,-0.08108506351709366,0.9411797523498535,1.0334740517340621,1.7081015622849827,0.437499463558197,0.47365912795066833,1.0591773108077354,1.7314306903428704,0.045650240033864975,0.9311968088150024,1.234574407480833,1.1071365092780925,0.22275002300739288,0.16372676193714142,1.0963592850025554,1.29979376098114,-0.4352820813655853,0.997689962387085,0.0014274418354034424,0.9512446401974023,1.2018325057434118,147.731491526889,138.65251578078033,1.0,-0.051620509037709934,0.13463485967405017,0.04818643168793227,0.4045127162099446,124.31137805300607,1.021001334951103,39,1.3
1.188284855810582,0.7445051514856705,-0.15699052810668945,0.9999112486839294,1.0960409228649997,0.8723554258766463,0.0807623490691185,0.9999750256538391,1.093708806662125,0.8744423584859856,-0.34456297755241394,0.9999973177909851,0.9685532541486062,1.232453939495703,0.14135190844535828,0.9999815225601196,0.9636841679783938,1.2424712160205318,-0.14136801660060883,0.9999912977218628,1.1027108840413415,1.4647255784896775,0.2437477558851242,0.26703333854675293,1.1324185496172083,1.4751892040373122,-0.08954189717769623,0.9458826780319214,1.0596785331696519,1.7445051514856704,0.36572083830833435,0.4794536530971527,1.0817070848746997,1.7686710027380144,0.02103722281754017,0.9362865686416626,1.1428913657705686,1.3011633916164866,0.059634577482938766,0.16098754107952118,1.125268742078771,1.3607404048715772,-0.44389432668685913,0.997481644153595,0.0010286271572113037,0.9661187110635,1.2374625777581174,141.24569681265007,134.25217496464487,1.0,-0.04239246582866556,0.0728001759726155,0.07761063663401901,-0.4858431329268248,173.57282883182086,1.0210592864457029,40,1.3333333333333333
1.2362375116797693,0.8157366116671547,-0.1306479424238205,0.9999180436134338,1.1398490436248665,0.9409920810472123,0.11397912353277206,0.9999759197235107,1.1316498519114788,0.9344398280697681,-0.3230820298194885,0.9999973773956299,1.0033621117476006,1.2972350514690387,0.14100779592990875,0.9999792575836182,0.9921497221152827,1.3066426948661387,-0.14103233814239502,0.9999901652336121,1.1501038243674921,1.5241311397314592,0.22868382930755615,0.29982835054397583,1.180184439009762,1.5348387593850454,-0.09158580005168915,0.9510321021080017,1.1041486691420686,1.8157366116671547,0.3368986248970032,0.5204455256462097,1.1245876043751515,1.8407483764145078,0.018168890848755836,0.9424078464508057,1.337068887159392,1.1833914499682874,0.14802776277065277,0.23250994086265564,1.172971622850274,1.434402815381466,-0.4455264210700989,0.997711718082428,0.0031021833419799805,0.9977559169314417,1.3019388731675887,138.15203299731962,130.21064489679097,1.0,-0.06328697750936405,0.10784851375257827,-0.1510604203601262,0.25284032940834694,150.96126883235888,1.0045833656251861,41,1.3666666666666667
1.2516577554628148,0.8372641793572625,-0.14828863739967346,0.9999186992645264,1.1373375032485167,0.9610854944588288,0.08538065105676651,0.999976396560669,1.1411865772722454,0.967084119261376,-0.34607836604118347,0.9999972581863403,0.9935306310985982,1.3206079655255962,0.1403396725654602,0.9999796152114868,0.9940873011345219,1.3349600192606685,-0.14037977159023285,0.9999903440475464,1.1648006566067453,1.5425322233419083,0.2131439745426178,0.29508301615715027,1.195291360637851,1.553696475806335,-0.11116781085729599,0.9551723599433899,1.1189262776495228,1.8372641793572626,0.3356614410877228,0.5154505372047424,1.1423991018827278,1.8635561137483476,-0.014902353286743164,0.9471070766448975,1.1848069939633206,1.4063960896304413,0.029276367276906967,0.2257148027420044,1.1906273925640536,1.4703859253825027,-0.4626449644565582,0.9975852966308594,0.002804577350616455,0.9938089661165601,1.3277839923931323,133.4938642722198,127.70381320403348,1.0,-0.13293360240703117,0.07516281620006383,-0.5522335832470513,-0.27312898462655494,155.97767554864313,1.025752565734641,42,1.4
1.2882918651553736,0.896665152846887,-0.10593098402023315,0.9998930096626282,1.1586614288765487,1.0158750389366642,0.11962799727916718,0.9999736547470093,1.1734740084688808,1.026337503202775,-0.31108784675598145,0.9999966621398926,1.0100320060366799,1.3801559414224125,0.14006741344928741,0.9999799132347107,1.018911210456174,1.391777392428541,-0.1401205062866211,0.9999905228614807,1.1905631080584387,1.5921541848475282,0.2552306652069092,0.2996118366718292,1.2332841462536777,1.603313067624843,-0.091860331594944,0.9593789577484131,1.14913923487925,1.896665152846887,0.39678412675857544,0.53423011302948,1.1819127531837261,1.920951103445653,0.020305931568145752,0.9520260691642761,1.1921050460206037,1.5087595157127782,0.06819187849760056,0.21096564829349518,1.2292605264539678,1.5438420588089374,-0.3772691786289215,0.9973679184913635,0.004738748073577881,1.014471608246427,1.3859666669254769,131.83669023400924,125.43145836031148,1.0,-0.08439053853108687,0.1137838181152982,0.3914127922693895,0.2681759906551847,120.42303884984095,1.030283396394111,43,1.4333333333333333
1.28365393785692,0.9118257974137576,-0.08338214457035065,0.9998517632484436,1.153173600328684,1.0448912553852552,0.1443749964237213,0.9999696016311646,1.169462076749063,1.045842591324521,-0.28382790088653564,0.9999960064888,1.0048139024144753,1.410271510907462,0.1353500932455063,0.9999794960021973,1.015252065413421,1.4134322905752468,-0.13549062609672546,0.9999904036521912,1.1772182300887877,1.6425883544838489,0.2480040043592453,0.3196021318435669,1.2384050899838792,1.6078617546650211,-0.03122379444539547,0.9632693529129028,1.1487341206132138,1.9118257974137576,0.38714611530303955,0.5678277015686035,1.1894205952284702,1.9225325837839264,0.13594293594360352,0.9566605687141418,1.1984015919399789,1.5369024161253224,0.11296708881855011,0.21064409613609314,1.2330148023357692,1.5608430285800088,-0.35159552097320557,0.9975400567054749,0.00042957067489624023,1.0100329839139481,1.4118519007413544,137.38140132837668,122.21692643415582,1.0,-0.05658078022794135,0.1622083631003928,0.21041562330733118,0.360402240478457,84.74762083365157,1.075935545862041,44,1.4666666666666666
1.2748797203599176,0.9099809734301499,-0.08902068436145782,0.9998322129249573,1.1490053431211225,1.036993021177156,0.1448371261358261,0.9999670386314392,1.1658705957565898,1.0437893532710842,-0.291394978761673,0.9999954700469971,0.9957771693143516,1.4116503490398926,0.13573578000068665,0.9999793171882629,1.0102689888636533,1.4152706705830638,-0.13586542010307312,0.9999904036521912,1.159664988590049,1.643370414549595,0.25361567735671997,0.34457582235336304,1.2364152523030076,1.597033037474923,-0.033337708562612534,0.9668610095977783,1.1422759638023146,1.90998097343015,0.4125676155090332,0.6022177934646606,1.1873746157868588,1.913139538075885,0.13977499306201935,0.9609012603759766,1.1970852040226174,1.5389178970034585,0.1214679628610611,0.21100175380706787,1.2299556590927958,1.5603439700467636,-0.3576430082321167,0.9976794123649597,0.0030766427516937256,1.0030230790890025,1.4134605098114783,140.99782110093935,119.97162235006658,1.0,-0.035045281042040966,0.04083233737575412,0.16843972587698303,-0.95246743547266,81.78275687225546,1.0925372980537835,45,1.5
1.279255528000724,0.9339276837869623,-0.06007906794548035,0.9997542500495911,1.160791732831232,1.0636249516358425,0.16288596391677856,0.9999598264694214,1.173509583013542,1.0675036754761533,-0.2674981951713562,0.999994695186615,0.9982296836735992,1.438507533885216,0.13422787189483643,0.9999788999557495,1.0140068061832321,1.4399297015439432,-0.13437920808792114,0.9999903440475464,1.162589823788285,1.6631346261657936,0.252057284116745,0.34967613220214844,1.2507297168099991,1.6054033579062217,-0.039410240948200226,0.9700202345848083,1.1554665968104734,1.9339276837869623,0.40537229180336,0.6253037452697754,1.2007766772496669,1.9345258041305071,0.10928983986377716,0.9646632075309753,1.2093026229841664,1.5631470215105523,0.15899400413036346,0.20048053562641144,1.2445425681515836,1.588741643382934,-0.3484765291213989,0.9977341890335083,0.0017355084419250488,1.0061182449284156,1.4392186177145796,142.30016193631317,116.32397107912085,1.0,-0.06540867371149402,0.06924131623379651,-0.22596138503709418,0.2107051096311861,71.70756322991616,1.0960735886700628,46,1.5333333333333334
1.2816151751246834,0.9611109268977297,-0.04031405970454216,0.9995630979537964,1.1603030773096739,1.0978723444487388,0.18042907118797302,0.9999426603317261,1.1799685123429307,1.0994271429060556,-0.2580692172050476,0.9999924898147583,1.0033555499173505,1.4828859052924264,0.134505957365036,0.9999779462814331,1.0187461164648923,1.4829813961067706,-0.13465917110443115,0.999989926815033,1.1860169842636676,1.6849602710264324,0.25380125641822815,0.34687596559524536,1.2679363523332816,1.6207433061715768,-0.04618523269891739,0.9727032780647278,1.1704080854652243,1.9614591239548433,0.4251932203769684,0.6324251294136047,1.217124163788492,1.9611109268977296,0.1287248432636261,0.9677385687828064,1.2171286209269268,1.6076177088052863,0.16512419283390045,0.18524442613124847,1.2615233405145037,1.6379305722351205,-0.3177216649055481,0.9973184466362,0.0006861388683319092,1.0110508331911214,1.4829336506995985,134.65754158510504,110.44473532296973,1.0,-0.06911527805044212,0.18067434238395078,-0.02132592431007138,0.8423791066632516,68.17763638119719,1.1479004204144434,47,1.5666666666666667
1.287145775423993,1.0246997267206717,-0.016676563769578934,0.9992626309394836,1.1627714682269028,1.1567762521839546,0.1859421581029892,0.9999213814735413,1.1919475959660586,1.1641294281688974,-0.2533457279205322,0.9999880194664001,1.0219318618707356,1.5477577833430554,0.13471423089504242,0.9999749064445496,1.0420676132410716,1.5481114274602148,-0.13486622273921967,0.9999879598617554,1.2222757863526559,1.7444300702923463,0.21749095618724823,0.3232324719429016,1.30366176450286,1.6717497895357318,-0.05288952589035034,0.9727721810340881,1.217836966994099,2.0246997267206717,0.35246187448501587,0.6089288592338562,1.257125350245034,2.024986156143639,0.09609462320804596,0.968277633190155,1.249716812779605,1.673609210142279,0.14982935786247253,0.17003706097602844,1.2927619675274935,1.7046925199667384,-0.3097469210624695,0.9939337372779846,0.0031429529190063477,1.0319997375559036,1.547934605401635,133.5627831756392,107.79192704371658,1.0,-0.08553835358314363,0.1214465908461865,-0.10214484868102798,-0.46891834761441015,71.19611660934291,1.1210002091433418,48,1.6
1.2690714161584362,1.017039797442995,-0.03464037925004959,0.9992374181747437,1.14668088051067,1.1593550072219196,0.16501416265964508,0.999906599521637,1.168114073185593,1.1696619202183385,-0.27059391140937805,0.9999865293502808,1.012368253904725,1.5472622472979556,0.1342529058456421,0.9999730587005615,1.0320312476657396,1.5523346495869847,-0.13439950346946716,0.9999872446060181,1.1952503136724937,1.7416012656824955,0.26084524393081665,0.3118912875652313,1.2898508943027402,1.6669977625147108,-0.050061535090208054,0.9750065207481384,1.2084275809998373,2.0176123535369896,0.4270648956298828,0.6147313714027405,1.2528766948337862,2.017039797442995,0.10949674993753433,0.9709732532501221,1.2109227860162624,1.659410004570026,0.14724119007587433,0.15557099878787994,1.2792609690525787,1.7055182803472275,-0.34432727098464966,0.9937320947647095,0.004420667886734009,1.0221997507852323,1.5497984484424703,139.47298110964996,107.94702965218139,1.0,-0.04877331469304146,0.056090735203198946,0.2845927100628614,-0.5067316010101264,85.36667433417637,1.1470654420428839,49,1.6333333333333333
1.257954575759414,1.0045399644966375,-0.1233806163072586,0.9992262125015259,1.1327290180364653,1.1578778318988883,0.12409521639347076,0.9998962879180908,1.1435815588676121,1.1677903502540603,-0.31569522619247437,0.9999852776527405,1.0052847419691502,1.5460987547293024,0.13437964022159576,0.9999710321426392,1.0205401059905395,1.5526950788448515,-0.13451938331127167,0.9999862909317017,1.1892968706495635,1.7262434294805584,0.25979170203208923,0.307775616645813,1.2831569334568274,1.6569948767876905,-0.06388530135154724,0.9771966338157654,1.1988891623270828,2.005807467976296,0.4299759268760681,0.6273186802864075,1.247820627738249,2.0045399644966375,0.09917033463716507,0.973534107208252,1.1908759647044567,1.6495791592747386,0.09614516794681549,0.14298728108406067,1.2640563621061092,1.694629905703434,-0.4129870533943176,0.9939011335372925,0.004275888204574585,1.0129124239798448,1.549396916787077,136.35666398546914,105.85524698685852,1.0,-0.02717941476183232,0.06625969518652905,0.16746102720130718,0.08240142818961804,95.20949862406968,1.190046723774452,50,1.6666666666666667
1.26815754002706,1.0494389148552417,-0.1087212786078453,0.9992616772651672,1.1404262621146484,1.195448350348081,0.12972809374332428,0.9998908638954163,1.156433046041352,1.204426109584033,-0.29241424798965454,0.9999849200248718,1.0298468109229215,1.6031575821997905,0.12915754318237305,0.9999698400497437,1.0476972874003545,1.6061358983993004,-0.1293235719203949,0.9999858140945435,1.22687532741455,1.7700688861430542,0.2305881232023239,0.31806933879852295,1.31657339405356,1.6953695688522277,-0.0621948167681694,0.9791614413261414,1.230453701323366,2.057780751841265,0.39436227083206177,0.6429693102836609,1.28211125619948,2.0494389148552417,0.1090969443321228,0.9758301973342896,1.2259360450186456,1.7024384272817734,0.11537839472293854,0.13433003425598145,1.2900565986395716,1.7430685573375129,-0.3657299876213074,0.9942648410797119,0.003774881362915039,1.0387720491616381,1.6046467402995455,130.98193656885945,102.80061495620298,1.0,-0.0026748058795555097,0.1065266171247408,0.1776843889627482,0.271724656181601,84.29765158347706,1.2041527101221718,51,1.7
1.2437974842986566,1.0322776549736243,-0.15567396581172943,0.9993225336074829,1.1219717732888501,1.1759342643831279,0.08905313909053802,0.9998949766159058,1.124096635028743,1.201876626155354,-0.3255687654018402,0.9999853372573853,1.0270180774211615,1.583424054081562,0.1272372454404831,0.9999706149101257,1.0356530431843882,1.5959326927023967,-0.12738153338432312,0.9999861717224121,1.2180186869746186,1.7535400772963268,0.19200988113880157,0.35661110281944275,1.30573013988802,1.6821676373224408,-0.08792129158973694,0.9811044335365295,1.220706429720567,2.0397549471392318,0.34718236327171326,0.6658235788345337,1.273146583548467,2.0322776549736243,0.07817398011684418,0.9780454635620117,1.2047056514715035,1.678340074597197,0.0609242245554924,0.12982675433158875,1.2679745168417258,1.7235590724215861,-0.4060251712799072,0.9946976900100708,0.010999351739883423,1.031335560302775,1.5896783733919795,132.22810840977908,102.39114423287657,1.0,0.008660641387254153,-0.011925819183263004,0.08224321831739939,-0.8546755413264954,132.26484591242678,1.2034352300903752,52,1.7333333333333334
1.2105641300492347,1.0160039296302823,-0.16974249482154846,0.9993818402290344,1.0913459876054352,1.1601656875124091,0.06516440212726593,0.9999011158943176,1.0928202263859672,1.1878712959637354,-0.3322473466396332,0.9999858736991882,1.0187185869393054,1.5642488416346727,0.12228622287511826,0.9999717473983765,1.0237880386649743,1.580982535844073,-0.12242575734853745,0.9999865889549255,1.210162159991612,1.7446497408875632,0.19402197003364563,0.39821702241897583,1.2930576438726546,1.6692834922065494,-0.08501477539539337,0.9828526377677917,1.2102575285380615,2.0248203613519804,0.34373000264167786,0.6899731755256653,1.252918221750275,2.0160039296302825,0.07966498285531998,0.9800511598587036,1.1895642270909135,1.6613704125498314,0.06004778668284416,0.1292295604944229,1.2414120902777623,1.706222490914891,-0.4056786596775055,0.9950827360153198,0.011844009160995483,1.02125331280214,1.5726156887393727,133.31848902576496,101.55208034021668,1.0,-0.01237127043568187,-0.030614082456156502,-0.15898803150197544,-0.14249108046889936,152.9566814992194,1.1883579019250734,53,1.7666666666666666
1.1761953943179757,1.0041596408939921,-0.15353403985500336,0.9994320273399353,1.0552397427761566,1.1543344446361028,0.11041837930679321,0.9999073147773743,1.0688883435596428,1.179850239899052,-0.30788907408714294,0.9999866485595703,0.9969246572204892,1.5776246497566706,0.12464109808206558,0.9999727010726929,1.0147729554178557,1.5851540280607703,-0.12486009299755096,0.9999871850013733,1.2342274507608002,1.6917732570891897,0.20745091140270233,0.42272329330444336,1.2856341033725718,1.6585163661030087,-0.08591102808713913,0.9844842553138733,1.209610570929459,2.0122929162816656,0.3648381233215332,0.701903760433197,1.245641895682427,2.004159640893992,0.08075133711099625,0.9819139242172241,1.1792916662826185,1.6531382585434908,0.14888690412044525,0.12869073450565338,1.2209826030653217,1.6954013521223823,-0.38651299476623535,0.9954830408096313,0.010972708463668823,1.0058488063191724,1.5813893389087204,111.29685642511866,98.5548918131702,1.0,-0.07638788655159327,0.14727308827948624,-0.5224667210892812,1.448682087766521,105.0286046445214,1.251183913756562,54,1.8
1.1620140990036067,1.0187044244301213,-0.1104639321565628,0.9994775056838989,1.043795426924427,1.1653699187213664,0.1320987045764923,0.9999123215675354,1.0579668296100622,1.1865450753866775,-0.2761591076850891,0.9999874234199524,1.001637967951621,1.6034677969596864,0.12563510239124298,0.9999730587005615,1.0173972538155014,1.6143573179240114,-0.12583030760288239,0.9999876618385315,1.2616127772692354,1.6848127438047724,0.19307337701320648,0.43584585189819336,1.2977874142000965,1.6744289671302586,-0.10460320860147476,0.9859316349029541,1.233102509680841,2.0187044244301213,0.3588244616985321,0.7072100639343262,1.2576107520536506,2.02419584209642,0.06057325005531311,0.9835578799247742,1.1820352073572573,1.6620861483284346,0.14311031997203827,0.12953557074069977,1.2135621731811148,1.706164806045316,-0.3462435007095337,0.9958663582801819,0.009021610021591187,1.009517610883561,1.6089125574418488,102.49414583791415,95.53974719572777,1.0,-0.04309717276578657,0.0953351927634436,0.2549329712876448,-0.399701203746345,119.14755769513017,1.282824371642129,55,1.8333333333333333
1.181462930134103,1.0369051643112892,-0.10261287540197372,0.9995027780532837,1.0590335269980973,1.1820727109994027,0.13687847554683685,0.9999168515205383,1.0629428496447242,1.1992449793919921,-0.27385658025741577,0.9999879002571106,1.0179071560596091,1.6266649147475911,0.1264612227678299,0.9999723434448242,1.0283649826697763,1.6377037003285908,-0.126684308052063,0.9999876022338867,1.282449974056763,1.690249687321298,0.2036513388156891,0.42891666293144226,1.3102335739043176,1.690825277507867,-0.11582527309656143,0.9871211647987366,1.2489179603847298,2.036905164311289,0.36367958784103394,0.702674150466919,1.2697413552860095,2.0471955696227124,0.048857785761356354,0.9848365783691406,1.1944598384914282,1.6768671448416756,0.14036133885383606,0.1299312710762024,1.2249785513536577,1.7201658247918448,-0.3401751220226288,0.9961444139480591,0.007244616746902466,1.0231360693646927,1.632184307538091,97.99004709973065,94.1905296785051,1.0,0.028086477392674045,0.056841453612491114,0.5518362173128981,-0.303898591600273,131.26305180911572,1.3021238479719912,56,1.8666666666666667
1.1648223195978402,1.0340225348551473,-0.10149277746677399,0.9995460510253906,1.048403969222833,1.1832815931298266,0.1366686224937439,0.999922513961792,1.050890800656721,1.1976684597250418,-0.27180594205856323,0.999988317489624,1.0202042884402762,1.6364905721927518,0.12790821492671967,0.9999734163284302,1.0304722566968783,1.6452768122052135,-0.12813019752502441,0.9999880194664001,1.2806376221686806,1.6971548673040857,0.22316762804985046,0.4459415078163147,1.3114688291729526,1.6852131380327604,-0.10842283815145493,0.9883015751838684,1.2459642076877449,2.034022534855147,0.3927571475505829,0.7127795815467834,1.2676598189558497,2.047089370160732,0.05913516879081726,0.986131489276886,1.177598142714353,1.6782421085960133,0.13912267982959747,0.13964678347110748,1.2113435634170941,1.7164584642006329,-0.31726017594337463,0.996186375617981,0.006077557802200317,1.0253382725685773,1.6408836921989827,97.23573360755496,91.18624611115641,1.0,0.02802375066943716,0.08557421698316339,-0.00020139007744074874,0.22701167430048472,126.992927483116,1.3481934862164773,57,1.9
1.1570223538747801,1.0459323901412214,-0.1005997434258461,0.9995794892311096,1.0407111097759891,1.1991812603240986,0.13453854620456696,0.9999263882637024,1.0513017259907826,1.2145221688054246,-0.2761355936527252,0.9999886155128479,1.0371272372381715,1.6552739044341187,0.12901002168655396,0.999974250793457,1.0464319879953465,1.6683627244927044,-0.12921729683876038,0.999988317489624,1.3074425060143071,1.7039709982909248,0.22123344242572784,0.44514986872673035,1.329775567197342,1.7071883083373476,-0.1187516450881958,0.989168643951416,1.2742434597205041,2.045932390141221,0.37996476888656616,0.7073193192481995,1.2871039739307908,2.0735352252249353,0.04596997797489166,0.9869086146354675,1.1622560794836225,1.6991516849894268,0.13855291903018951,0.13536964356899261,1.2065480577731096,1.7396808367209071,-0.3351178765296936,0.9957830905914307,0.006392151117324829,1.041779612616759,1.6618183144634116,94.66712014354215,91.15865287888568,1.0,0.018089234870106417,-0.014153526948969018,-0.08274316356440185,-0.8089112181057418,144.14103683402024,1.3500220107193408,58,1.9333333333333333
1.155634787503404,1.05650061127061,-0.11048285663127899,0.999607264995575,1.0501191965024597,1.2111707107695293,0.1160222515463829,0.9999308586120605,1.0512691509204086,1.2277661668646822,-0.2777869999408722,0.9999890327453613,1.0564210769782671,1.6684913719766747,0.12906880676746368,0.9999752640724182,1.059626620149358,1.6922622107392427,-0.1292644441127777,0.9999886751174927,1.3223086308312695,1.7049463020498208,0.2309512197971344,0.4313630163669586,1.346826903780658,1.7247331892259765,-0.12579993903636932,0.9895273447036743,1.2900711169733778,2.05650061127061,0.3782588839530945,0.6891123056411743,1.3034091408277313,2.091792705120496,0.032655566930770874,0.9868140816688538,1.1699149200181012,1.717754435013789,0.12020393460988998,0.13100522756576538,1.2065772616306962,1.7592682960895978,-0.3418159782886505,0.9952911138534546,0.006834119558334351,1.0580238485638125,1.6803767913579586,92.56758426702793,89.7045857231398,1.0,0.029880107441391107,-0.00821891310458819,0.08797535440685837,0.04636879685056973,173.10937116672832,1.3713194936086988,59,1.9666666666666666
1.1503664403871927,1.0683621850826854,-0.17925521731376648,0.999641478061676,1.0615388073068013,1.223580870295645,0.05171756073832512,0.9999369978904724,1.0375442077352308,1.2458175194296606,-0.3555266559123993,0.999989926815033,1.0766921160611866,1.6827214621860564,0.13222673535346985,0.9999770522117615,1.067921837276002,1.7206307596157062,-0.13236142694950104,0.9999894499778748,1.3371427994128988,1.718001118183275,0.2386484146118164,0.4231109321117401,1.363174053345556,1.7406391683187945,-0.14887790381908417,0.9901243448257446,1.3026678488339787,2.0683621850826857,0.39620211720466614,0.6698648929595947,1.3167267670044716,2.115934097027473,0.01925167627632618,0.9867306351661682,1.1946351947197502,1.736159846473451,0.019061896950006485,0.13087251782417297,1.1995660652386806,1.7840688093412596,-0.4432746469974518,0.9952954649925232,0.009052306413650513,1.0723069766685942,1.7016761109008813,92.09439631255056,86.8216755771477,1.0,0.015360253464157295,0.013877112097880676,-0.11286308858221264,0.1684756504118484,165.0835645122116,1.3963749787985513,60,2.0
1.128294758566762,1.0555659910847635,-0.19608941674232483,0.9996703267097473,1.0562287579486531,1.2101608931446837,0.03878019005060196,0.9999423623085022,1.020350466071839,1.2354528219390766,-0.36138343811035156,0.999990701675415,1.078813724160375,1.6633060235010373,0.1322033405303955,0.9999786019325256,1.0588920048871626,1.708995758857547,-0.13233551383018494,0.9999901056289673,1.322971686544477,1.7113972919064653,0.2347385585308075,0.411227285861969,1.3502119701263382,1.7217381079129739,-0.15096792578697205,0.9901219606399536,1.2896751550654795,2.0555659910847637,0.3860093951225281,0.654887855052948,1.3029742804843578,2.095089718203738,0.010122090578079224,0.9856700301170349,1.1812766693521943,1.7186861324769611,-9.25518834264949e-05,0.12918689846992493,1.184148054954697,1.7721588474265295,-0.44233188033103943,0.9952742457389832,0.010397106409072876,1.0688528645237687,1.6861508911792922,95.61691630688567,85.29358583016501,1.0,0.05638228115969974,0.00817403263241472,0.33326618312165546,-0.04507280216468215,153.58846269427548,1.405070393150607,61,2.033333333333333
1.1066418298196934,1.0443026025568007,-0.17235858738422394,0.9996976852416992,1.017950984531791,1.1973451833108908,0.05213543027639389,0.9999465942382812,1.0037925747599958,1.2219748810836288,-0.3389890789985657,0.9999913573265076,1.061984104092509,1.6508206740692895,0.13042758405208588,0.999980092048645,1.049337570021431,1.686300687605175,-0.13058285415172577,0.9999907612800598,1.30821934623741,1.7008264958782884,0.23337921500205994,0.4270431399345398,1.3383468847722582,1.7048578294142485,-0.13539189100265503,0.9905353784561157,1.261156014574766,2.0443026025568005,0.3582051992416382,0.6638867855072021,1.2916241038111098,2.0740094777040508,0.025854993611574173,0.9859868884086609,1.1540744264082425,1.7056809226569445,0.03544415906071663,0.12241009622812271,1.1634149482519427,1.7544200164561221,-0.4111820161342621,0.9953118562698364,0.01022520661354065,1.05566083705697,1.6685606808372322,93.67747594691498,86.46043346277933,1.0,-0.01967335857591281,-0.007604138649711051,-0.5493034293030903,-0.11420757666727631,154.83572961854517,1.3960415982176313,62,2.066666666666667
1.097270612919735,1.042134311316688,-0.18398043513298035,0.9997244477272034,1.0029147088850445,1.1951126544518633,0.040356606245040894,0.9999502301216125,0.9983275802159672,1.2204472083049058,-0.35474836826324463,0.9999920725822449,1.0539687118639864,1.6493074286651561,0.13044022023677826,0.9999812245368958,1.0480298258350682,1.6794560051225698,-0.13059352338314056,0.9999914169311523,1.2817462789573832,1.7144316514817393,0.25621065497398376,0.4016672670841217,1.3376946672899739,1.7018628027931826,-0.13461729884147644,0.9898253083229065,1.2562998911267553,2.042134311316688,0.4050355553627014,0.6374984979629517,1.2897406878320117,2.071357103167346,0.01115622278302908,0.9844145774841309,1.1257070541933833,1.7024572433971177,0.02451668679714203,0.11292773485183716,1.1546463899239308,1.7515734359606026,-0.4430491328239441,0.9954527020454407,0.010532081127166748,1.0509992688495273,1.6643817168938628,101.51568570509394,87.02859178603873,1.0,-0.024709285156801753,-0.014685107704709733,-0.03868695358749137,-0.05418999672143531,162.44269899268815,1.3840462320622025,63,2.1
1.0850914504800477,1.036848548311063,-0.19085678458213806,0.9997501373291016,0.9898024609043607,1.1910151655599708,0.023931467905640602,0.9999541640281677,0.9908404481807287,1.2164417813313473,-0.3531830608844757,0.9999927878379822,1.0471311812149453,1.6428534990416765,0.12711364030838013,0.999982476234436,1.0447463397159167,1.6713204144118474,-0.12723514437675476,0.9999920725822449,1.2786845797587623,1.7089153018672483,0.24608175456523895,0.38823556900024414,1.334513691386549,1.6955436422636296,-0.13106855750083923,0.9891496896743774,1.2523879494592791,2.0368485483110628,0.3955484628677368,0.6214180588722229,1.2852134397060713,2.0630743028273577,0.018878314644098282,0.9830659031867981,1.1159457080069202,1.696399152977233,0.01730494387447834,0.10806352645158768,1.145900371797783,1.7451395431284142,-0.42876726388931274,0.9957533478736877,0.01060602068901062,1.0459387604654309,1.657086956726762,101.33868116974435,87.13855292749105,1.0,-0.011622810419136773,-0.012928805316179156,0.09903763106155845,0.013000392011350052,167.98019205571464,1.3758969240409595,64,2.1333333333333333
1.0714949891444412,1.0237845261510798,-0.20560471713542938,0.9997715353965759,0.9804680828690775,1.1812567188703662,0.020583447068929672,0.9999576807022095,0.9787701612230882,1.2082252915681977,-0.3738618791103363,0.9999933838844299,1.04098632431609,1.6305847555585293,0.1286725103855133,0.9999836087226868,1.0379833515696126,1.6596056635513978,-0.12875711917877197,0.9999926090240479,1.2702670505071734,1.6973345752120044,0.25485703349113464,0.3616665303707123,1.325630364941047,1.682967447656226,-0.1436043381690979,0.9871576428413391,1.243956715131107,2.0237845261510796,0.41695618629455566,0.5887152552604675,1.2763001003072223,2.0489753543089924,0.007300456054508686,0.9789026379585266,1.1095297821345862,1.6841022808700141,-0.009709176607429981,0.102008156478405,1.1356980682362994,1.7323439740916882,-0.4657004475593567,0.9957221150398254,0.011327475309371948,1.0394848379428512,1.6450952095549636,101.6238947993527,86.96716673045016,1.0,0.006122873475319538,-0.004290562710612095,0.13989307723585956,0.0676992823693236,166.42149306419444,1.3849535196481162,65,2.1666666666666665
1.0686289206977018,1.021690927101374,-0.19137944281101227,0.9997918605804443,0.9775627051625693,1.1800723569336677,0.033049993216991425,0.9999608993530273,0.9754861946410868,1.2064676324365255,-0.3632969558238983,0.9999939203262329,1.041549905752919,1.6278716029286804,0.12933358550071716,0.999984622001648,1.0380471137637295,1.6559511828033473,-0.12941201031208038,0.999993085861206,1.2744594306804677,1.6936007060844238,0.25242215394973755,0.34051430225372314,1.324544496056897,1.6799929380222183,-0.14016935229301453,0.9851027131080627,1.2419649811484583,2.021690927101374,0.40840524435043335,0.5599212050437927,1.2738018335920884,2.0458689909604133,0.009921739809215069,0.9744840264320374,1.109652295362403,1.6812396944929466,0.012916738167405128,0.0974501371383667,1.1361643967216213,1.7292366305240954,-0.44784387946128845,0.9956929683685303,0.011103451251983643,1.0397985097583242,1.6419113928660138,100.10333332249147,86.90092534731568,1.0,0.014555308433135307,-0.005395334769739903,0.06521393838925663,-0.008584691626721992,164.75726659534803,1.3844673106568026,66,2.2
1.0593491311946746,1.0129324162612412,-0.189928337931633,0.9998111128807068,0.9733307409399127,1.1730348613726074,0.028129052370786667,0.9999639391899109,0.9708155602519,1.2003167248909867,-0.3598922789096832,0.9999943971633911,1.0375260222999863,1.6188905425302036,0.12931326031684875,0.9999855160713196,1.0381372878091573,1.6468301824219518,-0.12939417362213135,0.9999935030937195,1.2599378741702127,1.6880529023025908,0.2592851221561432,0.3221704959869385,1.3176182519342705,1.66992310838025,-0.13740837574005127,0.9837127923965454,1.2295930588313808,2.012932416261241,0.41210731863975525,0.5378342270851135,1.267281939627066,2.0334959968592483,0.00708704674616456,0.9716083407402039,1.1022488496136744,1.6721413947184658,0.008412809111177921,0.092836894094944,1.1306988405334852,1.7199541402879008,-0.4388038218021393,0.9957062005996704,0.011537551879882812,1.0378316550545716,1.6328603624760778,101.9377465241554,86.84106401899027,1.0,0.025874580662704535,-0.0025483554985558867,0.08320500141029982,0.020576971097750984,173.06005723912673,1.3985049657810673,67,2.2333333333333334
1.050906125646131,1.0102643806381169,-0.1847412884235382,0.9998286962509155,0.9645671858458098,1.1720353270936925,0.03669518977403641,0.9999666213989258,0.9667834468626662,1.1979273443688239,-0.35451310873031616,0.9999948740005493,1.0354617940811595,1.615532312372382,0.12935999035835266,0.9999864101409912,1.0363257053992065,1.6434453278554706,-0.12944428622722626,0.9999939203262329,1.2566509459941475,1.686826168339472,0.2607935965061188,0.30470848083496094,1.315573608768313,1.6667558807622311,-0.1367195099592209,0.9822798371315002,1.2278069151873598,2.010264380638117,0.4148547053337097,0.5119760632514954,1.2646768382927813,2.0298216109645977,0.010971719399094582,0.9681097865104675,1.0887800062700745,1.6691916014202133,0.01637641340494156,0.08779457211494446,1.1273964623527888,1.714216982420087,-0.43555107712745667,0.9956445097923279,0.010970234870910645,1.035893749740183,1.6294888201139264,102.76908586347339,86.79170244580165,1.0,-2.2905324510649633e-05,-0.002423279218115319,-0.19130733562126567,0.0008905147523449373,172.69064529404815,1.396317268148608,68,2.2666666666666666
1.0471250607511629,1.0077431347761607,-0.18459342420101166,0.9998435974121094,0.9649160848989906,1.170807579722138,0.03413761407136917,0.9999688863754272,0.9616222637918573,1.1962174582212173,-0.35386669635772705,0.9999952912330627,1.0364365789468692,1.6128153045938098,0.12790551781654358,0.999987006187439,1.035187171883136,1.6408196677899178,-0.12799179553985596,0.9999942183494568,1.255667234438483,1.6837548211961308,0.2562718093395233,0.28381645679473877,1.3141112755492927,1.6637525074012987,-0.13636980950832367,0.9788804650306702,1.2280681716728996,2.0077431347761605,0.4101720452308655,0.48074913024902344,1.2625920416556122,2.0274026641514156,0.005131139419972897,0.9618806838989258,1.0920922654840042,1.6628935795565059,0.022555673494935036,0.0836612656712532,1.1250392568939531,1.7099608305582195,-0.43468061089515686,0.9956727027893066,0.010780811309814453,1.0358118754150027,1.6268174861918638,103.06174008531659,86.63665034786362,1.0,0.010096550034091356,-0.00319745608117143,0.07593757328757386,-0.0058345878460391324,168.25419133383656,1.3964804371308617,69,2.3
1.0464862580130823,1.007447412659941,-0.20032262802124023,0.9998579025268555,0.9624618082978369,1.1708962701179382,0.01432753074914217,0.9999712705612183,0.9608410124237597,1.1963756955514566,-0.3637862801551819,0.9999956488609314,1.0372124727862055,1.607482007999505,0.12718155980110168,0.9999877214431763,1.0367633797510891,1.6368339474989726,-0.12726172804832458,0.9999945163726807,1.2579820982466894,1.6828613465301485,0.25832340121269226,0.2650962769985199,1.3145901629093415,1.6639499769938182,-0.13872721791267395,0.9763684272766113,1.2315089350333388,2.0074474126599413,0.4232434332370758,0.4519634246826172,1.262833595784371,2.0278204423187,0.004460195079445839,0.9562966227531433,1.0939703990639866,1.6622356669098317,0.008760539814829826,0.08319147676229477,1.1259407364409137,1.7080164582199096,-0.4460795819759369,0.9957057237625122,0.01080787181854248,1.0369879262686474,1.6221579777492388,104.18919114329381,87.47905021804677,1.0,0.007023045414932457,-0.037501485127633585,-0.022941891561335855,-0.2558635848146064,169.4076546545152,1.372708419385421,70,2.3333333333333335
1.043434261005317,1.003299663667903,-0.19923880696296692,0.9998708367347717,0.9556974617982571,1.168272260881648,0.01783948577940464,0.9999732375144958,0.9571414590057487,1.1934200502836605,-0.3647252917289734,0.9999959468841553,1.0349271074808688,1.6039081377448685,0.1273248791694641,0.9999881982803345,1.037333185267008,1.632167353085886,-0.1274086833000183,0.9999947547912598,1.2558479538313494,1.6784666834643427,0.26249969005584717,0.2503531575202942,1.3133328818432126,1.6603509929066975,-0.1390802264213562,0.9744597673416138,1.2286955903576853,2.003299663667903,0.42684903740882874,0.4296474754810333,1.2601724439875328,2.023477626491197,0.007482161279767752,0.9512190818786621,1.0947364384356064,1.6589105711644476,0.0003802611608989537,0.08350954204797745,1.1232077279404662,1.7038928684050718,-0.44992494583129883,0.9956648349761963,0.010690242052078247,1.0361301463739385,1.6180377454153771,103.87084585959032,87.50180152792358,1.0,0.010541416615343671,-0.004771507933068687,0.027039736921919747,0.24984339980716957,174.55881395637738,1.3757427787963081,71,2.3666666666666667
1.0389681964613784,0.9980312880533779,-0.18927673995494843,0.9998813271522522,0.9541123086917969,1.1652445396023496,0.024993833154439926,0.9999752044677734,0.9527732770660503,1.1889133213239809,-0.35324233770370483,0.9999961256980896,1.0309734927647565,1.6040209526301488,0.12687046825885773,0.999988853931427,1.0332415299959856,1.6292330451759638,-0.12696966528892517,0.9999949932098389,1.260163222084685,1.669310205825095,0.25409433245658875,0.24212005734443665,1.309362011533004,1.6549888572441331,-0.12862691283226013,0.9732101559638977,1.2248759648575482,1.998031288053378,0.40761080384254456,0.4152420461177826,1.2563012759657521,2.0171595924423826,0.010835666209459305,0.9499979615211487,1.0950078580749478,1.6576610500020688,0.021288491785526276,0.08641127496957779,1.118906008366292,1.6975769118520234,-0.4277511239051819,0.9948291182518005,0.010093241930007935,1.032107511380371,1.6166269989030564,99.77358385373167,86.99401929310021,1.0,-0.006020708463056444,0.028870517475682304,-0.1298703154426214,0.26421163643271933,175.204607789575,1.3962020553584937,72,2.4
1.031674087336831,0.9908824416500879,-0.18885979056358337,0.999890923500061,0.9496235016302114,1.1589053117481036,0.02338765189051628,0.9999769926071167,0.9484950702916081,1.182716047322642,-0.35336214303970337,0.9999963641166687,1.0256606537893391,1.5955483766093357,0.12689624726772308,0.99998939037323,1.0278986049863177,1.6207889452386108,-0.1269947588443756,0.999995231628418,1.2514962665817875,1.6626798207136053,0.26219502091407776,0.2312546670436859,1.3026174740130536,1.6464451492678962,-0.12888504564762115,0.972542941570282,1.217293324984471,1.9908824416500879,0.41946691274642944,0.40262335538864136,1.2502955266423126,2.0077548193334844,0.009583359584212303,0.9489797949790955,1.0904092513848835,1.6504766318764958,0.021715331822633743,0.08547251671552658,1.112586716437233,1.6876076546441103,-0.4281409680843353,0.9946116209030151,0.010206252336502075,1.0267796293878284,1.6081686609239731,100.60552032003622,87.09558805595968,1.0,-0.00016403175986091033,-0.0011302352029696114,0.04498935673836432,-0.2305356533810085,175.18842691639617,1.3948655830500014,73,2.433333333333333
1.0278350680665513,0.9874066422265613,-0.18802791833877563,0.9998990893363953,0.9496962167552052,1.156138684406242,0.026198094710707664,0.9999784827232361,0.9474647107737799,1.1801475604835032,-0.35317808389663696,0.999996542930603,1.0242368271048339,1.591436006148157,0.12694579362869263,0.999989926815033,1.0257207980061847,1.6171683890057125,-0.1270463466644287,0.9999954700469971,1.2486487172690661,1.658242861078139,0.2602163553237915,0.22251597046852112,1.2998009001082664,1.642581251950608,-0.12960109114646912,0.9718674421310425,1.214081601889427,1.9874066422265613,0.41904205083847046,0.3955006003379822,1.2477585567134317,2.0028878883986176,0.008270435966551304,0.9485803842544556,1.088779363869568,1.646005928252865,0.022206109017133713,0.08444324880838394,1.108966487661058,1.683362703590756,-0.4333652853965759,0.9943686723709106,0.010314494371414185,1.0249788125555093,1.6043021975769347,100.58319630083153,87.07844555650487,1.0,0.0039035226660145625,-0.001742309102396249,0.030547715071219374,-0.004616336512350365,173.58343681503968,1.39638641907571,74,2.466666666666667
1.0270381493759548,0.9850736279838299,-0.18727560341358185,0.9999074935913086,0.9499522310093148,1.1545934093341785,0.03243035450577736,0.9999799132347107,0.9461425587413096,1.1785774609343878,-0.3535158932209015,0.9999967813491821,1.0234848846997204,1.5893652855574145,0.12832555174827576,0.9999905228614807,1.0243842164880959,1.6168175945074321,-0.12842372059822083,0.9999957084655762,1.249407061774069,1.653624034834298,0.2550075054168701,0.21575143933296204,1.298110093840606,1.6409336256975693,-0.13084915280342102,0.9713504910469055,1.212133670037169,1.98507362798383,0.40619221329689026,0.38690826296806335,1.246160848826213,2.001030618572057,0.008544819429516792,0.9480119347572327,1.0878905089008282,1.6438120970898673,0.024838615208864212,0.08394818753004074,1.105995545255836,1.6807827324971163,-0.44369983673095703,0.9943373799324036,0.010317176580429077,1.0239345505939081,1.6030914400324234,99.46099336440491,86.82580668437254,1.0,0.0021435617316141187,0.006579071430536288,-0.013352375249519053,0.06329671254008848,172.27677552336053,1.402491217856596,75,2.5
1.0280912507506954,0.984357406117693,-0.19206055998802185,0.9999150633811951,0.9509615413927973,1.1546128379376446,0.03204573690891266,0.9999812841415405,0.9452101129583538,1.1788922049895227,-0.35968321561813354,0.9999970197677612,1.023644861418926,1.5894460332104599,0.12912659347057343,0.9999910593032837,1.0232142594852287,1.6183108431871776,-0.1292172223329544,0.9999959468841553,1.2508174854731604,1.651291694946209,0.25355374813079834,0.20847339928150177,1.2981719198485944,1.641241314173545,-0.13843123614788055,0.9715231657028198,1.2125495486682032,1.984357406117693,0.40773993730545044,0.3763918876647949,1.2466000114734803,2.0014515061160023,0.0075353519059717655,0.9477487802505493,1.0886340904814178,1.644452780115738,0.023645717650651932,0.08490932732820511,1.1066252836152881,1.6809827895023752,-0.4572465419769287,0.9945348501205444,0.010443657636642456,1.0234295604520773,1.6038784381988187,98.67485491007054,86.61946418272849,1.0,-0.00421716545126609,0.005292221378270377,-0.04795847675912193,-0.009705023939204135,169.65594495659968,1.4071733802140811,76,2.533333333333333
1.0291504130595448,0.9845118698780821,-0.19356875121593475,0.999921441078186,0.9519461113433398,1.155033160581468,0.03160616010427475,0.9999824166297913,0.94475916428972,1.1795191831782246,-0.36050745844841003,0.9999971985816956,1.024521578896553,1.5899949701351341,0.1293392777442932,0.9999914765357971,1.023169399846394,1.6195969412710427,-0.12942107021808624,0.9999961256980896,1.2518637080590744,1.6508960499446106,0.2514537572860718,0.19955125451087952,1.2986513627177156,1.641980636995616,-0.1409086287021637,0.9708542823791504,1.2131090047334236,1.9845118698780821,0.40745288133621216,0.3638344407081604,1.2472932333589066,2.0023207936498806,0.00611360277980566,0.9463339447975159,1.0899686667905477,1.6454758281966726,0.021543089300394058,0.08442876487970352,1.1074567521378658,1.6817278670524305,-0.4571005403995514,0.9946537017822266,0.010528564453125,1.0238454893714735,1.6047959557030884,98.3703551219448,86.53368810095911,1.0,0.0002149175828833003,0.002336446246927917,0.03336874005287901,-0.022260819598403342,167.91181224669177,1.4097499248820924,77,2.566666666666667
1.028287403352048,0.9849956529137682,-0.19236719608306885,0.999926745891571,0.9521631209263836,1.1560169872674544,0.036982908844947815,0.9999832510948181,0.9454517994884459,1.180123449205244,-0.35941722989082336,0.9999973177909851,1.024814935059982,1.5907860078326603,0.13042791187763214,0.9999918341636658,1.02341671131173,1.6207095493190073,-0.13051411509513855,0.9999963045120239,1.252764376554054,1.6511797876924412,0.25048714876174927,0.19310477375984192,1.2990891020233193,1.6430081808986992,-0.13999256491661072,0.9701299667358398,1.2138982774887501,1.9849956529137682,0.4043971002101898,0.3554069995880127,1.24798695028151,2.003154671255851,0.004842674825340509,0.945179283618927,1.090340065711801,1.6461193050153962,0.024824753403663635,0.0813283920288086,1.1066707976351962,1.681714237293354,-0.45675545930862427,0.9944499731063843,0.010360568761825562,1.024115823185856,1.6057477785758338,98.19818274735937,86.54854094663119,1.0,-0.0015987838155843703,0.0016503574870548338,-0.014275319638963595,-0.005408289935521679,167.83798939695677,1.4109140386896912,78,2.6
1.0269598682283525,0.9826928217113907,-0.19194725155830383,0.9999324083328247,0.950613600328806,1.1541288816488542,0.03677608072757721,0.9999842643737793,0.9436757618853154,1.1777516756849036,-0.35944241285324097,0.9999974966049194,1.0239435973263808,1.5852138066702577,0.13087131083011627,0.9999922513961792,1.0217494800446023,1.6169431489355928,-0.13096296787261963,0.9999964833259583,1.2512714270671996,1.6484124702344876,0.25388336181640625,0.1869872808456421,1.2968036181959017,1.6402467319289755,-0.1375805288553238,0.9698606729507446,1.2117417327212918,1.9826928217113906,0.4108176827430725,0.3495677411556244,1.2465544972031477,1.9999127725192452,0.00546413566917181,0.9455782771110535,1.0887314625161708,1.642880448022494,0.024820733815431595,0.08128157258033752,1.1043745343108258,1.678474521510539,-0.4556329846382141,0.9943954348564148,0.01016947627067566,1.0228465386854915,1.6010784778029252,98.79220282681109,86.88939961909219,1.0,0.003328705568045008,-0.015986005752709975,0.0389797848923325,-0.1395687816502597,166.3903035715425,1.4009829192696386,79,2.6333333333333333
1.0240554951802865,0.9775428848481635,-0.18287113308906555,0.9999372959136963,0.9472114218596761,1.1511066897270743,0.04306862875819206,0.9999850988388062,0.9410895214302754,1.1741167079721861,-0.3556734621524811,0.999997615814209,1.018682602424435,1.582345148478985,0.13163647055625916,0.9999926090240479,1.0191757284791616,1.6121610517666394,-0.13173921406269073,0.9999966621398926,1.2470747906008959,1.6436547156766594,0.25895369052886963,0.18411406874656677,1.29306321290676,1.6355083339959888,-0.13525938987731934,0.9702503681182861,1.2068933003330948,1.9775428848481635,0.4130334258079529,0.34879130125045776,1.243540904612965,1.9943378857758811,0.005879170261323452,0.9464308023452759,1.0848348000106025,1.6388036640425514,0.03909750282764435,0.07986465096473694,1.1014008396948252,1.6736032880960585,-0.4470091760158539,0.9942732453346252,0.009934604167938232,1.0189291654517985,1.597253100122812,98.16401532976379,87.01455508507395,1.0,-0.0072600096668795685,0.006461936740018532,-0.08175984800792674,0.17312892634252466,171.53716979431573,1.4083548070019194,80,2.6666666666666665
1.0242196054478891,0.9776707456297367,-0.18593978881835938,0.9999411702156067,0.9552130241489175,1.1510864341354439,0.04564690589904785,0.9999858140945435,0.939632469471976,1.1736889140960243,-0.3561275899410248,0.9999977350234985,1.0214460688719014,1.5820823379605884,0.13310112059116364,0.9999929666519165,1.018202843837976,1.6120043368177075,-0.13320064544677734,0.9999968409538269,1.256002161505731,1.6437259797222157,0.23896697163581848,0.17782747745513916,1.2932366380743934,1.6361667844109269,-0.13658414781093597,0.9683141708374023,1.2073221696955958,1.9776707456297367,0.38143861293792725,0.3375801742076874,1.2434139033582172,1.994905081374699,0.0021835763473063707,0.9433977603912354,1.0851581622728061,1.6386839390156065,0.03652261197566986,0.07816071063280106,1.1011098978489733,1.6738023323994329,-0.4621551036834717,0.9942114949226379,0.00975799560546875,1.0198244563549388,1.597043337389148,96.43117225696818,87.11385098956002,1.0,0.006287127654890996,-0.0024075904916651277,0.10298565711970513,-0.06742722475114442,165.07734961685685,1.407113487087857,81,2.7
