nose_x,nose_y,nose_z,nose_visibility,left_shoulder_x,left_shoulder_y,left_shoulder_z,left_shoulder_visibility,right_shoulder_x,right_shoulder_y,right_shoulder_z,right_shoulder_visibility,left_hip_x,left_hip_y,left_hip_z,left_hip_visibility,right_hip_x,right_hip_y,right_hip_z,right_hip_visibility,left_knee_x,left_knee_y,left_knee_z,left_knee_visibility,right_knee_x,right_knee_y,right_knee_z,right_knee_visibility,left_ankle_x,left_ankle_y,left_ankle_z,left_ankle_visibility,right_ankle_x,right_ankle_y,right_ankle_z,right_ankle_visibility,left_wrist_x,left_wrist_y,left_wrist_z,left_wrist_visibility,right_wrist_x,right_wrist_y,right_wrist_z,right_wrist_visibility,trunk_lateral_inclination,center_mass_x,center_mass_y,left_knee_angle,right_knee_angle,person_height,center_mass_velocity_x,center_mass_velocity_y,center_mass_acceleration_x,center_mass_acceleration_y,body_orientation,torso_leg_ratio,frame,timestamp
0.9583817662347538,0.5675478286217626,-0.5942221283912659,0.9999939203262329,1.026415508124506,0.7053406779338796,-0.3206622004508972,0.9999350309371948,0.8655012103698916,0.708200142854427,-0.31875133514404297,0.9999908804893494,1.0213023290341212,1.050128166131189,-0.0015932668466120958,0.9999661445617676,0.9069172254556087,1.05894521740941,0.0014094788348302245,0.9999895095825195,1.0121971698890389,1.3112043633065096,-0.07417453825473785,0.5029112100601196,0.9065970930300981,1.3321409560383155,0.0009418078698217869,0.9852246642112732,1.015520368524589,1.5675478286217626,0.14319290220737457,0.7172906994819641,0.9145272450913028,1.5814897145717852,0.1871071308851242,0.9851688742637634,1.0805482151796861,1.0690017209522542,-0.45350462198257446,0.1906740516424179,0.8305568154145178,1.0853967107270277,-0.43641215562820435,0.9562546014785767,0.0015061497688293457,0.964109777244865,1.0545366917702994,177.2598590471412,178.1112707231214,1.0,-0.3812616546764369,-0.16219603002473468,-2.4746123700609517,-1.0095992196945247,95.25739753865275,0.9366092351952515,0,0.0
0.9705174247817608,0.5970137855703005,-0.5763343572616577,0.9999938607215881,1.059376718071292,0.7290039383776337,-0.320145845413208,0.9999412894248962,0.8819121454381412,0.7341799225960156,-0.30345648527145386,0.9999913573265076,1.039187545627705,1.0735339013667449,-0.008721199817955494,0.9999683499336243,0.917230188727019,1.0804997140746084,0.008534934371709824,0.9999894499778748,1.031283611913382,1.3438944054618922,-0.0793645903468132,0.5513224005699158,0.9260192803205338,1.3625405622349558,0.017346471548080444,0.9834385514259338,1.0394859278074247,1.5970137855703006,0.13070234656333923,0.7438024878501892,0.9335147823746843,1.6083456880087357,0.21411189436912537,0.9850536584854126,1.116398725702512,1.0962430036550945,-0.40984612703323364,0.2707984745502472,0.8430947609652693,1.109295743140912,-0.39325588941574097,0.960297703742981,0.002656221389770508,0.9782088671773621,1.0770168077206765,176.46943035637605,179.96171692370135,1.0,-0.08977777287352852,-0.04233039652783366,2.3866813304410806,0.9825947307535076,96.62264962934971,0.9131386796583693,1,0.03333333333333333
0.9764072944433845,0.6016496957345359,-0.5433386564254761,0.9999940395355225,1.067577169256565,0.7370655918497089,-0.271536648273468,0.9999468326568604,0.8853616405461733,0.7394960897808857,-0.2744738459587097,0.9999917149543762,1.0422617510159329,1.0774396454521709,-0.002724360441789031,0.999970018863678,0.9214522177047624,1.084917732935057,0.0025269542820751667,0.9999890923500061,1.0366260503327296,1.3476334866246251,-0.08845184743404388,0.5949487090110779,0.9232521094093059,1.3654001671007403,-0.0021136479917913675,0.9822468757629395,1.0430282949131622,1.6016496957345359,0.10270420461893082,0.7677074670791626,0.9299554337790306,1.6128443844189082,0.17377720773220062,0.9850381016731262,1.1228794350029359,1.1006053598264893,-0.32025009393692017,0.34260261058807373,0.8450291318741718,1.1113306788180488,-0.36036771535873413,0.9638813734054565,0.001242607831954956,0.9818569843603476,1.081178689193614,177.361316733025,178.815892160362,1.0,-0.00027513698859967043,0.0008119896492819542,0.6895026126077881,0.3323292555083817,97.79563722688385,0.9115537254303072,2,0.06666666666666667
0.9726413513672858,0.6005958885067926,-0.5670078992843628,0.9999943971633911,1.0684683374661723,0.7397224321460538,-0.289193332195282,0.9999518990516663,0.886920362627204,0.7403710210500977,-0.27989721298217773,0.9999922513961792,1.0402809072158414,1.0741861499674104,-0.004328539129346609,0.9999718070030212,0.9211678142373333,1.079845471203072,0.004148919600993395,0.9999891519546509,1.0366077256475343,1.3477672765371493,-0.04537542909383774,0.6335456967353821,0.9222222299899866,1.3640932141043647,0.004433801863342524,0.9809609651565552,1.0425248978208859,1.6005958885067926,0.17001435160636902,0.7886902689933777,0.9299960337795214,1.606980408222427,0.21158888936042786,0.9846173524856567,1.1220416760753713,1.1001057037373123,-0.35599949955940247,0.40745335817337036,0.8454921177776396,1.1120870918632124,-0.3712958097457886,0.9672350883483887,0.0003317892551422119,0.9807243607265873,1.0770158105852412,177.8900768651961,178.37936484721146,1.0,-0.004426196682317605,-0.02797664662132145,-0.03289262526458663,-0.22810597514462,97.53750509763243,0.9044901791378,3,0.1
0.981460832949419,0.6054280272801144,-0.5739117860794067,0.9999948143959045,1.0750956330287438,0.7446234717076521,-0.29470527172088623,0.999956488609314,0.8925885032331384,0.7447387338570031,-0.28840672969818115,0.9999927282333374,1.0448389674151326,1.07949585928928,-0.0035219956189393997,0.9999735355377197,0.925449812294887,1.082655963217318,0.003342093201354146,0.9999892711639404,1.042996647206808,1.3538458961462265,-0.05653270334005356,0.6689459085464478,0.9269069296798981,1.369602138253434,-0.00031425783527083695,0.9805416464805603,1.0481320210784484,1.6054280272801142,0.15747559070587158,0.8079428672790527,0.9359267785482616,1.619281975377709,0.1918218433856964,0.9848030805587769,1.1287735908177299,1.1052826025256233,-0.3575702905654907,0.466069757938385,0.8496143462018135,1.1177281033835884,-0.37766388058662415,0.9702711701393127,5.8650970458984375e-05,0.9851443898550098,1.081075911253299,178.44587501093238,178.22199828899207,1.0,-0.006013829802292662,-0.012591718411601683,-0.011795937193610339,0.11715168902357855,96.67902108603641,0.8952365329794145,4,0.13333333333333333
0.9855723552533218,0.6103036708584549,-0.5657671689987183,0.9999950528144836,1.078956305297698,0.7468430429077495,-0.29251375794410706,0.9999606609344482,0.8944398666297305,0.7488851795846324,-0.2908395826816559,0.999993085861206,1.0483639556789115,1.083113274741226,-0.0023416350595653057,0.9999746680259705,0.9303439713120997,1.0862995514133684,0.0021528778597712517,0.9999889135360718,1.0472059940161003,1.354245575154876,-0.07819341868162155,0.7005793452262878,0.933601179605806,1.373446870980321,-0.004232663195580244,0.9789523482322693,1.0526538483933634,1.610303670858455,0.11256174743175507,0.8249887228012085,0.9399722037443191,1.6293687497390057,0.17198632657527924,0.9844293594360352,1.1342099211341532,1.110100698200066,-0.4031715393066406,0.5189500451087952,0.8534626217997693,1.1225946622484384,-0.3853030204772949,0.9729745388031006,0.001034766435623169,0.9893539634955056,1.0847064130772972,178.5364679021064,179.22384728147492,1.0,0.00035990801189046765,-0.007099659097713015,0.04849292429296444,0.04202213451281116,96.74468492701881,0.8864689589308071,5,0.16666666666666666
0.9864262314481488,0.6116086555220038,-0.5725733041763306,0.9999953508377075,1.078742208618033,0.747318462424949,-0.2999037206172943,0.9999644160270691,0.894220533611994,0.7482666882480872,-0.29397693276405334,0.9999933838844299,1.0478734056769683,1.0822610310064904,-0.004625688306987286,0.999975860118866,0.9294515164702332,1.0853523812895907,0.004438760224729776,0.9999887347221375,1.0456426459064694,1.3488007107753026,-0.10389983654022217,0.7293815016746521,0.9319293607639305,1.3717619855549954,-0.003974843770265579,0.9776524901390076,1.0525244292250469,1.611608655522004,0.08456239104270935,0.8405327796936035,0.9399075265145337,1.631374946852713,0.16588148474693298,0.9843279719352722,1.1338911683545483,1.1100807132973174,-0.4122956395149231,0.5665568113327026,0.8519805491957873,1.1225631575625832,-0.39135488867759705,0.9753298163414001,0.00048047304153442383,0.9886624610736008,1.0838067061480405,178.02050214348915,178.7354737939567,1.0,-0.0055942360686860385,-0.007277545885070918,-0.048124322047539275,-0.0014377313588052126,96.76093030625898,0.8781255588804336,6,0.2
0.9836036078555129,0.6106105027263433,-0.5582059621810913,0.9999955892562866,1.0762131652491371,0.748227148941326,-0.29555970430374146,0.9999678134918213,0.8932594090660836,0.7479194931551431,-0.28098517656326294,0.999993622303009,1.0456452940698568,1.0813489799282336,-0.007521676830947399,0.9999767541885376,0.9279657524693471,1.0847634249690876,0.0073433369398117065,0.9999884366989136,1.043345242741061,1.3487217580089124,-0.07823609560728073,0.7549676299095154,0.930065865693251,1.3709806335936403,-0.0034431684762239456,0.9765784740447998,1.0503570474248958,1.6106105027263433,0.1013772115111351,0.8546054363250732,0.9380412006336031,1.6298035041647707,0.16423693299293518,0.9841564297676086,1.1309002873567267,1.1079520186117369,-0.4237139821052551,0.6094615459442139,0.85019728478653,1.120562677249885,-0.3849112391471863,0.9774414896965027,0.00015619397163391113,0.986805523269602,1.0830562024486607,177.9734603386993,178.6554527427546,1.0,0.0004181204599317211,0.009746810072056245,0.043376575195273645,0.12294329415924754,96.90484113841798,0.8794738221138709,7,0.23333333333333334
0.9824015392209692,0.608775752653854,-0.5446718335151672,0.999995768070221,1.0740878961201576,0.7462319786558798,-0.28353479504585266,0.9999707937240601,0.891506970128506,0.7455602155007767,-0.2743538022041321,0.9999938011169434,1.0433638112378338,1.0798329120950347,-0.006787077523767948,0.9999774694442749,0.9257646065285561,1.0834224048242296,0.006591723300516605,0.9999880194664001,1.0411049578381926,1.3454246796106233,-0.10873004049062729,0.7782719731330872,0.9287854905250525,1.3692229496271944,-0.0023154248483479023,0.9749289751052856,1.047842739940789,1.608775752653854,0.05991482734680176,0.8671823740005493,0.9354879505852242,1.6263252429064055,0.16209015250205994,0.9837504625320435,1.1282764782201533,1.1056567811614368,-0.3903506100177765,0.6479437351226807,0.8482105812303588,1.1181002153707353,-0.37816089391708374,0.979273796081543,0.00034177303314208984,0.984564208883195,1.081627658459632,178.04713132711098,179.11226936837105,1.0,-0.0011262394952796856,0.006634509461774595,-0.011778415773173059,-0.02359250646295694,97.01030304125379,0.8822419544173222,8,0.26666666666666666
0.9836509290432641,0.6098290453405772,-0.5400543808937073,0.9999959468841553,1.0757370657814178,0.7472608623786074,-0.2839304804801941,0.9999735355377197,0.8926681664562293,0.7464460747366326,-0.2719573676586151,0.9999939799308777,1.0445359370562322,1.0818149792118,-0.0070214844308793545,0.9999781250953674,0.9276532391430764,1.0854783855156789,0.006828155368566513,0.9999876618385315,1.042202022991429,1.3474290637350343,-0.10359470546245575,0.7989504337310791,0.9298207467187656,1.3714587003964076,-0.003498166799545288,0.9729818105697632,1.0489690246960839,1.6098290453405772,0.05890507623553276,0.8780468106269836,0.937064620033042,1.6268914294147314,0.15432211756706238,0.9830181002616882,1.129405240801393,1.107102196108141,-0.377845823764801,0.6825716495513916,0.8501226551319656,1.1193962160208448,-0.37742260098457336,0.9808542728424072,0.0004139840602874756,0.9860945880996543,1.0836466823637394,178.01929633896077,178.80982066370714,1.0,0.0016443476190096244,0.004462570326484745,0.021798762376911845,-0.017149343143568203,97.1233076677495,0.8860491583965621,9,0.3
0.9849853358659179,0.6103893114756024,-0.5344589352607727,0.9999960660934448,1.0767346099986201,0.7486785251903109,-0.27956098318099976,0.9999759793281555,0.8926277717268449,0.747833201713311,-0.26953521370887756,0.999994158744812,1.04551007406929,1.0833198777548463,-0.006489695515483618,0.9999788403511047,0.9288941863093648,1.0870606264330192,0.0062897540628910065,0.9999874234199524,1.0431524218573396,1.347736849985468,-0.11062847077846527,0.817648708820343,0.9297873040011508,1.371479536266943,-0.008452561683952808,0.9714585542678833,1.0496293012591487,1.6103893114756023,0.06259002536535263,0.8877594470977783,0.9382017867051056,1.6271798771089785,0.1510312706232071,0.9824218153953552,1.1302873817988592,1.1082524873248452,-0.39663374423980713,0.7137743234634399,0.8511519051631257,1.12027831029249,-0.3797299563884735,0.9822819232940674,0.0004290640354156494,0.9872021301893273,1.0851902520939327,178.076541210725,178.2951306519116,1.0,0.0007738663793426539,0.0031901473745495697,-0.006250626337572405,-0.009151789441520869,97.16796609138447,0.8897522897144855,10,0.3333333333333333
0.9847427457688963,0.6103618296041164,-0.5339270830154419,0.9999961853027344,1.0772861681290666,0.7491508541033838,-0.2846927046775818,0.9999781847000122,0.8925170372505823,0.7487410978155691,-0.27224376797676086,0.9999943375587463,1.0457948467273008,1.0839694952420458,-0.006472110748291016,0.9999796152114868,0.928955742914112,1.0878258798923026,0.006280994974076748,0.9999873638153076,1.0435569289283122,1.349329452866103,-0.07950285077095032,0.8338950872421265,0.929703477653774,1.3723195060557116,-0.003587067825719714,0.9696853160858154,1.0495460903576053,1.6103618296041164,0.09918219596147537,0.8963692784309387,0.9391907219334857,1.6277602601482524,0.16120567917823792,0.9818724989891052,1.1306228565769585,1.1087698535908361,-0.4067937433719635,0.741930365562439,0.8516796777210408,1.1207730813614105,-0.38492831587791443,0.9836472868919373,0.0002079010009765625,0.9873752948207064,1.0858976875671742,178.20243516217084,178.0235634175957,1.0,-0.001597711644016203,0.0021906606125054492,-0.018104844593072347,-0.007638643660655594,97.26355461793229,0.8918476495867828,11,0.36666666666666664
0.9855789433651495,0.6096791679363256,-0.5493296384811401,0.9999964237213135,1.0765167710017245,0.7486094006254939,-0.2983233332633972,0.9999802112579346,0.8929931022890484,0.7479237260879589,-0.2752208709716797,0.9999945759773254,1.0448485024910357,1.0821768285554247,-0.009359809570014477,0.999980092048645,0.9285006317384852,1.0846521353512029,0.009174218401312828,0.9999871850013733,1.0418683448545594,1.3480636076845318,-0.07012829184532166,0.8482946753501892,0.930112609556506,1.3704610963186385,-0.0012293673353269696,0.968498706817627,1.0485406864468971,1.6096791679363256,0.09960675984621048,0.9045531749725342,0.9386510563953955,1.6268820102195614,0.15236614644527435,0.9816011190414429,1.1295301001907658,1.1084453880742986,-0.40309420228004456,0.7672767043113708,0.8504982423537576,1.1196316901246433,-0.371429443359375,0.9849268198013306,0.00034818053245544434,0.9866745671147604,1.0834144819533138,177.89685816453107,178.41598563372546,1.0,0.0008372563065795789,-0.01245501839916438,0.019007942920666477,-0.1143750927645701,96.64208613386987,0.8856331931356157,12,0.4
0.9860512074484585,0.609054929437283,-0.5476547479629517,0.9999966025352478,1.0760413325448426,0.7481942392426922,-0.2947518229484558,0.9999819993972778,0.8925457175428012,0.7474602342610769,-0.2753104567527771,0.9999948143959045,1.0442118502010493,1.081306110106143,-0.009538785554468632,0.9999805092811584,0.9285996434196174,1.0839372672364047,0.009352605789899826,0.9999870657920837,1.0409714366785368,1.3472283438179038,-0.06936885416507721,0.8607714772224426,0.9302875323022308,1.3696091908801802,-0.001439900603145361,0.9660493731498718,1.0478673885545544,1.609054929437283,0.09767042845487595,0.9112542271614075,0.9379941447340524,1.6262515840636873,0.14904755353927612,0.9805845618247986,1.1287074069636223,1.1078338653769761,-0.3863295316696167,0.7899331450462341,0.8502946547604783,1.1187664634267576,-0.37081462144851685,0.9860442876815796,0.00037297606468200684,0.9864057468103334,1.0826216886712738,177.79315351027375,178.61853210205365,1.0,0.0032263606706127725,-0.0004482755094174037,0.01916560738478701,0.09622826182327628,96.76189062443436,0.8850504628045405,13,0.43333333333333335
0.9868320359969783,0.6089370756677881,-0.5448683500289917,0.9999967813491821,1.0770629524841762,0.7481129386427938,-0.2843526601791382,0.9999836683273315,0.8937931370203023,0.7472870303900455,-0.2631816267967224,0.9999949932098389,1.044751887354607,1.0804679325666615,-0.00945979729294777,0.9999806880950928,0.9295644304623022,1.0833498726123616,0.009251294657588005,0.9999865889549255,1.0403713244091606,1.3410604610353354,-0.1350565105676651,0.8727153539657593,0.9300495239972035,1.366332362090565,-0.025889191776514053,0.9632306098937988,1.0478095425775,1.608937075667788,0.004422876052558422,0.9162800312042236,0.9382957621909735,1.6263697103632073,0.10535550117492676,0.978955864906311,1.1289890160419276,1.108001022854703,-0.3536897301673889,0.8103657960891724,0.8504355343477424,1.1187943686687405,-0.35603421926498413,0.9868494868278503,0.0004196763038635254,0.9871581589084545,1.0819089025895114,177.44640601409745,178.28187685196022,1.0,0.00578417008494792,-0.005455040885994989,0.019622469627568466,-0.03840978873313622,96.98597813278026,0.8827745049630391,14,0.4666666666666667
0.9880092064147703,0.6089607194417462,-0.5325160622596741,0.9999968409538269,1.0792515917464351,0.7485891915300843,-0.28009098768234253,0.9999850988388062,0.8953689681940636,0.747726875109785,-0.25667646527290344,0.9999950528144836,1.0473050953903427,1.0812095717650854,-0.010490523651242256,0.9999804496765137,0.9306637852750536,1.0842841673294115,0.010275231674313545,0.9999857544898987,1.0409901667287889,1.3415463793068942,-0.13915511965751648,0.8832811713218689,0.9308052842806578,1.3662376329957135,-0.026061072945594788,0.9593677520751953,1.0485018800117778,1.6089607194417461,0.0007446766830980778,0.920560896396637,0.9389308250624494,1.627230582753472,0.11201874166727066,0.9767569303512573,1.1303270399435084,1.108755689671494,-0.35044023394584656,0.8284408450126648,0.8520837122437253,1.1195301552222376,-0.3507547974586487,0.9872857332229614,0.0004378855228424072,0.9889844403326982,1.0827468695472484,177.00143739145366,178.24553013204104,1.0,0.009257047388771332,0.0009376635483722222,0.0274512859247962,0.05061573391875617,96.99607343639391,0.884968679892821,15,0.5
0.9881782554657488,0.6086830923381141,-0.5304979085922241,0.9999968409538269,1.0803629243005226,0.7488373509504603,-0.27792540192604065,0.9999863505363464,0.8958211880235661,0.7474746508620136,-0.2589800953865051,0.9999951720237732,1.047827586840224,1.0811270409328162,-0.009613366797566414,0.9999802112579346,0.9310483613301122,1.084268122435402,0.009398825466632843,0.9999851584434509,1.040778607973371,1.3409750473259996,-0.1303969919681549,0.8923314213752747,0.9310051736599103,1.3658276738023534,-0.02629953622817993,0.9558702111244202,1.0483022991390456,1.6086830923381141,0.018073078244924545,0.9238578677177429,0.9389298764263447,1.6260473523464314,0.11729369312524796,0.9747447371482849,1.131138597742118,1.1085421749604107,-0.3483171761035919,0.8444717526435852,0.8521518814127602,1.1188318721015924,-0.3544199466705322,0.9879277348518372,0.0006920993328094482,0.9894379740851681,1.0826975816841091,176.83627836437861,178.24687102349876,1.0,0.004459441957074068,0.0009722583887936961,-0.03435622359642088,0.0002489672194179972,97.13289981471829,0.886531948940128,16,0.5333333333333333
0.9886580085513539,0.6083701880156334,-0.5224055647850037,0.9999969601631165,1.0818288040980424,0.7485334238576192,-0.274663507938385,0.9999875426292419,0.8959285716925419,0.7456775562713263,-0.2580541670322418,0.9999952912330627,1.0487816910525554,1.0808320514632208,-0.009101946838200092,0.9999797344207764,0.9309583965469372,1.0841025873861165,0.008885176852345467,0.9999842643737793,1.0404958328149245,1.3407842235269405,-0.12727944552898407,0.9003525972366333,0.9310431604097738,1.3656501279758348,-0.02418089099228382,0.9505933523178101,1.047927599811795,1.6083701880156334,-0.007229243870824575,0.9272945523262024,0.9386245106940025,1.6257245477143996,0.1126437559723854,0.9717679023742676,1.1316692515245323,1.1072477560893743,-0.3506210744380951,0.859043538570404,0.8522889087981311,1.1178200681994201,-0.35966795682907104,0.9885392189025879,0.0014509260654449463,0.9898700437997463,1.0824673194246686,176.58345242440146,178.34751071988597,1.0,0.006048313549291963,0.0009399854364558401,0.012844448086580829,-0.00025814635181087915,97.26939971177217,0.8868406405111351,17,0.5666666666666667
0.9904729857595893,0.6080833218050383,-0.5307418704032898,0.9999970197677612,1.0824382264695087,0.748273468006885,-0.2784654498100281,0.9999885559082031,0.8957511581904719,0.7434680602503588,-0.2606658935546875,0.9999954104423523,1.0493183684238212,1.0809220626466411,-0.00828295573592186,0.9999797344207764,0.9308416656174403,1.0839152165694057,0.008071886375546455,0.999984085559845,1.040255867745758,1.3416903942336749,-0.05966438725590706,0.907250702381134,0.9310482073125026,1.3654559425511488,-0.01146621908992529,0.9495694637298584,1.0475941381801472,1.6080833218050383,0.08421563357114792,0.9314543604850769,0.9381126135458864,1.6248879106665532,0.13518311083316803,0.9713916182518005,1.1348430503029894,1.1061809039008172,-0.397297203540802,0.8723008632659912,0.8527792261043369,1.1167358765094124,-0.36028650403022766,0.9892827868461609,0.002442091703414917,0.9900800170206308,1.0824186396080235,176.4316808432465,178.4822379570278,1.0,0.003967694162210425,0.0021023736379167006,-0.016706670013169472,0.009343533477967365,97.13305680547083,0.8881420464702062,18,0.6
0.9922301108710898,0.6079097973266159,-0.5333081483840942,0.9999970197677612,1.0836927789544295,0.7479558509303368,-0.2803216576576233,0.9999894499778748,0.8969697502761809,0.7427991256030829,-0.26192671060562134,0.9999954700469971,1.0508134142994856,1.0824880204338678,-0.007889529690146446,0.9999803304672241,0.9326256417834132,1.0851168403498526,0.007673578802496195,0.9999843835830688,1.040483427973665,1.346408241097124,-0.029523301869630814,0.9145844578742981,0.9314314379466684,1.3662814207073515,0.008723676204681396,0.9512319564819336,1.0474651167699853,1.6079097973266159,0.16284433007240295,0.9362571835517883,0.9378433497282755,1.623711097194565,0.18988735973834991,0.9724873304367065,1.1381813341589442,1.105406460873787,-0.4208342134952545,0.8844174146652222,0.8533784370155107,1.117071028331117,-0.37375158071517944,0.9898634552955627,0.002620905637741089,0.9917195280414494,1.0838024303918603,176.229209257945,178.3298507006299,1.0,0.012720435106525128,0.010925658308104848,0.06385850852364659,0.06437172827651606,96.88747038293201,0.8945173707642973,19,0.6333333333333333
0.994986462246481,0.6072072088969765,-0.5069311857223511,0.9999969005584717,1.0860683202148644,0.7476094184759255,-0.2601269483566284,0.9999902248382568,0.8996203989647149,0.7421453744831649,-0.2490004599094391,0.9999954104423523,1.0517359466055738,1.0828321309771571,-0.007480274885892868,0.9999803304672241,0.9350063569677566,1.0849580562044925,0.007268388755619526,0.999984085559845,1.0401277032206038,1.3458833453775076,-0.09328045696020126,0.9205495715141296,0.931735819999605,1.3658427763704262,0.0026852150913327932,0.9487026929855347,1.0470184675320457,1.6072072088969767,0.08399242907762527,0.9381657838821411,0.9373851424495923,1.6228133874323765,0.16876429319381714,0.9708470106124878,1.141403217327293,1.1047789239981438,-0.40561118721961975,0.8948566317558289,0.8532418777142253,1.116634986844409,-0.3671305775642395,0.9901957511901855,0.0027782022953033447,0.9933711517866652,1.083895093590825,175.9627577905878,178.07348986469592,1.0,0.01574035468748949,0.004022048841725725,0.023283374252194365,-0.05310422511123209,96.89102863249087,0.8975222265476978,20,0.6666666666666666
0.9992544659214608,0.6069749962090246,-0.4913792610168457,0.9999966621398926,1.0884597080711522,0.7471009368970085,-0.2414512187242508,0.9999908804893494,0.9007145439167872,0.7420985491832975,-0.23661008477210999,0.9999952912330627,1.0536135659887342,1.0843945866453446,-0.007216488476842642,0.9999802708625793,0.9377144055249357,1.086810025619198,0.007010824978351593,0.9999836087226868,1.0406539691996362,1.3422880657162588,-0.16150465607643127,0.9263635873794556,0.9340583636127788,1.3659737636950635,-0.0031349551863968372,0.9437642097473145,1.0470614943400898,1.6069749962090245,0.01467866450548172,0.938732385635376,0.9374614784434908,1.6213373857937512,0.16809315979480743,0.9677113890647888,1.1441206645645876,1.10481128269317,-0.3984186053276062,0.9036663770675659,0.8548444152616025,1.1166894183808411,-0.3674084544181824,0.9901717901229858,0.0025433897972106934,0.9956639857568349,1.0856023061322713,175.73646521708397,178.4861644583484,1.0,0.016716225377360946,0.012364007905648006,0.007212466840409677,0.06168510992063655,97.09227946936079,0.9055445292522443,21,0.7
1.004197643825997,0.6063915696601786,-0.5011773705482483,0.9999967217445374,1.0910168265067084,0.7468166563454245,-0.24722802639007568,0.9999915361404419,0.9027932417307214,0.7415463457966851,-0.24590285122394562,0.9999953508377075,1.0558745061996326,1.0849429537665989,-0.00587128009647131,0.9999803900718689,0.9401626057243475,1.0872903940350351,0.0056586056016385555,0.9999834299087524,1.0419460167283254,1.3420800414530003,-0.12646307051181793,0.9316415786743164,0.9364878136561025,1.3660108257277062,-0.006965606007725,0.9422982335090637,1.0471986839610241,1.6063915696601785,0.04138734191656113,0.9408256411552429,0.9375212078813455,1.6207828884452986,0.16736645996570587,0.9665828943252563,1.1481930108436056,1.1047874053686677,-0.39317744970321655,0.9123649001121521,0.856891546653529,1.1166562575009737,-0.3797195851802826,0.9906318187713623,0.0026796162128448486,0.9980185559619901,1.086116673900817,175.76096724541154,179.01222792148945,1.0,0.01756937430934975,0.003850259011862028,0.006361230488700073,-0.0634775232856847,97.09578804731049,0.9095019602819112,22,0.7333333333333333
1.0095671013718022,0.6060461768152687,-0.506095290184021,0.9999968409538269,1.0931991885785577,0.7463682956719636,-0.2497585564851761,0.9999921917915344,0.90572511571234,0.741683689524878,-0.2516784369945526,0.9999954700469971,1.0585135428541843,1.0855362198870724,-0.0033363904803991318,0.9999806880950928,0.9437178837020842,1.087851199609452,0.003122003749012947,0.999983549118042,1.0441074525378438,1.342564052590063,-0.10279850661754608,0.9364680647850037,0.9394210228795541,1.3666881090476117,-0.005266781430691481,0.9420737028121948,1.0477609246644197,1.6060461768152687,0.08962547034025192,0.943221390247345,0.9378362685120835,1.6202119858160144,0.18548083305358887,0.9663267731666565,1.152323519735463,1.1049306394385368,-0.40075254440307617,0.9203383326530457,0.8607783203163364,1.1189431796840448,-0.3894979655742645,0.9911853671073914,0.0023810863494873047,1.0011157132781343,1.0866937097482623,175.99758061681177,179.47529116170838,1.0,0.02175865748396517,0.0018809172440482547,0.032647510332429595,-0.015376512443459523,96.99443613010871,0.913046642520779,23,0.7666666666666667
1.01671409189985,0.6068992470091923,-0.49189215898513794,0.9999967813491821,1.0953795010961764,0.7468502470022638,-0.23366853594779968,0.9999927282333374,0.9082908021117704,0.7421183513516338,-0.25282520055770874,0.9999954700469971,1.0613083727584576,1.0874873128546985,0.0005035834619775414,0.9999810457229614,0.9466081827874294,1.0894492625161925,-0.000719055300578475,0.9999836683273315,1.0472302947480885,1.3444725382827967,-0.10228189080953598,0.941504955291748,0.9415316218913045,1.3692708210395879,-0.011833997443318367,0.9439583420753479,1.0493497217841001,1.6068992470091923,0.0965651273727417,0.9460231065750122,0.939262702910654,1.6218584232604298,0.1748037040233612,0.9673817753791809,1.155675133453561,1.10626845676518,-0.38354992866516113,0.9274981617927551,0.8634797403185177,1.1206003070397788,-0.3870822489261627,0.9915978312492371,0.0024017393589019775,1.0039582777729434,1.0884682876854455,176.40165040545475,179.4753032006311,1.0,0.011063386640869552,0.0018830524445720411,-0.08284766889212873,-3.973116866279878e-06,96.69177932606591,0.9158497294759341,24,0.8
1.026574989554341,0.6071802710791636,-0.4974382817745209,0.9999967217445374,1.0992118262182957,0.7477808663716141,-0.2394518107175827,0.9999932646751404,0.9128116483998543,0.7412442181846369,-0.25875741243362427,0.9999954700469971,1.0638404026636357,1.0888177863072166,0.000792741309851408,0.9999811053276062,0.949406718870982,1.0909265908745902,-0.0010104796383529902,0.9999832510948181,1.0485893589052069,1.3448972478955263,-0.11931765079498291,0.9457187652587891,0.9447295301053728,1.3714199137275191,-0.007413627114146948,0.9423251152038574,1.0497115882363823,1.6071802710791636,0.06908003985881805,0.9479939341545105,0.9400308480935461,1.6216669539284045,0.18965160846710205,0.9664559364318848,1.1600725954944635,1.1064114764538846,-0.4028550982475281,0.9341049194335938,0.8678491867067208,1.1206429416854757,-0.4000394940376282,0.9919725656509399,0.0033172965049743652,1.0066235607673089,1.0898721885909033,176.34657415028713,179.879641810031,1.0,0.019232521258119233,0.009525947661917146,0.06225988866488351,0.0582583770424514,96.97712806911517,0.9207506332379823,25,0.8333333333333334
1.0353114428735233,0.6078424621982045,-0.4671896994113922,0.999996542930603,1.1021691157959808,0.7481959872941105,-0.19995269179344177,0.9999936819076538,0.9161857679678784,0.741294546298846,-0.24941304326057434,0.9999952912330627,1.0672239833387804,1.0921947798503773,0.008573416620492935,0.9999813437461853,0.9532294742937333,1.0946995558390733,-0.008783163502812386,0.9999831914901733,1.0535340201325616,1.3554956520686727,-0.04715374857187271,0.9498214721679688,0.9504979207257258,1.3775437203378893,-0.005169479642063379,0.944932222366333,1.0513420327014444,1.6078424621982044,0.1676197350025177,0.9512190818786621,0.9411034538754085,1.6215615657358582,0.21659860014915466,0.9676560759544373,1.1640211142851487,1.1065260653508358,-0.3675433397293091,0.9402029514312744,0.8721372194707,1.121131128965178,-0.3976357579231262,0.9924757480621338,0.0035008788108825684,1.010226728816257,1.0934471678447253,177.52134760900728,178.34856700216838,1.0,0.024342370428046954,0.023841558238355747,0.03931805853868887,0.11030345082025894,97.05924097971338,0.9325092098058779,26,0.8666666666666667
1.0419409695833521,0.608240755088946,-0.47387781739234924,0.9999963641166687,1.1035815647284954,0.7485798949499821,-0.20160456001758575,0.9999940395355225,0.9187342332566875,0.7412498522820433,-0.26263228058815,0.999995231628418,1.0693173452995604,1.0940406448124598,0.013612927868962288,0.9999818205833435,0.9559912434616992,1.0972987549616633,-0.01381015032529831,0.9999834895133972,1.0575004964087276,1.363873444245646,-0.0174440685659647,0.9539148211479187,0.954464202657695,1.3824599037199186,-0.0010231187334284186,0.948351263999939,1.0528603749600332,1.6082407550889462,0.20504026114940643,0.9548294544219971,0.9414382848627453,1.6219552104464494,0.22533681988716125,0.9696121215820312,1.166575729406442,1.1068531905932735,-0.36558419466018677,0.9456361532211304,0.8752393677301243,1.121404327508824,-0.41099458932876587,0.9929713010787964,0.00371745228767395,1.0126542943806296,1.0956696998870614,178.58025428286635,177.1936219448057,1.0,0.01586534107741619,0.014249760441175225,-0.06120947257906803,-0.06925274745392208,97.31109790840043,0.9396652899063037,27,0.9
1.0470830692489952,0.6083517129764727,-0.46581870317459106,0.9999958872795105,1.1045773978750166,0.7487650959970318,-0.18939222395420074,0.9999943375587463,0.9208131286534278,0.7416453665729577,-0.26704344153404236,0.9999951124191284,1.0705969859304796,1.0953776847725591,0.017994951456785202,0.9999819993972778,0.958330752720573,1.099544821042193,-0.018179956823587418,0.9999834895133972,1.0592504772321791,1.3667334942538814,-0.018916675820946693,0.9575496315956116,0.9586177442815874,1.3845076972382409,-0.000869091774802655,0.9511478543281555,1.0535249838376273,1.6083517129764726,0.20442716777324677,0.9581276178359985,0.9413116360505119,1.6195757625402207,0.24097184836864471,0.9710758328437805,1.1685981402429744,1.106750401135932,-0.35759401321411133,0.9503717422485352,0.8779999109174433,1.1222949546954089,-0.4185217320919037,0.9934496283531189,0.003610938787460327,1.0144638693255263,1.0974612529073762,178.96307367965628,175.73168065688807,1.0,0.01400000621883405,0.01388933598966837,-0.014104052552634215,-0.0027217638893468617,97.72488884973104,0.9485480848181126,28,0.9333333333333333
1.0492941761237686,0.6083318119353481,-0.4721437096595764,0.9999958872795105,1.105654788049527,0.7495158605078909,-0.1794922649860382,0.999994695186615,0.9223054611851368,0.7417122199763443,-0.2801397144794464,0.9999952912330627,1.0718214039572251,1.0967107894607107,0.027210097759962082,0.9999822378158569,0.9605051938382471,1.1008148327518918,-0.027383387088775635,0.9999837279319763,1.0610222301953205,1.3704087102742517,0.006061857100576162,0.9607016444206238,0.9629449148944559,1.387644822447126,-0.008995138108730316,0.9540323615074158,1.0536559413935755,1.608331811935348,0.26537030935287476,0.960690438747406,0.9402938794438165,1.6166100581261191,0.2564334273338318,0.9721826314926147,1.1713239464791483,1.1058945294249927,-0.3433499038219452,0.9547484517097473,0.8802433657009653,1.1235340887262852,-0.42889541387557983,0.9939839839935303,0.003957897424697876,1.016163298897736,1.0987628111063013,179.51383518648362,173.86290031124022,1.0,0.01347334868837845,0.010380325687841334,-0.0041125513291219275,-0.02741627993947475,97.67721837480765,0.9561934845965415,29,0.9666666666666667
1.052330959679781,0.6084465403153707,-0.48805469274520874,0.9999959468841553,1.1068252231430429,0.7508420112407641,-0.19257673621177673,0.9999950528144836,0.9244799470242981,0.7417748940518284,-0.30898410081863403,0.9999955296516418,1.0735253541894991,1.0974295348353262,0.03324825316667557,0.9999822378158569,0.9634818265968418,1.1013462953297826,-0.033412158489227295,0.9999839067459106,1.0629574820979868,1.3716377950932714,0.023279499262571335,0.9633123278617859,0.9683000273329329,1.3876623807460498,-0.013849111273884773,0.9565622210502625,1.0539775176490176,1.6084465403153707,0.28266066312789917,0.9628913998603821,0.9382152893644332,1.6161003491810082,0.2490977793931961,0.9732692241668701,1.1732491276057744,1.105989779210904,-0.349643737077713,0.9586214423179626,0.8828560805020985,1.1244743875845133,-0.4608619809150696,0.9944977164268494,0.004598110914230347,1.0185035903931705,1.0993879150825545,179.9645950221507,171.53336132420492,1.0,0.017804438637701297,0.0038785184766220583,0.03492949467671339,-0.05246840431053864,97.52654795957514,0.9585658347700401,30,1.0
1.0551648227219592,0.6080470708623534,-0.4647368788719177,0.9999961256980896,1.1054978650709826,0.7533351218375425,-0.15407176315784454,0.9999954104423523,0.9250743396003022,0.7413497553100721,-0.30007657408714294,0.9999958276748657,1.0727583715152358,1.097786350173463,0.04449384659528732,0.9999822974205017,0.9640868902954697,1.1011846647823162,-0.04465830326080322,0.9999841451644897,1.064088746142657,1.3733387818500964,0.04674036055803299,0.9654917120933533,0.9751741090054162,1.3890139954369651,-0.042194124311208725,0.959154486656189,1.053274560140725,1.6080470708623535,0.28786176443099976,0.9646864533424377,0.935042177063796,1.6162459218345355,0.20570242404937744,0.9742740988731384,1.1730023097075373,1.1046327818726485,-0.25441449880599976,0.9621706008911133,0.8872031936546001,1.1238205973666704,-0.43972286581993103,0.9949784874916077,0.006081998348236084,1.0184226309053528,1.0994855074778895,179.1640481257059,167.778201965875,1.0,0.004382931062164585,0.006113023882077987,-0.10018691417269979,0.016713320400842783,97.22069175669517,0.960200008250662,31,1.0333333333333334
1.0610164703980267,0.6086986815785713,-0.4427988529205322,0.9999963045120239,1.1057447821493296,0.7550579359081373,-0.13941887021064758,0.9999957084655762,0.9264883822688955,0.7415406735736684,-0.3087528944015503,0.9999961256980896,1.0727230299817268,1.0983728408569646,0.053008563816547394,0.9999823570251465,0.9652812243854385,1.1014284935441905,-0.053171556442976,0.9999845027923584,1.0653575510787254,1.3745784172174973,0.06341450661420822,0.9663509726524353,0.980321084403035,1.3890896537851272,-0.05465511605143547,0.9609835743904114,1.0534648746813455,1.6086986815785713,0.27327626943588257,0.965361475944519,0.933561291180695,1.6225808339161234,0.14234888553619385,0.9750241041183472,1.1729859434806476,1.1042158983238206,-0.2349187433719635,0.9650726318359375,0.8913224680593468,1.1242226333085177,-0.4341806471347809,0.9954221844673157,0.006857067346572876,1.0190021271835825,1.0999006672005776,178.61955360468477,165.6826594540194,1.0,0.0017060331055753415,0.00033759552470651597,-0.019142995542675106,-0.04129316720701508,97.12315148771549,0.954732102219522,32,1.0666666666666667
1.061869092986183,0.6082416042215987,-0.4066651463508606,0.9999964833259583,1.1016846299276666,0.7547419750908534,-0.10428521782159805,0.9999960064888,0.9266807774077076,0.7404721237526274,-0.30446118116378784,0.9999964237213135,1.0717972937551605,1.0979930205546984,0.06421728432178497,0.9999828338623047,0.9650531677106874,1.1005085326345865,-0.06434307247400284,0.9999852180480957,1.0649862145828668,1.3762927222449053,0.09804891794919968,0.966973602771759,0.9862054248764478,1.3878818067423355,-0.06644932925701141,0.9639971256256104,1.0530587540847718,1.6082416042215988,0.2991284430027008,0.9659915566444397,0.9309171110884771,1.6328063868763651,0.09939362108707428,0.9765989184379578,1.1712400359157593,1.1019000775200396,-0.17909425497055054,0.9677550792694092,0.8934297583611425,1.1238472012800054,-0.4051402509212494,0.9958383440971375,0.0072442591190338135,1.018425230732924,1.0992507765946424,178.4582549024849,163.06978715096233,1.0,0.0014178451505645953,0.0013220326451489042,-0.0021984479756989397,0.007545123297831736,96.32624291198098,0.9444044830295629,33,1.1
1.0612900627803985,0.6077623219884142,-0.4035005569458008,0.9999966025352478,1.0987423213865783,0.7542888285475747,-0.10147351026535034,0.9999962449073792,0.9263390423078306,0.7394118679102809,-0.30198073387145996,0.9999966621398926,1.070874973757668,1.0975333703624688,0.0653313547372818,0.9999831914901733,0.9645488750273715,1.099575271631234,-0.06545908749103546,0.9999858140945435,1.0644396705576198,1.376477966090361,0.0988660603761673,0.9674097299575806,0.9868412045469463,1.3867006119310032,-0.06809421628713608,0.9666025042533875,1.0523962658723216,1.607762321988414,0.3016473352909088,0.9664275050163269,0.9293816570395411,1.6359800953047592,0.09946712106466293,0.9779176115989685,1.1697555531531654,1.1000857176191912,-0.17958053946495056,0.9700628519058228,0.8936583567757013,1.123270007802163,-0.3998785614967346,0.9962063431739807,0.007558465003967285,1.0177119243925197,1.0985543209968514,178.34078460349807,162.58037124684967,1.0,0.0007281575278026057,0.0013485064148448008,-0.005272963695067048,0.0002107704998463444,95.74173191376535,0.9403004042670694,34,1.1333333333333333
1.060298780454221,0.60657944648941,-0.4026162028312683,0.9999967217445374,1.0924885593975595,0.7533841343620257,-0.09226624667644501,0.9999964833259583,0.9252434222468522,0.7385284310879702,-0.31645408272743225,0.9999969005584717,1.0694295829469604,1.0965327747142033,0.07395776361227036,0.9999837875366211,0.9651392530289428,1.098656072715486,-0.07405129075050354,0.9999866485595703,1.0633348423018523,1.3749912549747036,0.13736534118652344,0.9649849534034729,0.9899347542012156,1.385681337957816,-0.09640762209892273,0.9693086743354797,1.0517778153034252,1.6065794464894099,0.35344651341438293,0.9648591876029968,0.9256352931291464,1.644101083469084,0.03492768481373787,0.9794228076934814,1.1680037424606748,1.0962127390145784,-0.19650238752365112,0.9713818430900574,0.8942635915271047,1.1235626078772845,-0.4198930859565735,0.9965293407440186,0.0075560808181762695,1.0172844179879517,1.0975944237148445,178.39697571983382,161.09011665703233,1.0,0.005654431414055937,0.0021117010135899175,0.03946055876670725,0.006124382705097866,95.01074628869101,0.932593918901681,35,1.1666666666666667
1.0607098420284,0.606709022928984,-0.35515570640563965,0.9999969005584717,1.0830706351101909,0.7537558215548982,-0.05312773585319519,0.9999967217445374,0.9252065923736115,0.737832299265722,-0.31055349111557007,0.9999971389770508,1.0683226276887354,1.097159590290948,0.08101873099803925,0.9999848008155823,0.9660389501631725,1.100052976083668,-0.08109874278306961,0.9999876618385315,1.063062629236483,1.3744593648013497,0.15893444418907166,0.9595844149589539,0.9909606737962645,1.386068057425067,-0.13070432841777802,0.9719928503036499,1.0519241191268853,1.606709022928984,0.37411776185035706,0.9617322087287903,0.9241775335593795,1.6563677012380869,-0.04564055800437927,0.9810401201248169,1.1646508748376607,1.0942110198572732,-0.17560365796089172,0.9719778299331665,0.8973085302391036,1.1233495647648293,-0.4354604184627533,0.9968177676200867,0.008100688457489014,1.017180788925954,1.0986062831873078,178.34093600881172,161.1419752491356,1.0,0.0006303412387268344,0.00927937621562448,-0.0384406861747486,0.05485608282125666,94.07948753326411,0.9252241628649313,36,1.2
1.0602685534961198,0.6076009372582174,-0.261718213558197,0.9999966621398926,1.0665929604379434,0.7539159852121898,0.01744452677667141,0.9999968409538269,0.9252251911232825,0.7381175074481652,-0.24895456433296204,0.9999973177909851,1.0656197944585324,1.1001048403522617,0.08553444594144821,0.9999856948852539,0.9678106367135304,1.106562260707697,-0.08563467860221863,0.9999885559082031,1.061794750575825,1.3773787427454953,0.16456907987594604,0.9432379007339478,0.9910215359849919,1.3928015015632298,-0.14240434765815735,0.9740497469902039,1.0527452679452673,1.6076009372582174,0.3591480851173401,0.9524180293083191,0.9220837893095655,1.6655865821224816,-0.06964510679244995,0.9821114540100098,1.1550849680310757,1.0940193887851997,-0.057329632341861725,0.9687225818634033,0.9016838677816199,1.1237705634635708,-0.37359973788261414,0.99701327085495,0.00803518295288086,1.0167152155860313,1.1033335505299793,178.53935465622254,161.18134873860643,1.0,-0.0056084317653543195,0.0355423614431313,-0.0496237309796761,0.20887566591171092,93.9382836140564,0.9317980252067661,37,1.2333333333333334
1.0634483974570277,0.610237215845018,-0.2407579869031906,0.9999962449073792,1.061123634069187,0.7566265019144747,0.02939889393746853,0.9999969005584717,0.9283667652108363,0.7409748986128519,-0.24584369361400604,0.9999974966049194,1.0673043406972795,1.1105044783599698,0.08882331848144531,0.999986469745636,0.9731337804587082,1.1203731665729724,-0.08891948312520981,0.99998939037323,1.0654440595061798,1.3819821486635904,0.19343379139900208,0.9296200275421143,0.99341297436744,1.40375211988369,-0.12573686242103577,0.976028323173523,1.0591146809366638,1.610237215845018,0.40031591057777405,0.9460459351539612,0.9234801749083048,1.677591839180714,-0.03804852068424225,0.9832829236984253,1.1497442260387496,1.0980567318719767,-0.02038336731493473,0.9675537943840027,0.9097864775694443,1.1312437437076865,-0.38938388228416443,0.9972453713417053,0.007931530475616455,1.020219060577994,1.115438822466471,178.80423786759587,161.58085447199144,1.0,-0.001578687096666197,0.06150677771938227,0.030839094862468042,0.1967100261321128,94.98191998480122,0.9580161867123663,38,1.2666666666666666
1.0648738492523444,0.6115473369537135,-0.2662908434867859,0.9999960064888,1.0572380689386023,0.7575490395414785,0.005406346172094345,0.9999970197677612,0.9299148111054347,0.7421567576761827,-0.2555541694164276,0.9999976754188538,1.0633144301589343,1.1145906138972475,0.0928734689950943,0.9999869465827942,0.9747462246922124,1.1267633681684903,-0.09296475350856781,0.9999900460243225,1.0643293369634939,1.3830627455261706,0.21386906504631042,0.9108902812004089,0.9944851781245104,1.4082611387141226,-0.11218160390853882,0.9776030778884888,1.0609736518386539,1.6115473369537137,0.409688800573349,0.9379464983940125,0.9219522173675146,1.6841442228171153,-0.02035997435450554,0.9840603470802307,1.143174857790205,1.100116084458204,-0.025168990716338158,0.9654181599617004,0.9120886618248161,1.1354343227859658,-0.39793261885643005,0.9974679350852966,0.0077859461307525635,1.0190303274255734,1.1206769910328689,178.94197990433844,161.25853502392718,1.0,-0.024308839291914297,0.025602928192801192,-0.1813933656074649,-0.2874531469177173,96.85066250792596,0.9683615810860408,39,1.3
1.0667867994109874,0.6126413340875088,-0.22805599868297577,0.9999954700469971,1.0547306991513166,0.7588095640149686,0.025584226474165916,0.999997079372406,0.9317911508772013,0.7426932564672707,-0.26118144392967224,0.9999978542327881,1.0602838077041616,1.1173808306399902,0.09412974119186401,0.9999876022338867,0.9765364454484372,1.1296919964904863,-0.09420692175626755,0.9999907612800598,1.0612288493353534,1.38580996904968,0.2215977907180786,0.8996994495391846,0.996261399719664,1.4109776215369827,-0.11113744974136353,0.979442298412323,1.0630486714743381,1.6126413340875088,0.4100125730037689,0.9355886578559875,0.9224459491214998,1.6878046764386703,-0.03434056416153908,0.9852274656295776,1.1310936763808082,1.1017649121854043,-0.027865778654813766,0.962631106376648,0.919844575309887,1.1391426489742467,-0.3783332407474518,0.9976782202720642,0.008134812116622925,1.0184101265762995,1.1235364135652384,179.7420542413677,161.05830845183377,1.0,-0.021406425091507524,0.0035698845083399623,0.022616580986065934,-0.16909070125746614,97.47553513282182,0.9731980075363984,40,1.3333333333333333
1.0649246846087215,0.6121701429235589,-0.18524260818958282,0.9999940991401672,1.0449477496264121,0.75458022128112,0.05388224124908447,0.9999969005584717,0.929914662267215,0.741565399688005,-0.25465068221092224,0.9999979734420776,1.0495319543501023,1.118748606532775,0.09674105793237686,0.9999880790710449,0.975478930775558,1.1295908880551133,-0.09683401882648468,0.9999913573265076,1.054132092844073,1.3864982659926957,0.19708730280399323,0.8934151530265808,0.9938409486329475,1.4097686522780393,-0.1086651086807251,0.9810040593147278,1.06105679138009,1.6121701429235589,0.37214207649230957,0.93660968542099,0.9214436798464126,1.68565232442431,-0.0094844289124012,0.9862959980964661,1.1156316069821073,1.0972619763233615,0.008184731937944889,0.9491288065910339,0.9243674676789371,1.1387054767673237,-0.3757423758506775,0.9978767037391663,0.006572544574737549,1.0125054425628301,1.1241697472939443,179.22672871132806,161.546375682354,1.0,-0.04325148834084407,0.009484294023955217,-0.17490632734950776,0.04734600838166377,97.60842037255537,0.9800108349902843,41,1.3666666666666667
1.0567308076242308,0.6084374457331886,-0.20436401665210724,0.9999931454658508,1.032695193365237,0.7502220951492256,0.04450910538434982,0.9999968409538269,0.9253025813022318,0.7376194046268122,-0.2789112329483032,0.9999980926513672,1.0372980480736984,1.1184715831410332,0.10370664298534393,0.9999887943267822,0.9714670288011849,1.1281121033167758,-0.10378219932317734,0.9999920129776001,1.0471021662384912,1.3818643455118962,0.223527193069458,0.8934926986694336,0.9855847354961003,1.4042225805330506,-0.0799991711974144,0.9826248288154602,1.0561453361724034,1.6084374457331887,0.3908975422382355,0.9402279257774353,0.9174506423044053,1.6784757324847095,0.0010017618769779801,0.987464189529419,1.0985864886761318,1.087715749258502,0.00966339185833931,0.9305899143218994,0.9257412732498647,1.1361780369523282,-0.3937914967536926,0.9980452060699463,0.006386935710906982,1.0043825384374416,1.1232918432289045,179.84608130261506,163.12115745883216,1.0,-0.0353979226409847,0.023990431839486338,0.05987317980841427,0.11304025553839647,97.61525104124264,0.9943223132409876,42,1.4
1.0414329140905891,0.595818575186788,-0.19832660257816315,0.9999925494194031,1.015254059010891,0.740557565924241,0.053892385214567184,0.9999966621398926,0.9135548503284227,0.7272360371710617,-0.28723403811454773,0.9999982118606567,1.0171916450536698,1.1050678143492478,0.10696319490671158,0.9999893307685852,0.9576355429825993,1.1138640667921509,-0.10703764110803604,0.9999926090240479,1.026403052996831,1.3656249618636902,0.2205338031053543,0.8861653208732605,0.9653176049990673,1.3869976830557398,-0.06990859657526016,0.983745813369751,1.0361579287785165,1.595818575186788,0.3869747817516327,0.9411678314208984,0.9057255313078038,1.6591411790207002,0.029359813779592514,0.9882994890213013,1.070818299152546,1.0706768533955988,-0.01164414081722498,0.9039233326911926,0.9189562302671838,1.1236896073398377,-0.40991726517677307,0.998202383518219,0.00683179497718811,0.9874135940181346,1.1094659405706992,179.59815760872937,166.0376639817645,1.0,-0.03999307005216397,-0.004528843428751368,-0.03911091160565381,-0.22031728318876,98.0971109164161,0.996531592187225,43,1.4333333333333333
1.0283392963016438,0.5854502000312933,-0.2275276631116867,0.9999900460243225,0.998502376430806,0.7301293837427193,0.030314961448311806,0.9999961853027344,0.9035505676842125,0.7188798569831353,-0.3249644637107849,0.9999982714653015,1.001460449128245,1.0943103482307124,0.11009184271097183,0.9999896883964539,0.9424009659369907,1.103931738058761,-0.11016540229320526,0.999993085861206,1.0123913460433476,1.3530377819495762,0.2444826364517212,0.8678799271583557,0.9489138013910031,1.3730922994756851,-0.0389261469244957,0.9841348528862,1.0255113916931007,1.5854502000312933,0.41920486092567444,0.9399515390396118,0.8969351284713576,1.6431914292082115,0.08818809688091278,0.9887454509735107,1.0506271575634076,1.0571276207189617,-0.03301253169775009,0.8540335297584534,0.9134583618351767,1.114737185622054,-0.46112149953842163,0.9983213543891907,0.005826026201248169,0.9719307075326178,1.0991210431447367,179.18822590736224,167.72089347511883,1.0,-0.04264599089342745,0.0034853545234293203,-0.022181804329954258,0.058095914086100625,98.78740382210584,1.0028057688109286,44,1.4666666666666666
1.0243254942097606,0.5847520086840514,-0.20537535846233368,0.9999849200248718,0.9954218022406862,0.7282990535126617,0.04516732692718506,0.9999955892562866,0.9019995078838309,0.7163876236174608,-0.3121143579483032,0.9999983310699463,0.9960853141603065,1.09510757095034,0.11134184896945953,0.9999900460243225,0.9372389799918165,1.1049328812056742,-0.11141195148229599,0.9999935030937195,1.0095337305630063,1.3517678218675113,0.24674570560455322,0.8482979536056519,0.9442904034875529,1.3712030194160578,-0.048078980296850204,0.9847359657287598,1.0246324202016848,1.5847520086840514,0.4184187352657318,0.9385996460914612,0.8956732114132097,1.6432085353474422,0.06347160786390305,0.9892910718917847,1.045296126392813,1.0532982732654068,-0.03714871406555176,0.8037236332893372,0.9129272227318815,1.1134917481452675,-0.458994060754776,0.9984154105186462,0.006176203489303589,0.9666621470760615,1.1000202260780072,179.29152146059158,168.34922315381306,1.0,-0.030519358016237706,0.016448023734369738,0.0897435784841095,0.09636668618695213,99.3753420716386,1.0087188552694863,45,1.5
1.0216492576043137,0.5826124220987784,-0.2211257666349411,0.9999800324440002,0.9780174579532525,0.7229912783684854,0.031367603689432144,0.9999940991401672,0.8996933760176136,0.7129468381474802,-0.3451378345489502,0.9999984502792358,0.9908215943528945,1.093352237814517,0.11568735539913177,0.9999905228614807,0.93277380797445,1.1045383838321239,-0.11576995998620987,0.9999940395355225,1.0062786932770882,1.3491743291101237,0.25711724162101746,0.8297199010848999,0.9389490384674976,1.3687358534870573,-0.02141387388110161,0.9847052097320557,1.0219439802104329,1.5826124220987785,0.43863973021507263,0.9363275170326233,0.894195732076952,1.6415841431892797,0.1187630146741867,0.989392101764679,1.018335808865504,1.050547107529451,0.04148004204034805,0.7305137515068054,0.9139921852602431,1.112725888006787,-0.459369957447052,0.9985137581825256,0.0052165985107421875,0.9617977011636722,1.0989453108233205,179.61849974008075,169.34617445724365,1.0,-0.025832638877652338,0.0055344260029253165,0.036314374673415126,-0.08525522468962565,98.92747895345909,1.0129036982819757,46,1.5333333333333334
1.0174171031151151,0.5829438430142664,-0.22899460792541504,0.9999715685844421,0.9675492919712966,0.7183208002583731,0.02887861430644989,0.9999922513961792,0.8980861634599852,0.7129349668945189,-0.3479996621608734,0.9999985098838806,0.9871291097117563,1.0935045425962473,0.11722560971975327,0.9999907612800598,0.929518201556461,1.1053779457758752,-0.11731386184692383,0.9999944567680359,1.0075671475416386,1.3478567517580882,0.260794997215271,0.8077617883682251,0.9377894340075824,1.3690921592897818,-0.024781476706266403,0.9844838976860046,1.0189059858067044,1.5829438430142664,0.4431610107421875,0.9332336187362671,0.8946179783962754,1.6439859667524963,0.10542943328619003,0.9895256757736206,1.0175303077984823,1.0346223779941117,0.053330905735492706,0.6656690835952759,0.9165112589864828,1.1135920592310784,-0.470184326171875,0.9985909461975098,0.0027960538864135742,0.9583236556341087,1.0994412441860613,178.16734449201724,169.2782699514232,1.0,-0.029878129336301035,0.000528571918151149,-0.031329399102845226,-0.03888006622757247,98.65800050280532,1.0113592026451481,47,1.5666666666666667
1.0123698845329143,0.5813178383460802,-0.23099073767662048,0.9999646544456482,0.9590670901606448,0.7153567210558301,0.025403445586562157,0.9999904036521912,0.8946761303046634,0.7122920847140842,-0.35997840762138367,0.9999985694885254,0.9840334361491097,1.0920683170700944,0.11928542703390121,0.9999911785125732,0.9259842795060256,1.104654917384275,-0.11936327069997787,0.9999948740005493,1.005316416507092,1.3456286477623236,0.2726968824863434,0.7798937559127808,0.9332847347238307,1.3676033986538396,-0.01559042651206255,0.9841117858886719,1.0156355276283955,1.5813178383460802,0.47013282775878906,0.927543044090271,0.8935477176044306,1.6419510153535677,0.12389978021383286,0.9895604848861694,1.0006109321071883,1.0369451101351894,0.06816475093364716,0.6019119024276733,0.9212781071195147,1.1146361124170117,-0.4762043356895447,0.9986476302146912,0.0015930533409118652,0.9550088578275676,1.0983616172271846,177.70899973588593,170.1681461834784,1.0,-0.016056621517266882,0.0025747349099289646,0.10626360025893834,0.01578055596009088,98.44217396476895,1.0135229134793307,48,1.6
1.0006869627026305,0.5739193255412163,-0.2344498634338379,0.9999621510505676,0.946464417698874,0.7042999986939439,0.02287450060248375,0.9999898076057434,0.8874487037906368,0.7081317620128503,-0.35782521963119507,0.9999986290931702,0.9723533015244983,1.0856573765393425,0.11854879558086395,0.9999917149543762,0.915177073548012,1.0985085124345952,-0.11862514168024063,0.9999952912330627,0.9984430556397584,1.337703621419845,0.2635508179664612,0.7697000503540039,0.9240017924336918,1.3605869792593157,-0.032449763268232346,0.9849095940589905,1.0033729897215664,1.5739193255412163,0.449007123708725,0.9292372465133667,0.8887882382860027,1.635294951671076,0.07084805518388748,0.990230917930603,0.9929751861315319,1.0278886325381467,0.06777296960353851,0.5499547123908997,0.9228948956190258,1.1101344650357086,-0.48232945799827576,0.9987254738807678,0.0020022690296173096,0.9437651875362552,1.0920829444869689,175.28587580863407,170.7668143224793,1.0,-0.04683135573004686,-0.004089748669082602,-0.2308624844458223,-0.04975860016869341,98.78386058535624,1.0170709873775854,49,1.6333333333333333
0.991196881906333,0.5688639718058406,-0.27017879486083984,0.9999622702598572,0.9333463104283629,0.6972951109021746,-0.009082275442779064,0.9999896287918091,0.8834877886047129,0.7055284640704635,-0.4003257751464844,0.9999986886978149,0.9610711580597107,1.0808929264093599,0.12277404218912125,0.9999921917915344,0.9102735581859362,1.0932002578828324,-0.12282630056142807,0.9999956488609314,0.9883033988000505,1.332076645995927,0.28556349873542786,0.7335381507873535,0.9190879829429608,1.3560559767335003,-0.03830409795045853,0.9846640825271606,0.990027011561944,1.5688639718058406,0.47886720299720764,0.9224264621734619,0.8852509462796561,1.6300977924109108,0.07062093168497086,0.9903085827827454,0.9922097089465991,1.0510914026688611,0.0348198302090168,0.5014863610267639,0.9234332643513233,1.1090347001498446,-0.5247306823730469,0.9987847208976746,0.00431862473487854,0.9356723581228235,1.0870465921460961,174.2294671887449,171.0404905081964,1.0,-0.0338968504426499,-0.006799842825127918,0.09556824351667809,-0.020417589590022395,99.48537229700017,1.016995070876543,50,1.6666666666666667
0.9832918808633129,0.5680997280393183,-0.26553359627723694,0.9999624490737915,0.9232476614884721,0.6959201128202176,-0.007718425244092941,0.9999896287918091,0.8824886494727919,0.7052901709808636,-0.3949195444583893,0.9999987483024597,0.9456634515948086,1.0802081589112988,0.1238180547952652,0.9999926686286926,0.9013654360157661,1.0918223455187868,-0.1238575205206871,0.9999960064888,0.9784503368407103,1.3289287706260888,0.28372690081596375,0.7074872851371765,0.9161117952192904,1.3550018376949418,-0.04083985090255737,0.9847558736801147,0.9788753942896149,1.5680997280393183,0.46650034189224243,0.9195266962051392,0.8851117297515856,1.6286382200688099,0.06712432205677032,0.9905487895011902,0.9861978974589503,1.0628441703393594,0.03011564537882805,0.45857852697372437,0.9250720698361553,1.1089744299497546,-0.524793267250061,0.9988347291946411,0.0049180686473846436,0.9235144438052874,1.0860152522150428,172.5922722000788,170.3295417530197,1.0,-0.0895229770125259,-0.002494654750830324,-0.4314306152286091,0.03334291582547519,101.35299056696064,1.0174231303978007,51,1.7
0.9769296274995154,0.5692803420099256,-0.2635055482387543,0.9999634027481079,0.8940501875416765,0.6873741192032418,-0.013799699954688549,0.9999893307685852,0.8819388491119063,0.7046661177125317,-0.41067394614219666,0.9999988079071045,0.9258829075382993,1.0773522601461567,0.12719155848026276,0.9999931454658508,0.892440887943905,1.0871457123701247,-0.12724237143993378,0.9999963045120239,0.9621187602049409,1.3280729894138703,0.28589391708374023,0.6868941187858582,0.9127290026178212,1.354924154904931,-0.03996711224317551,0.984886646270752,0.9642890052869367,1.5692803420099257,0.4720025956630707,0.9158107042312622,0.8850287588113721,1.6274528739973226,0.08677421510219574,0.9905304908752441,0.9375194339296324,1.0761469593191395,0.02508542872965336,0.4175068140029907,0.9270269276528987,1.1091519566477543,-0.5270738005638123,0.9988996982574463,0.009082287549972534,0.9091618977411021,1.0822489862581406,172.29167188282747,169.8635873107407,1.0,-0.10181268822469113,-0.022425685557476586,-0.09165693963518426,-0.14792032072793557,101.65606824382584,1.0020790311112235,52,1.7333333333333334
0.973203763589054,0.5682427203917232,-0.25188666582107544,0.9999656081199646,0.8817734110063405,0.6869341450039173,-0.013496041297912598,0.9999886751174927,0.8804255518854431,0.703974834226462,-0.39735379815101624,0.9999988675117493,0.9227303485236813,1.0748702369280339,0.128686785697937,0.9999935030937195,0.8946511295743298,1.083792182303876,-0.12874743342399597,0.9999966025352478,0.9526052788139067,1.3271260143830137,0.3043495714664459,0.6698372960090637,0.9123160153052123,1.3522087957134354,-0.02923819050192833,0.9853410124778748,0.9506289773350319,1.5682427203917233,0.503402829170227,0.9122613668441772,0.8827474089136461,1.6237204636762186,0.09707134962081909,0.9907965660095215,0.9320185691950927,1.077827499507623,0.041228286921978,0.3787970542907715,0.9269960121281846,1.107426392959951,-0.5126208066940308,0.9989250302314758,0.008970856666564941,0.9086907390490055,1.079331209615955,172.77624642805444,170.0194868030293,1.0,0.012153835000612411,-0.003291841383536641,0.8569866393340151,0.14378741517460028,101.60047269619615,0.9969612913107103,53,1.7666666666666666
0.9738751399243776,0.5683395161162932,-0.24992506206035614,0.9999669194221497,0.8924275030221288,0.6880080017125821,-0.0026445528492331505,0.9999883770942688,0.8804330871449392,0.7048336338712593,-0.3879132866859436,0.999998927116394,0.9199957264712888,1.0742621864217627,0.12826047837734222,0.9999938607215881,0.8925901099969376,1.0816206049760793,-0.12830552458763123,0.9999968409538269,0.9448834826473389,1.3277687248697347,0.29576703906059265,0.6420040726661682,0.91188462786018,1.3513963336090442,-0.035923805087804794,0.9852677583694458,0.9412406221437974,1.5683395161162932,0.4919343888759613,0.9024965763092041,0.8823181277505392,1.6237266676401192,0.09560305625200272,0.9906075596809387,0.9359722580724427,1.0867281172314758,0.03389328718185425,0.34438562393188477,0.9295269750646847,1.1085321725429857,-0.5031068325042725,0.9989166259765625,0.008856594562530518,0.9062929182341132,1.077941395698921,173.52547137506738,169.71288956995713,1.0,-0.019641256246124943,-0.011897052907681057,-0.24927628956707967,-0.06745950384304178,100.94699717954897,0.9921659494191867,54,1.8
0.9723243877162697,0.5666926964038612,-0.23641638457775116,0.9999678134918213,0.8811537356063635,0.6877079737008104,0.008555757813155651,0.9999878406524658,0.8785712194745384,0.7044457841715462,-0.38309645652770996,0.999998927116394,0.9074158529124314,1.0721511989785222,0.1289764940738678,0.9999940991401672,0.8892163421539444,1.0794354564805513,-0.12902812659740448,0.999997079372406,0.9363848707436492,1.3261418696404088,0.30863118171691895,0.6187685132026672,0.9090646666605633,1.3487681876148407,-0.02929002419114113,0.9850435853004456,0.9301993326305418,1.5666926964038612,0.5047303438186646,0.8937667608261108,0.8799532368933266,1.6206520138347544,0.09604811668395996,0.9904366135597229,0.9360067444484493,1.0796896504838107,0.05362697318196297,0.31206294894218445,0.930407355779941,1.106429865003657,-0.4872082769870758,0.9987977743148804,0.008826792240142822,0.8983160975331879,1.0757933277295366,172.0202397456475,169.67368947890813,1.0,-0.047632769906040096,-0.0010771019711121057,-0.21223686619788049,0.08176426870495081,107.90557157679567,0.9932939725496928,55,1.8333333333333333
0.9714529535368449,0.564643233880294,-0.2431693822145462,0.9999680519104004,0.8818773771850066,0.6876546951643845,0.0051256814040243626,0.9999876618385315,0.8774899522573486,0.7043310977423409,-0.39310845732688904,0.999998927116394,0.9033409696741884,1.0703334648386857,0.12962637841701508,0.9999943971633911,0.884390709739467,1.0766951632557114,-0.1296602338552475,0.9999972581863403,0.9322716957022583,1.3245729321347721,0.3062708377838135,0.5998621582984924,0.9063982715794358,1.3463638770035518,-0.05222541093826294,0.9853606224060059,0.9277873631822263,1.564643233880294,0.5017301440238953,0.8889833092689514,0.8788556325209915,1.6185031981763085,0.058869581669569016,0.9906089305877686,0.9382521414771833,1.0766038432298166,0.04897567629814148,0.28397083282470703,0.9295635320418718,1.104978295972832,-0.4998539090156555,0.9986555576324463,0.008805721998214722,0.8938658397068278,1.0735143140471985,172.43793660457456,169.55534732329522,1.0,-0.0252082225650751,-0.006858881105463071,0.1710325236590743,-0.0442290184817655,105.34693525406132,0.9934474899083465,56,1.8666666666666667
0.9723048320096576,0.565879961918303,-0.23491020500659943,0.9999657869338989,0.8802593078839843,0.6878595000451455,0.010966900736093521,0.9999865293502808,0.8791942461109103,0.7051481246053298,-0.3878173232078552,0.9999988675117493,0.8988112727838723,1.0673073471000587,0.13011600077152252,0.9999943971633911,0.8828655939873481,1.0725520328584957,-0.13016286492347717,0.9999973773956299,0.9295813133504119,1.3239200673344287,0.29791349172592163,0.5770841836929321,0.9065738758405284,1.345798215967819,-0.05194312334060669,0.9849540591239929,0.9243302388043989,1.565879961918303,0.48366308212280273,0.880079984664917,0.8804355366527853,1.6192454480029865,0.0494423434138298,0.9903129935264587,0.9328177148301908,1.0769394903228808,0.05424885079264641,0.2585577070713043,0.9325516472697234,1.1062740890507659,-0.4963276982307434,0.9985820651054382,0.009113192558288574,0.8908384333856102,1.0699296899792772,171.91914379173608,169.58092174399184,1.0,-0.03484466759152665,-0.04145776924425377,-0.07302079389983296,-0.2632795807353374,105.4074518233943,0.9767166485098604,57,1.9
0.9740434077777174,0.5666561384919125,-0.23686206340789795,0.9999642968177795,0.8799198273832165,0.6886042130812006,0.01067422516644001,0.9999858140945435,0.8808579103950442,0.7056377243746491,-0.3924786448478699,0.9999988675117493,0.8968978110453005,1.0644382030103787,0.13164904713630676,0.9999944567680359,0.8832942772011809,1.070595147530294,-0.13168977200984955,0.9999974966049194,0.928715709848032,1.3242900840442682,0.3031320869922638,0.5510993003845215,0.9070824616457461,1.3452485102066691,-0.05495012551546097,0.9847999215126038,0.9174302423517905,1.5666561384919127,0.48822107911109924,0.8682290315628052,0.8813659231284754,1.6210887264757559,0.047495484352111816,0.990078330039978,0.9329529605680233,1.080099259178757,0.05638051778078079,0.23574607074260712,0.9365533699215708,1.1072123657374704,-0.49063730239868164,0.9984204173088074,0.008968383073806763,0.8900960441232407,1.0675166752703364,170.35311487548444,169.7235903734583,1.0,-0.014042178263523797,-0.02894260073060691,0.16545888495342537,0.0997306438041805,111.76492534818577,0.9646816599543194,58,1.9333333333333333
0.9825143238373527,0.576035095093964,-0.2229357659816742,0.9999650120735168,0.8769183738794769,0.6952315422578553,0.01896926574409008,0.9999853372573853,0.8894888333454352,0.7115622393306115,-0.38434693217277527,0.9999988675117493,0.8941187472981504,1.0727480292887204,0.13130751252174377,0.9999943971633911,0.8926897770268221,1.0805076469304846,-0.13136409223079681,0.9999975562095642,0.9319405562535145,1.3365541198567454,0.3107583224773407,0.5233491063117981,0.9152746256001341,1.358013753603204,-0.031748928129673004,0.9834398627281189,0.9175771569964328,1.576035095093964,0.4934706687927246,0.84825599193573,0.8896014348088658,1.6362748785106762,0.09317046403884888,0.9885979890823364,0.9334502499483981,1.092219113192921,0.0670398697257042,0.2151205986738205,0.9464953380080555,1.1174100772196955,-0.4296106696128845,0.998266339302063,0.008519172668457031,0.8934042621624863,1.0766278381096026,168.40878888745362,170.07588080558682,1.0,-0.0393195926122183,-0.006411046643355425,-0.1992090619932773,0.18062131802859885,166.95691558913492,0.9600380714657843,59,1.9666666666666666
0.9858975270622856,0.5805802748245964,-0.21508219838142395,0.9999672174453735,0.8793190619079383,0.7004775214829968,0.024465959519147873,0.99998539686203,0.8969474265746304,0.7172303581252784,-0.37453708052635193,0.9999988675117493,0.8918175900754298,1.078103306664256,0.13129451870918274,0.9999942779541016,0.8982264022425401,1.086196787676969,-0.131361722946167,0.9999975562095642,0.9362385171874051,1.3426450838203217,0.3052385747432709,0.4877844750881195,0.9215913582631772,1.3678770575786634,-0.013206513598561287,0.9783708453178406,0.9166112816213678,1.5805802748245965,0.4907211661338806,0.8088042140007019,0.8968285859957548,1.646391354578198,0.11530081182718277,0.9841653108596802,0.9375748979217581,1.1012050169840115,0.06629300117492676,0.19690950214862823,0.9548462802294245,1.1261518654775315,-0.41949334740638733,0.9980669021606445,0.008671283721923828,0.8950219961589849,1.0821500471706125,165.75237466637844,170.17743478743475,1.0,-0.041726782058469566,-0.022672926591836937,-0.016217109736022185,-0.12528965334954564,143.52176879623687,0.9591119203447271,60,2.0
0.987982097048936,0.5883963271375094,-0.16632291674613953,0.999969482421875,0.8780921670915098,0.7033715889907625,0.06103738397359848,0.9999850392341614,0.9047364526585878,0.7205778693146133,-0.33984455466270447,0.9999988675117493,0.8900078924388053,1.0836441717599734,0.13281722366809845,0.999994158744812,0.9026033939280467,1.091550265103438,-0.1329066902399063,0.999997615814209,0.9415811989969006,1.3485049524605102,0.30363744497299194,0.4650493264198303,0.9257754924298025,1.3739022778257648,-0.016680581495165825,0.9772356152534485,0.914756858671653,1.5883963271375094,0.464633047580719,0.7789840698242188,0.9010009528669063,1.6528626421149584,0.09975267201662064,0.9821358323097229,0.9411963840237043,1.1062673115388775,0.08488189429044724,0.18030819296836853,0.9619256509236976,1.1315527391206166,-0.3654627203941345,0.9979498386383057,0.008862823247909546,0.896305643183426,1.0875972184317058,162.60109135827727,170.23321987900874,1.0,-0.023300053319760823,0.0013405372012422715,0.1411522942999888,0.18277787164203674,123.91091478157236,0.9519642735404208,61,2.033333333333333
0.9886711476070026,0.5935061762352325,-0.17543333768844604,0.9999707341194153,0.8827578383089644,0.7055766294763706,0.05231381207704544,0.9999842047691345,0.9094438631949534,0.7227563527861387,-0.34577998518943787,0.9999988079071045,0.8940673092713453,1.0870697423952547,0.13257260620594025,0.9999939203262329,0.9044161227970305,1.09460958313096,-0.13266387581825256,0.9999975562095642,0.9416667101878432,1.349879504369236,0.30130067467689514,0.44493937492370605,0.9261207718451644,1.376995402422911,-0.0063806637190282345,0.9751703143119812,0.9151431643609147,1.5935061762352325,0.462216854095459,0.7560392022132874,0.9031205263857288,1.6527729662699275,0.12032226473093033,0.979675829410553,0.9447088404275753,1.109058497683803,0.0780043676495552,0.164626345038414,0.9662746859366831,1.134745508469511,-0.37467482686042786,0.9977268576622009,0.008823215961456299,0.8992417160341879,1.0908396627631072,163.5207299316485,170.83727475687627,1.0,0.002258782147803555,0.00034700445861600453,0.19156168338468404,-0.007456009312658911,127.7740308015755,0.9491284328352202,62,2.066666666666667
0.9863637700209763,0.6008020181464321,-0.14401470124721527,0.9999728202819824,0.8810922213148521,0.7080860070425508,0.07886382937431335,0.9999837875366211,0.9141848735092079,0.723795466157763,-0.3188254237174988,0.9999988079071045,0.8954103472219189,1.0910403556502715,0.13249872624874115,0.9999933838844299,0.9079747935490351,1.0966877884963906,-0.13260261714458466,0.9999974370002747,0.9413051281939308,1.3542410042986053,0.2736302316188812,0.42265790700912476,0.9293977731099164,1.3807565137772266,-0.01865532621741295,0.9725134968757629,0.916212394481831,1.600802018146432,0.41669178009033203,0.7206940650939941,0.9056501986267171,1.6576987249751443,0.09215925633907318,0.9747301340103149,0.9473741824570904,1.112485577909856,0.08863434195518494,0.15169793367385864,0.9708958945626209,1.1384981229083784,-0.34662047028541565,0.9975314736366272,0.008040577173233032,0.901692570385477,1.093864072073331,164.29764442813362,170.78613677180923,1.0,-0.004913509751472292,-0.00555901228284191,-0.05611391798548161,-0.04616645669156172,116.34404456076456,0.934284327904826,63,2.1
0.9761942031526323,0.6014938757563993,-0.1261381208896637,0.9999746680259705,0.8637610308969469,0.7022160467287509,0.08553384244441986,0.9999825954437256,0.9110421672805056,0.7182899541441202,-0.30934062600135803,0.9999987483024597,0.8872553862222723,1.0863726129966889,0.13224124908447266,0.999992847442627,0.9051130674183933,1.092091727528787,-0.13235047459602356,0.9999973177909851,0.9310006873512072,1.35055700029173,0.26733240485191345,0.4144837558269501,0.9256438004121325,1.3749631858960356,-0.02168218046426773,0.9717022180557251,0.9096303029122449,1.6014938757563995,0.4073491096496582,0.7030438780784607,0.9012927490013232,1.6501213068206853,0.09314626455307007,0.9719850420951843,0.9362031289785321,1.107140521579906,0.10014759004116058,0.1399645358324051,0.9678889992732258,1.1322485521331773,-0.3229852020740509,0.9975217580795288,0.008262872695922852,0.8961842268203328,1.0892321702627379,165.73021836045734,170.79135840945887,1.0,-0.0122261548553159,0.0007772095408350046,-0.05583079526949514,0.048052557828607186,111.25797552350967,0.9209918882198357,64,2.1333333333333333
0.9795117329845512,0.6129850135288532,-0.12122084200382233,0.9999752640724182,0.8699911893738197,0.7072372884007745,0.09380106627941132,0.9999808669090271,0.9172903926811788,0.7206235205188578,-0.2985338568687439,0.9999986290931702,0.8961621701648799,1.095653439985578,0.1320716291666031,0.999991774559021,0.9116308555461292,1.09987030421997,-0.1321728378534317,0.9999970197677612,0.935371091291678,1.3610596009788132,0.2700689435005188,0.392101913690567,0.9322584743021847,1.3846612439165698,-0.022643331438302994,0.9682979583740234,0.9129669275760923,1.612985013528853,0.4174690842628479,0.6693174839019775,0.9074731296918103,1.6614265274807236,0.09498286992311478,0.9657557010650635,0.9435102370695946,1.113628705314328,0.10664647817611694,0.12926240265369415,0.9766746086066718,1.138904787558359,-0.3186047673225403,0.9973427057266235,0.006833583116531372,0.9038965128555045,1.097761872102774,166.51433347148438,170.7398629658245,1.0,0.01145750472432399,0.007302011409191246,0.1865577828157727,0.051169298705885914,109.10336767771976,0.9094609143865361,65,2.1666666666666665
0.9812692320702379,0.6145483441907208,-0.13370180130004883,0.9999760389328003,0.872203621715289,0.7078824416803563,0.08448710292577744,0.9999797940254211,0.9181370103038999,0.7205710000229597,-0.311634361743927,0.9999985694885254,0.8977332775522602,1.0979021514213103,0.1320817768573761,0.9999910593032837,0.9124488948564744,1.1007644659374116,-0.1321941465139389,0.9999968409538269,0.935079781014303,1.3627594268290253,0.27375921607017517,0.3765016496181488,0.9328116155496927,1.3857400839181495,-0.02327626571059227,0.9665707349777222,0.9134625119698834,1.6145483441907207,0.4250766336917877,0.6460046768188477,0.9080488618365095,1.662589121627452,0.09755673259496689,0.9619866013526917,0.9438905382318556,1.1134043589742242,0.09848352521657944,0.1197923943400383,0.9780702330916251,1.1390876055542012,-0.33819276094436646,0.9972493052482605,0.006472736597061157,0.9050910862043673,1.0993333086793609,167.066777304776,170.80170148275718,1.0,0.004227634051274177,0.006079282861393938,-0.056686513857171265,-0.009617355349013318,104.75217128045615,0.910001137003342,66,2.2
0.9783650634724373,0.61287956009797,-0.11011630296707153,0.9999775886535645,0.8673427955186863,0.7074318825083614,0.10264512151479721,0.9999794363975525,0.9171819586005802,0.7180726534049773,-0.2916400730609894,0.9999985098838806,0.8980847522866332,1.0986484913021415,0.1319713443517685,0.999990701675415,0.9117228708259077,1.099429053015922,-0.1320842206478119,0.9999967217445374,0.9340963469023098,1.3616045229856866,0.2672162353992462,0.36956557631492615,0.9309904420002201,1.3844062165956619,-0.023706428706645966,0.9657493233680725,0.9128505823133961,1.61287956009797,0.40790218114852905,0.6290533542633057,0.9057703144337674,1.6609156804833016,0.08435264229774475,0.9600042700767517,0.9425257597330192,1.11186422871964,0.1069769486784935,0.11227963864803314,0.9779025862016136,1.13678804165914,-0.31401869654655457,0.9969271421432495,0.005433470010757446,0.9049038115562704,1.0990387721590318,167.3689357765697,170.92059945565455,1.0,0.0054909934717720455,0.006147295657860724,0.009867297844401638,0.0005761312706824294,97.7687753360719,0.9141056085606315,67,2.2333333333333334
0.9710738346904381,0.6099643656483804,-0.10002829134464264,0.99997878074646,0.8563096576038987,0.704640138387186,0.10759785026311874,0.9999777674674988,0.9135536379676591,0.7142787640364208,-0.28931406140327454,0.9999984502792358,0.8914062824690092,1.096901081469585,0.13195423781871796,0.9999899864196777,0.9088466833547384,1.0953535258419527,-0.13207969069480896,0.999996542930603,0.927381661314684,1.3580685315339744,0.26750287413597107,0.36443936824798584,0.9266531639183081,1.3791665322495097,-0.019697943702340126,0.96513432264328,0.908585231085617,1.6099643656483804,0.40734511613845825,0.6167428493499756,0.9017909015424115,1.6541972302218595,0.09726681560277939,0.9580108523368835,0.9302168315856196,1.1067491944416108,0.1284213364124298,0.10390003770589828,0.9751695908574245,1.1302929189622937,-0.30483272671699524,0.996817946434021,0.004941880702972412,0.9001264829118738,1.0961273036557688,167.8894662230356,171.24456582004566,1.0,-0.00845048736118449,0.012133952300809728,-0.10784371462619816,0.046577991115646256,90.04199093876683,0.9166630394624787,68,2.2666666666666666
0.9764939301620075,0.6131649704597223,-0.09209230542182922,0.9999798536300659,0.8577512209679413,0.7076046522027989,0.10723892599344254,0.9999762773513794,0.9187896509503367,0.7177975606070394,-0.2890860438346863,0.9999983906745911,0.8953904422959839,1.1049770245532275,0.13189607858657837,0.9999898076057434,0.914914705425865,1.1023413881606812,-0.13202206790447235,0.999996542930603,0.9304148382716197,1.3649131124459666,0.2858312129974365,0.3673838973045349,0.9309518332568021,1.386518830337703,0.003609834937378764,0.9655394554138184,0.9145744215363867,1.6131649704597224,0.4448131024837494,0.6135982275009155,0.9069480521947901,1.6615795170260321,0.13232257962226868,0.9583630561828613,0.9326916011377092,1.1013056297078767,0.14361968636512756,0.0956374928355217,0.9831691882028293,1.1364567625796453,-0.3037594258785248,0.9966931939125061,0.005196422338485718,0.9051525738609244,1.1036592063569544,168.67508064898908,171.7826162925369,1.0,-0.0008538502331661005,0.00995786606948206,0.05956916522817613,-0.017495647967387576,87.72288171634521,0.9286378366430489,69,2.3
0.9836071509530051,0.6180083215018048,-0.11042020469903946,0.9999813437461853,0.862263081456034,0.7131130526428517,0.09734384715557098,0.9999756813049316,0.926853201848667,0.7241830702091038,-0.2992731034755707,0.9999983906745911,0.903105560979568,1.114652405458441,0.13189156353473663,0.9999901652336121,0.9234486348118439,1.1120938939405984,-0.13202252984046936,0.9999967217445374,0.937678844000501,1.3724514840499045,0.2903594970703125,0.39087292551994324,0.9340145101440565,1.3971444874355419,0.00194313726387918,0.9678357243537903,0.9190514695666512,1.6180083215018048,0.450551837682724,0.6290268898010254,0.9148586974648881,1.6749561669291657,0.11852166801691055,0.9613910913467407,0.9393306189420667,1.1091603274913613,0.12577834725379944,0.08881441503763199,0.9925930189303669,1.1445747124755772,-0.32155686616897583,0.9964885711669922,0.005594491958618164,0.913277097895706,1.1133731496995196,168.02365438340155,173.93276376729693,1.0,0.0013951833259584464,0.00023080254051396595,0.01724936419047306,-0.07502365340181634,88.63950338154827,0.9384922523500288,70,2.3333333333333335
0.9911029701706316,0.633097158565198,-0.11484356224536896,0.9999827146530151,0.8655546348776264,0.7208215588966421,0.08437792956829071,0.9999755620956421,0.9379061397684545,0.7341066431386726,-0.30286747217178345,0.9999983906745911,0.909633293781964,1.1278507857479056,0.1305893361568451,0.9999905824661255,0.9367517528176622,1.1262675378705853,-0.13074663281440735,0.9999969005584717,0.948429488498784,1.381261837820296,0.2896621823310852,0.4097329080104828,0.9430640439873269,1.41127852336782,0.018354395404458046,0.9700475335121155,0.9256854824998613,1.633097158565198,0.44653457403182983,0.64061039686203,0.9247729375571571,1.6934625702663184,0.11702451854944229,0.9640529751777649,0.9245383734782715,0.8741545223679995,0.2527689039707184,0.08889497071504593,1.0064350018284305,1.1569551053181977,-0.32479697465896606,0.9962006211280823,0.006636917591094971,0.923192523299813,1.1270591618092454,166.13528043108266,175.02253589237705,1.0,-0.005310025626815386,0.005977177330223858,-0.05236402206569505,0.04474710126005554,92.83939244094526,0.929846409382228,71,2.3666666666666667
0.9774975416316005,0.6203035240315257,-0.08192674815654755,0.9999841451644897,0.8532281413128278,0.7137746244402221,0.09930624067783356,0.999975323677063,0.9286437603278643,0.7284796485844476,-0.28564420342445374,0.9999983906745911,0.8963387204009373,1.117352891282231,0.12906774878501892,0.9999909400939941,0.9282519098722688,1.1164964198312006,-0.12924081087112427,0.9999970197677612,0.9324896124779739,1.3712279225286723,0.2761591076850891,0.4157736003398895,0.932220266973374,1.4009063712497773,0.033663310110569,0.9703266024589539,0.9180450737888549,1.6203035240315258,0.4205140173435211,0.6424544453620911,0.9156661504998722,1.6771832697693694,0.15253885090351105,0.96485435962677,0.9179637976015019,0.8745422307761734,0.3484717011451721,0.08329182118177414,0.9991573502261794,1.1447482824498723,-0.31829723715782166,0.9959278106689453,0.0074194371700286865,0.9122953151366031,1.1169246555567158,168.57675652646068,175.7716254372317,1.0,-0.013282914435325255,0.007233345965307173,-0.05938195586150345,0.009730945167385702,94.55995479345472,0.9417923430975017,72,2.4
0.9668815310711354,0.617027400502445,-0.04748563468456268,0.9999850988388062,0.8463202961855494,0.7109725933836547,0.11820832639932632,0.9999744296073914,0.9243320769660099,0.7250512009757785,-0.26436764001846313,0.9999983906745911,0.8851927095501122,1.112050862007036,0.12753596901893616,0.9999906420707703,0.9256383940712097,1.1109704652760444,-0.12772753834724426,0.9999970197677612,0.926917492562499,1.3648092598312398,0.250291109085083,0.42862483859062195,0.9283441476864355,1.3942662667078494,-0.012827184982597828,0.9714273810386658,0.9125215500289293,1.617027400502445,0.3720882534980774,0.6474674344062805,0.9110208814386572,1.6695225243730047,0.07854223996400833,0.9657766222953796,0.9133456920341405,1.0486598271717955,0.17317578196525574,0.07809597998857498,0.9982543638845324,1.136719979485513,-0.29186999797821045,0.9961563348770142,0.0071371495723724365,0.905415551810661,1.1115106636415402,167.35953257488762,175.85162235527648,1.0,-0.0197192090585269,-0.0009919082841789457,-0.05000393916429871,-0.06302113975999306,94.00566610521503,0.9369779097808552,73,2.433333333333333
0.9595390727458893,0.6128996653309376,-0.011741362512111664,0.9999861121177673,0.8402537030579584,0.7063554768618043,0.14266975224018097,0.9999743103981018,0.9183895005472894,0.7191090737789736,-0.23811879754066467,0.9999984502792358,0.8780936098105742,1.1030001314569005,0.12642978131771088,0.9999905228614807,0.9209204692760229,1.1000385844398595,-0.12663066387176514,0.9999970197677612,0.9215548612393869,1.3565577750741482,0.2269793450832367,0.45097944140434265,0.9227967230732206,1.3846471538529865,-0.04137444496154785,0.9730708003044128,0.9057472127603946,1.6128996653309375,0.323607861995697,0.6597175002098083,0.9048743179176807,1.6587622973667215,0.030393943190574646,0.9673343896865845,0.9080765869887569,1.0745855851873127,0.1640564501285553,0.07383622974157333,0.9953636184881312,1.1248549141550233,-0.26792797446250916,0.9963359236717224,0.0065084099769592285,0.8995070395432985,1.10151935794838,166.74494012694,175.8814569175143,1.0,0.000547866335547221,-0.020794194647894653,0.15788686728077636,-0.1553148468032988,91.49372699832678,0.9213028421226223,74,2.466666666666667
0.9559915929759585,0.6127366227364311,-0.00354505586437881,0.9999868869781494,0.8364656069281801,0.7072166051338159,0.13154804706573486,0.9999750852584839,0.9190646998889559,0.7190586618368479,-0.23772835731506348,0.9999984502792358,0.8748199679434324,1.1021757542659947,0.12358596175909042,0.9999905228614807,0.9220982663199089,1.0978803283766025,-0.12379270792007446,0.9999970197677612,0.9222898022088293,1.356733490891067,0.22434577345848083,0.4742400646209717,0.9288148109564134,1.3830404780735788,-0.04637930169701576,0.9743655323982239,0.9058283436677067,1.6127366227364313,0.31890174746513367,0.6725382208824158,0.9049457019112946,1.658282922800292,0.025914588943123817,0.9684571027755737,0.9022244908065109,1.0820747634648562,0.15020005404949188,0.0721421167254448,0.9991201028127279,1.1224702663890487,-0.27095890045166016,0.9964499473571777,0.006043672561645508,0.8984591171316706,1.1000280413212986,165.75767637294115,173.69442043727838,1.0,-0.007365795127602406,-0.010579725467223402,-0.059326758537512764,0.07656439567000867,90.35528144736254,0.9162462329321713,75,2.5
0.9531300434047807,0.61272374503664,0.030783673748373985,0.9999873042106628,0.8335861185994767,0.7072935250705343,0.14615288376808167,0.9999754428863525,0.9218625762699313,0.7190962055112385,-0.2168797254562378,0.9999984502792358,0.8717291580927873,1.1011404449476205,0.12274296581745148,0.9999905824661255,0.9230937692884911,1.0970192596267911,-0.12294509261846542,0.999997079372406,0.9178697545889272,1.3569744351372046,0.22179515659809113,0.49235087633132935,0.9386613938293998,1.381546669731509,-0.06390203535556793,0.9756978154182434,0.9033654224912836,1.61272374503664,0.3074381351470947,0.6799309849739075,0.9065632422482932,1.6572909233416198,-0.018047146499156952,0.969322144985199,0.8980387402399396,1.0821643511279326,0.16680800914764404,0.06947237253189087,1.0030636160971742,1.1216366959759752,-0.2514565587043762,0.9964994192123413,0.006023049354553223,0.8974114636906392,1.0990798522872058,166.53045690455528,170.22858038470858,1.0,-0.008743972132405064,-0.008108780544854534,-0.010694340881864578,0.019190137464024218,90.94445432807453,0.9133455098607774,76,2.533333333333333
0.9508561568821695,0.6127211799456896,0.033642709255218506,0.9999874830245972,0.832681740946758,0.7083918853325125,0.14505621790885925,0.9999755620956421,0.922878299263264,0.7192645374357992,-0.21510644257068634,0.9999984502792358,0.871109064135686,1.1009480663383588,0.12189912796020508,0.999990701675415,0.9239360027476459,1.0969536994797346,-0.12209203094244003,0.9999971389770508,0.9157635669396984,1.3577202482927972,0.22783835232257843,0.5108619928359985,0.9418824411759037,1.3809531597635762,-0.06399856507778168,0.9770906567573547,0.9019778494413879,1.6127211799456895,0.3256213366985321,0.6873697638511658,0.9074066697001363,1.6569365500572135,-0.013590541668236256,0.9703347682952881,0.9007615021165167,1.0867344894396123,0.16741742193698883,0.06674707680940628,1.0046240357100509,1.121396299439665,-0.24150307476520538,0.9965056777000427,0.005547434091567993,0.897522533441666,1.0989508829090466,167.0400441911398,169.2636959669462,1.0,-0.00040430979989182606,-0.0025389303979836565,0.06433062599697756,0.04296799064065574,91.26683270558917,0.9127085695119024,77,2.566666666666667
0.9534540534116632,0.6147392066386997,-0.007286837790161371,0.999988317489624,0.8342720627936552,0.7107388763132308,0.1409214437007904,0.9999755024909973,0.9259894323922957,0.721692896973077,-0.23300907015800476,0.9999984502792358,0.8724940181145621,1.1026172912750096,0.12214472144842148,0.9999909400939941,0.9264926406667147,1.0984342993871667,-0.12232105433940887,0.9999972581863403,0.916251732337179,1.3628739906591818,0.2245405614376068,0.5302541851997375,0.9497819313840076,1.3834249370463287,-0.05353652313351631,0.9782701730728149,0.9035591165618453,1.6147392066386996,0.31737467646598816,0.6985606551170349,0.9106163728204836,1.6585814907317036,0.014203645288944244,0.9716150164604187,0.9021924885111304,1.0860427663869037,0.17394790053367615,0.06341846287250519,1.0093942738594648,1.122665731212388,-0.26203757524490356,0.9964638948440552,0.0055818259716033936,0.8994933293906384,1.100525795331088,167.5710084064309,167.22718220595493,1.0,0.006448336965418275,0.0013466498272393195,0.05354491320548331,0.03038400916289099,91.14117787177935,0.9115688094776772,78,2.6
0.9484213339352534,0.6145163714275856,0.03422709181904793,0.9999881386756897,0.8300314663089452,0.7114386260783834,0.15446729958057404,0.9999743103981018,0.9273469182489973,0.7217042681554053,-0.21348564326763153,0.9999984502792358,0.8711851997827006,1.1024102338892323,0.1220024973154068,0.9999911189079285,0.9274436387005777,1.0980161781621125,-0.12219871580600739,0.9999973177909851,0.9164973863841697,1.3628697554446187,0.213692307472229,0.5526301860809326,0.9587511249453974,1.3824980424926743,-0.05055654048919678,0.9793045520782471,0.9036755525901374,1.6145163714275856,0.28917381167411804,0.7092462182044983,0.9129979071191281,1.6541081339326804,-0.0019995514303445816,0.972583532333374,0.8994725986984258,1.081936022988358,0.1878933161497116,0.05956010892987251,1.012490387893453,1.1218375950173178,-0.252267062664032,0.9964165687561035,0.0052318274974823,0.8993144192416391,1.1002132060256724,167.21421868910684,164.15800840516545,1.0,-0.00032818356945685777,-0.0010817745601242868,-0.0491926086990317,-0.017629634762142757,91.5428256648741,0.9138784268993381,79,2.6333333333333333
0.9422501561295136,0.612732108503894,0.05998631566762924,0.9999851584434509,0.8284501527070168,0.7118550907858152,0.16023924946784973,0.9999731183052063,0.9260775155803909,0.720382714569084,-0.20490868389606476,0.9999983906745911,0.8690053377516638,1.1010476986833841,0.12204486131668091,0.9999911785125732,0.9273179662449539,1.096245456796147,-0.12224309146404266,0.9999973177909851,0.9152430355256918,1.3611046558045807,0.2176658809185028,0.5691547989845276,0.9664819589156712,1.378849542311142,-0.054902445524930954,0.9803190231323242,0.9017123755906362,1.6127321085038941,0.28782495856285095,0.7205185294151306,0.9196168812725941,1.6434941636209268,-0.017021065577864647,0.9735849499702454,0.898899328542344,1.0840395250485588,0.1827608048915863,0.05554407089948654,1.0135267468414764,1.1201024786644413,-0.24731068313121796,0.9962776303291321,0.004351437091827393,0.8981616519983089,1.0986465777397656,166.84028133412585,162.06784018567842,1.0,-0.00031200604269439347,-0.00158086048050038,0.00012096921388807678,-0.0038382589338416258,91.24106690500005,0.9212531335209443,80,2.6666666666666665
0.9364024714140542,0.6100416287251812,0.03918047249317169,0.9999842643737793,0.8252528679575825,0.7084140480402304,0.155284583568573,0.999970555305481,0.9219332588867982,0.7156756092843305,-0.20835411548614502,0.9999983310699463,0.8644540165479736,1.0959062276065756,0.12155622243881226,0.9999914169311523,0.9239383372400124,1.0908025186826802,-0.12177733331918716,0.9999973773956299,0.9098267797934533,1.3553821390425707,0.20725736021995544,0.5845389366149902,0.967159063695055,1.3710856977629635,-0.05100153759121895,0.9810399413108826,0.8959460988786612,1.6100416287251813,0.2681241035461426,0.733257532119751,0.9265367159400996,1.6350263077120089,-0.011705305427312851,0.9748085141181946,0.9142160508854202,0.9717319892170774,0.2362535446882248,0.05243328586220741,1.0126680848029856,1.114894630160803,-0.2545231878757477,0.99588543176651,0.003721266984939575,0.894196176893993,1.093354373144628,166.9614413060756,162.48424556049628,1.0,-0.0010482338787250987,-0.004711407075769164,-0.0057278314816634705,-0.024363980918374783,90.8728238107401,0.9163218960399111,81,2.7
0.9315516414577314,0.6072830783075959,0.07662887871265411,0.9999822974205017,0.8230000505120126,0.7066077889523443,0.1617557406425476,0.9999675154685974,0.9199438533752841,0.7132952082657834,-0.16683797538280487,0.9999982714653015,0.8615417020158932,1.0928519238900536,0.11381609737873077,0.9999918341636658,0.9245944961159974,1.087129162231884,-0.11402928829193115,0.9999974966049194,0.9074702279240032,1.351777544400552,0.20838193595409393,0.6144272089004517,0.97050875571515,1.3665322714637342,-0.040090326219797134,0.9824891686439514,0.8937611749128929,1.607283078307596,0.28346821665763855,0.7552467584609985,0.9316926807397812,1.630864243137804,0.0018858893308788538,0.976834774017334,0.9359838240933949,0.6331532318148201,0.35817092657089233,0.056503117084503174,1.0157549345045935,1.111000292691306,-0.2303096055984497,0.995480477809906,0.0034366250038146973,0.8930680990659453,1.0899905430609689,166.87019354534164,162.31405409331055,1.0,0.01044273905346204,-0.0024082764460427205,0.08785698615673461,0.017513140508911045,90.51239974466407,0.9146074668538401,82,2.7333333333333334
0.9234194432663501,0.6053546370092134,0.09634865820407867,0.9999811053276062,0.8181302437940412,0.712629479352793,0.17368195950984955,0.9999667406082153,0.9214864745733927,0.7117864609649319,-0.16171367466449738,0.9999982714653015,0.8592988765871208,1.0909914015481694,0.11365886777639389,0.9999918937683105,0.9287597945753353,1.083568625800727,-0.11389042437076569,0.9999975562095642,0.9047241618250318,1.3495472943792541,0.19963720440864563,0.6370919942855835,0.9748943868253892,1.3636292439397344,-0.04142328351736069,0.9834097623825073,0.8922649242588728,1.6053546370092133,0.23689547181129456,0.7712343335151672,0.9361579118612815,1.628170196868873,-0.015288013033568859,0.9780575633049011,0.8931620639178579,1.0116963881200163,0.30746644735336304,0.05209184065461159,1.018963803983291,1.1087738568444336,-0.19977238774299622,0.9954749345779419,0.00043404102325439453,0.894029335581228,1.0872800136744483,167.24706657500943,162.3150720228873,1.0,0.020165216691751538,-0.004984511617998302,0.07424101853498548,-0.019667020485155874,90.11015511893076,0.9112079836169723,83,2.7666666666666666
0.9161084878690698,0.6008863701068453,0.09262523800134659,0.9999727606773376,0.8080768758704507,0.7107730484628978,0.16326650977134705,0.9999626874923706,0.9198593988468482,0.7056857591450855,-0.16745653748512268,0.9999980926513672,0.8488135564405906,1.0828285204549224,0.1107415184378624,0.9999915361404419,0.924369359856511,1.0751572676886771,-0.11096438020467758,0.9999974370002747,0.8956802437414413,1.340199320703061,0.21654148399829865,0.6582368612289429,0.9724345260477472,1.3519279531948247,-0.017569836229085922,0.9838778972625732,0.8832615970938767,1.6008863701068454,0.248972088098526,0.7859916687011719,0.9430772781968335,1.6158670403487128,0.04352157935500145,0.978709876537323,0.8774022776210558,1.0566880457718197,0.28445881605148315,0.04803458973765373,1.0149954308243578,1.0988982574873916,-0.17125506699085236,0.9951026439666748,0.0026397705078125,0.8865914581485509,1.0789928940717997,166.95223684973985,163.80126043369563,1.0,-0.0037408482852947208,0.001187150297690487,-0.17961780448618866,0.04638367906239075,90.45104654311523,0.9037157829850786,84,2.8
0.8943507846354304,0.5956102859463888,0.13997934758663177,0.9999653100967407,0.7975744416731891,0.7167273845409592,0.16220411658287048,0.9999624490737915,0.9217256845165427,0.7004248349607168,-0.13438452780246735,0.9999980926513672,0.8433225551024692,1.077352251904826,0.1026855930685997,0.9999913573265076,0.9236017584413628,1.0679134653343343,-0.10289542376995087,0.9999973773956299,0.886593367851055,1.332898324848424,0.22018083930015564,0.6808143258094788,0.9705968797135744,1.3428905891668512,0.010418995283544064,0.9843486547470093,0.8753108534578953,1.5956102859463888,0.2763684391975403,0.8020811676979065,0.9568126481816585,1.6055356902441418,0.08506745100021362,0.9794084429740906,0.8660724187582292,1.0590979830180112,0.26317477226257324,0.04548408091068268,1.0129175613663177,1.0906205431406868,-0.1260044425725937,0.9951087832450867,0.00851660966873169,0.8834621567719161,1.0726328586195801,167.93031162394882,167.29727369507467,1.0,0.02119229141486095,0.006717328014948832,0.18619171969679565,0.04139880145036879,90.52406864457295,0.9020682780371795,85,2.8333333333333335
0.8853203185772361,0.592429029116747,0.1731470674276352,0.9999606609344482,0.7921041304882821,0.7211468434623708,0.17040486633777618,0.9999632835388184,0.9268413757197325,0.6985703936978132,-0.11163965612649918,0.999998152256012,0.8413186042010863,1.0762586778346115,0.09830941259860992,0.9999914169311523,0.9242564428196732,1.0649158973800013,-0.09852555394172668,0.9999973773956299,0.8836403596549084,1.3297072555953025,0.2082032859325409,0.7013970017433167,0.9707830163895407,1.3389319827975301,0.014457779936492443,0.9844490885734558,0.8712207466365267,1.5924290291167469,0.2422494888305664,0.8163729310035706,0.9620402441495548,1.6008474260976793,0.07189512252807617,0.9798159003257751,0.8623647104293757,1.0604564486677575,0.2762388586997986,0.04357030242681503,1.0145695804272583,1.0817247024559564,-0.10179382562637329,0.9949879050254822,0.011827290058135986,0.8827875235103797,1.0705872876073064,167.8134894497197,168.45153742564065,1.0,0.014443816654130694,0.007697009854395668,-0.053664015320401416,0.008010570774218677,90.10268882114433,0.9070923232124943,86,2.8666666666666667
0.8817598402292758,0.5895022411682751,0.17828108370304108,0.9999538660049438,0.7909872866546074,0.7227497531975013,0.16145126521587372,0.9999640583992004,0.9311780336832529,0.6973886492712903,-0.09714341163635254,0.9999982118606567,0.8402313768101334,1.0762772898828437,0.08890961855649948,0.9999914169311523,0.9236814840914956,1.0633711588743704,-0.0891152024269104,0.9999973773956299,0.880367468122941,1.3283298036624724,0.20916466414928436,0.7149836421012878,0.970457464082677,1.3366309989616834,0.016684386879205704,0.9837378263473511,0.8688153224531076,1.589502241168275,0.2588469684123993,0.8263036608695984,0.9707652396461489,1.5989540173654695,0.07687859237194061,0.9791021943092346,0.8565360996034408,1.0579707766534632,0.2621605098247528,0.041903991252183914,1.0177457597811728,1.069154273069042,-0.0855824202299118,0.9948364496231079,0.013310164213180542,0.8819564304508145,1.0698242243786071,168.41970372782254,170.35361112983867,1.0,0.005858209092203953,0.008980629098971602,-0.06559228807664207,0.009943104970208479,89.13837317249421,0.9135612438369911,87,2.9
0.8766129966368623,0.5865496458249051,0.19286128878593445,0.9999467730522156,0.7889284347896287,0.721958821915615,0.16035908460617065,0.999964714050293,0.9303832876411738,0.6953173094309727,-0.08281459659337997,0.9999982714653015,0.8379822034388629,1.0736419929005332,0.08579393476247787,0.9999914169311523,0.9212482525055959,1.0601538893363185,-0.08600328862667084,0.9999973773956299,0.8771349096816993,1.3250609634518205,0.20065896213054657,0.7279472947120667,0.9682505445298429,1.3326089164419423,0.016402220353484154,0.9827225208282471,0.8652174705622134,1.586549645824905,0.2432769536972046,0.8352134823799133,0.9680576082399195,1.59406963211103,0.07670055329799652,0.9778619408607483,0.8519499303153524,1.0550814991647919,0.2681735157966614,0.03997970372438431,1.0157812600664566,1.0610098742845704,-0.0678427666425705,0.9944749474525452,0.014024734497070312,0.8796152279722294,1.0668979411184258,168.53912855558022,170.16974082251738,1.0,0.002667208483154966,0.0025505012792471416,-0.02515993482672948,-0.050767313317658824,88.739241958529,0.9154529661818052,88,2.933333333333333
0.8783815154053765,0.5866876430633511,0.2147666960954666,0.9999431371688843,0.7871594421302163,0.7256070121226904,0.18288686871528625,0.9999653100967407,0.9324235936675832,0.6947305239637553,-0.07180452346801758,0.9999983310699463,0.838305149272813,1.0733151335575013,0.08792700618505478,0.9999914765357971,0.9218312154238797,1.0593577444960738,-0.08813558518886566,0.9999974370002747,0.8772669036985903,1.3252108114278105,0.18789324164390564,0.7453230023384094,0.9700810044029597,1.333170495617763,0.007142217364162207,0.9830136895179749,0.865421365803038,1.5866876430633512,0.21455249190330505,0.8451980948448181,0.9820883042433606,1.5980076952710704,0.05144127085804939,0.9779129028320312,0.8516675238860734,1.0539854587505342,0.27130886912345886,0.03823741897940636,1.0187723123340624,1.0548356573378095,-0.05526169389486313,0.9941768050193787,0.016252189874649048,0.8800681823483464,1.0663364390267875,168.61363372564728,172.602170347249,1.0,0.0027878230719800773,-0.005516239096797992,0.0009635044394750943,-0.06461227068236017,88.88124737559825,0.9087340032117953,89,2.966666666666667
0.879931116435565,0.586889283168866,0.20084817707538605,0.999936044216156,0.7868704994200036,0.7273584169264915,0.17381513118743896,0.9999653697013855,0.9349482410288057,0.6952356573105546,-0.07721737772226334,0.9999983310699463,0.8387940266772285,1.0728485441858235,0.0827665627002716,0.9999913573265076,0.9234188938003319,1.0585421930242052,-0.08296798169612885,0.9999974370002747,0.8779555939941399,1.3257508769620265,0.18258115649223328,0.7595915794372559,0.9727316159156132,1.3338114616894792,0.008795480243861675,0.9825441241264343,0.8659522346713336,1.586889283168866,0.2161804437637329,0.853338360786438,0.9911341385119079,1.6012512605107707,0.05317939445376396,0.9772406816482544,0.8486776999854647,1.05443333292926,0.26075443625450134,0.036682695150375366,1.0297870831477711,1.0557817296660537,-0.048367783427238464,0.9938158988952637,0.016900330781936646,0.8811064602387801,1.0656953686050143,168.56596222631165,173.77987840398026,1.0,0.004642777279726083,-0.008379096626391245,0.01366942202264917,-0.021092649232904204,88.95150976511324,0.9025556754406271,90,3.0
0.8757023747327848,0.5853504330710689,0.1908794343471527,0.9999324083328247,0.7863916011543279,0.7281013677831936,0.1504325419664383,0.9999656081199646,0.9361036728621607,0.6950909933997249,-0.07915105670690536,0.9999983310699463,0.8394690326891869,1.0719912134428529,0.07783125340938568,0.9999911189079285,0.9261208834166468,1.0574000771642276,-0.07802996039390564,0.9999973773956299,0.8773610603861302,1.3252404279201841,0.18761256337165833,0.7723605632781982,0.9766614150393499,1.3329955629720147,0.021790768951177597,0.9816426038742065,0.8653277082796016,1.5853504330710688,0.23180821537971497,0.8599958419799805,0.9994448409058019,1.6006757444715147,0.07978670299053192,0.9758931994438171,0.8463523489330832,1.0572461335679162,0.24102051556110382,0.03594775125384331,1.03467404056493,1.0563734092094152,-0.03896184638142586,0.9937326312065125,0.017382323741912842,0.8827949580529169,1.0646956453035403,168.84157379616656,174.4731548747607,1.0,0.018933112490260657,-0.0006173722132063319,0.11050744299280012,0.059948826841312836,89.21578316575042,0.9034300611335546,91,3.033333333333333
0.8754797919905362,0.5852470612041696,0.20249326527118683,0.9999213218688965,0.7872174858670391,0.7282415928224992,0.12997272610664368,0.9999657273292542,0.947092304695013,0.6967800679885909,-0.05399633198976517,0.9999983310699463,0.8432572016853507,1.072190643899776,0.06552265584468842,0.9999905228614807,0.9313982876649699,1.0570775889885229,-0.06571448594331741,0.9999971985816956,0.8774279202999918,1.3257392489593949,0.1600586473941803,0.7856956720352173,0.9799096720256237,1.3339057838088275,0.017094861716032028,0.9806718826293945,0.8652573272651167,1.5852470612041696,0.1844748556613922,0.865311324596405,1.0076839756311842,1.601643656826169,0.04382965713739395,0.9731663465499878,0.8377673616149762,1.0545200194699593,0.22581975162029266,0.03596746549010277,1.04175742371468,1.0547627994685338,0.0012361122062429786,0.9935472011566162,0.01656043529510498,0.8873277446751603,1.0646341164441495,169.63936757573236,175.98291423618676,1.0,0.03361820249023985,-0.0037419578049417666,0.11758450035505127,-0.025029175675808455,89.52433314154818,0.9029202678600606,92,3.066666666666667
0.8766442317107753,0.5844104696963951,0.1999959498643875,0.9999265074729919,0.7878945196710093,0.7274863208276048,0.10137540102005005,0.9999684691429138,0.9575815755259555,0.6988391028206236,-0.052747827023267746,0.9999983906745911,0.8494542198414365,1.0716220920261477,0.05915427953004837,0.9999906420707703,0.9387899840213908,1.056417338856887,-0.059332918375730515,0.9999971389770508,0.8755749723926085,1.325243202581935,0.1399243324995041,0.8036397695541382,0.9822032368145344,1.3337453169317222,-0.0088969636708498,0.981491208076477,0.8639458504576516,1.5844104696963952,0.13931305706501007,0.8744341135025024,1.0104348298586603,1.6012945899700974,-0.00814197026193142,0.9730208516120911,0.8157921071444136,1.0607929759777488,0.19112984836101532,0.07102777063846588,1.0486013481350083,1.0537259365712044,-0.0315764956176281,0.9937173128128052,0.01508358120918274,0.8941221019314137,1.0640197154415174,171.55056744777244,177.12657159643376,1.0,0.05411099470835245,-0.0022662746487970816,0.1571432191372613,0.01130172127331311,90.48285471839354,0.9045244379694871,93,3.1
0.8762156884748424,0.5832802161722194,0.16232722997665405,0.9999334812164307,0.7949941609811771,0.7281696394347843,0.033756859600543976,0.9999714493751526,0.9724127450839403,0.7013763959603252,-0.07188951969146729,0.9999984502792358,0.8556577335095136,1.0727692462564433,0.04762396216392517,0.9999911189079285,0.9484979063213705,1.0582605329094077,-0.0477868914604187,0.9999971389770508,0.8748440031357337,1.3261736042831322,0.14658920466899872,0.821619987487793,0.9843425065509908,1.3357562081401573,0.011033305898308754,0.9825597405433655,0.8639950801184948,1.5832802161722195,0.1659063845872879,0.8852313160896301,1.008278690315948,1.6015372704690363,0.015417355112731457,0.9741033911705017,0.8009872375003496,1.0658901539750338,0.08556060492992401,0.15842662751674652,1.0569857210426734,1.0547041271269841,-0.10417334735393524,0.9941502213478088,0.014103293418884277,0.9020778199154421,1.0655148895829254,173.25393474692012,177.78592183437738,1.0,0.061385631948824265,0.009450023668161342,0.0579084746579564,0.0934737754332984,91.10196692368295,0.9146436710482394,94,3.1333333333333333
0.8725418561552354,0.5746850127908482,0.14825740456581116,0.9999396800994873,0.7958635401689094,0.7241288550253898,0.02089823968708515,0.9999741315841675,0.9755297795817841,0.6979521739088785,-0.07218867540359497,0.9999985098838806,0.8551893642261849,1.0675763282503712,0.04239175096154213,0.9999915361404419,0.9499404198184076,1.0534732904584425,-0.042522065341472626,0.9999971389770508,0.8680410125323208,1.321065418853438,0.15316522121429443,0.8372308015823364,0.9795825955659407,1.3314619590950936,0.019451986998319626,0.9833657145500183,0.8593002192579984,1.5746850127908483,0.18790540099143982,0.8946491479873657,1.0033196644802098,1.5951263653756398,0.052463598549366,0.9749541282653809,0.7943759937426018,1.062586435215209,0.03503873944282532,0.23971228301525116,1.0591461284038985,1.0486167181871215,-0.12566997110843658,0.9945419430732727,0.01384463906288147,0.9025648920222963,1.0605248093544068,175.123773957795,179.05783151696613,1.0,0.03428297888569456,0.0005799201332151203,-0.1922818563785,-0.06329280153212002,91.33442144502725,0.9268742118685036,95,3.1666666666666665
0.8726509944495147,0.5743886011387435,0.14809735119342804,0.9999454021453857,0.8019845322065015,0.724074158906259,0.024862047284841537,0.9999765753746033,0.9829457820351389,0.6969942228906373,-0.07448720932006836,0.9999985694885254,0.8593811496486511,1.0651479814826428,0.045357026159763336,0.9999919533729553,0.9567514940309476,1.0525590229631208,-0.045471906661987305,0.9999971389770508,0.8663803495903667,1.321716908512583,0.1544990837574005,0.8512608408927917,0.9796159528658106,1.3322262451459947,0.014916698448359966,0.9842620491981506,0.8593324666176118,1.5743886011387433,0.19179090857505798,0.9029577374458313,1.0042287185144327,1.5991719827804063,0.0454663522541523,0.9759000539779663,0.7862337685900577,1.0639188476411015,0.03276767209172249,0.3139633536338806,1.065141219950554,1.0479055111952096,-0.14658935368061066,0.9948492646217346,0.014322996139526367,0.9080663218397994,1.0588535022228818,176.83959662297607,179.40601963965457,1.0,0.04205719720174253,-0.012329262540940342,0.05901602004858346,-0.09797752743545318,92.1854805170406,0.9191929270557702,96,3.2
0.8843329904066891,0.5734932271049159,0.1534528285264969,0.9999505281448364,0.8139534726560116,0.7237982118106279,0.02240961790084839,0.99997878074646,0.9927242034051332,0.6975181444387203,-0.05751762539148331,0.9999986290931702,0.8665455385483863,1.0645547581466102,0.040444932878017426,0.9999924302101135,0.9650950309275982,1.0536926486724414,-0.04054604098200798,0.9999971389770508,0.8662618187486639,1.3224394992024533,0.15093764662742615,0.8644319176673889,0.9822779309697,1.3345183712794018,0.0228983573615551,0.9850245118141174,0.8590559102584925,1.573493227104916,0.18982800841331482,0.9108836650848389,1.0049772044262542,1.601677449670991,0.06535233557224274,0.9765379428863525,0.7813184872452238,1.0658390998997802,0.017505500465631485,0.38136130571365356,1.074811358433281,1.0483411683849417,-0.1323794722557068,0.9948024749755859,0.013907372951507568,0.9158202847379923,1.0591237034095258,178.41894609178544,178.64490127811567,1.0,0.061887218633822065,0.006283786552919679,0.14910894200692867,0.13974994863220855,92.48400848254387,0.920445359400778,97,3.2333333333333334
0.8853819411432828,0.5726776338316499,0.19855883717536926,0.999954879283905,0.8181415914508418,0.7233216087329332,0.0356493815779686,0.9999807476997375,0.9955869367383252,0.6971812493530192,2.691735608095769e-05,0.9999986290931702,0.8686736678781918,1.063628796753385,0.02478368766605854,0.999992847442627,0.9699617978080868,1.053252111669262,-0.024899698793888092,0.9999971389770508,0.8660652552902411,1.3238546955620172,0.12932933866977692,0.8763692378997803,0.9830394921850352,1.3355070198715906,0.039101701229810715,0.9854964017868042,0.858705140062789,1.57267763383165,0.17134900391101837,0.9178555011749268,1.004459671207958,1.6037366513687903,0.07888483256101608,0.9768807888031006,0.7812899604738722,1.0656927182007576,0.02604670263826847,0.44186076521873474,1.0724685454059621,1.0481295156021508,-0.05218605324625969,0.994513988494873,0.013839870691299438,0.9193177328431393,1.0584404542113235,178.87999381257623,178.08696856677807,1.0,0.030516084624899353,-0.001486549686504144,-0.24380462930403057,-0.060420818653129815,92.59672628026452,0.9189226156159019,98,3.2666666666666666
0.8911388333941285,0.5696930283822268,0.19647416472434998,0.9999591112136841,0.8238447406812067,0.7219692275466476,0.012282719835639,0.9999825954437256,1.0012168017532375,0.6963514376982444,-0.022634103894233704,0.9999986886978149,0.8715039143752743,1.061721448591924,0.0235556922852993,0.9999932050704956,0.9724498013089047,1.0516337260407038,-0.023678531870245934,0.9999971389770508,0.864953322594732,1.3214726627528532,0.12908510863780975,0.8871780037879944,0.9831962689540922,1.3329546279483675,0.041801076382398605,0.9858914017677307,0.8571483956489111,1.5696930283822268,0.17231228947639465,0.9242919683456421,1.0035008334889735,1.6033571277185596,0.08970190584659576,0.9772021174430847,0.7779151380791298,1.0635881177758015,0.015122614800930023,0.4970787465572357,1.0804119640335517,1.0464673754862768,-0.07229620218276978,0.9947568774223328,0.0135878324508667,0.9219768578420895,1.056677587316314,179.6436309850694,177.893347292532,1.0,0.032048000125305946,0.00115558042991199,0.011759292531296935,0.019554653696174516,92.27839997456387,0.9208266632403003,99,3.3
0.8944651637050904,0.5618162455223158,0.1514822393655777,0.9999629259109497,0.8279165987816549,0.7149173475162811,-0.005098752211779356,0.9999842643737793,1.0056771724979543,0.6931499031376662,-0.03912913799285889,0.9999986886978149,0.8723352371338816,1.056936438767104,0.02592616342008114,0.9999935030937195,0.9729893438289294,1.0480218713063492,-0.026060108095407486,0.9999971389770508,0.8635707857362223,1.3153669462438518,0.1304319202899933,0.896719753742218,0.9820567119917621,1.3271266717260926,0.03601542487740517,0.9861952662467957,0.853243482940993,1.561816245522316,0.17657940089702606,0.9296798706054688,0.9998463603482401,1.597133901794452,0.0842258557677269,0.9770871996879578,0.7744561522669063,1.05743197837926,0.019942764192819595,0.5467221736907959,1.0807579116170984,1.0414111715322671,-0.07470183074474335,0.9947280287742615,0.011598795652389526,0.9226622904814056,1.0524791550367267,179.54285355473183,178.09120072825175,1.0,0.03793069868573475,0.005009458387963353,0.04653296348105191,0.02978231836395866,92.33841687155515,0.9325638856024054,100,3.3333333333333335
0.9098184277038917,0.5606889245578337,0.14038720726966858,0.9999663829803467,0.834951265268333,0.7127866570940774,-0.0066040814854204655,0.9999857544898987,1.0179070140682516,0.6961144533743517,-0.05272536724805832,0.9999987483024597,0.8762292271766502,1.0563689889922492,0.031675297766923904,0.9999938607215881,0.9784309841973456,1.0497383889171286,-0.03179587423801422,0.9999971985816956,0.8677118364417695,1.3139076406133368,0.1349944770336151,0.9040453433990479,0.9828195948733094,1.3269692720667496,0.013384413905441761,0.9866153597831726,0.8529319576397832,1.5606889245578337,0.1743890345096588,0.9339161515235901,1.0009550787633918,1.5978040064338264,0.04697810858488083,0.9771353602409363,0.7768657059753831,1.056031119747535,-0.022694209590554237,0.5913513898849487,1.0848501812078177,1.0403213179002444,-0.15568490326404572,0.9949020743370056,0.008888304233551025,0.9273301056869979,1.0530536889546889,178.46682716102612,177.0760368454147,1.0,0.0401338511457576,0.008663091605825917,0.017366195104415647,0.02856993214425436,93.13866979398153,0.9362997992837501,101,3.3666666666666667
0.9305441627231948,0.5615794546360148,0.13364586234092712,0.9999694228172302,0.8432631873208533,0.7137279615166263,-0.008368863724172115,0.9999870657920837,1.0311504137860543,0.7008679089857643,-0.0631679818034172,0.9999987483024597,0.882348143636004,1.0580406577362784,0.03228278458118439,0.9999939799308777,0.9856861741686579,1.05352366637249,-0.032391492277383804,0.999997079372406,0.8754764324825272,1.3147887441416088,0.12060334533452988,0.9112467169761658,0.9864011097735146,1.3288170883267898,-0.0015935985138639808,0.9869267344474792,0.8559765246763058,1.5615794546360149,0.1411871761083603,0.9379262924194336,1.004297898194558,1.6000141285426452,0.01883128099143505,0.9769754409790039,0.7806612046004415,1.0571519701648169,-0.014383482746779919,0.6315459609031677,1.091947368827621,1.041820374276514,-0.15754707157611847,0.9951987862586975,0.006846755743026733,0.934017158902331,1.0557821620543841,177.0153423420963,176.37321771906898,1.0,0.039926600729388945,0.009629485948708676,-0.001917470793213003,0.007007750213083138,93.97340498082974,0.9413064313924341,102,3.4
0.931628393476067,0.5581223400075715,0.12557996809482574,0.9999720454216003,0.8490728245946629,0.7084454930757066,-0.011447254568338394,0.9999882578849792,1.0352081088322171,0.6997422733706291,-0.08024311810731888,0.9999987483024597,0.884492743628397,1.0596211626446388,0.034603193402290344,0.9999940991401672,0.9874940327086367,1.055714689534866,-0.034727007150650024,0.999997079372406,0.8789177761739566,1.3122926257970966,0.16300517320632935,0.9138122200965881,0.9876755523747388,1.3301192206412897,0.03208961337804794,0.9858547449111938,0.8556543096557844,1.5581223400075714,0.22017017006874084,0.939192533493042,1.0047833338120953,1.5986808080620662,0.08846767246723175,0.9748153686523438,0.7808746900669064,1.0549295946243353,-0.008565651252865791,0.6673988103866577,1.093451778641238,1.0402661811537206,-0.16637715697288513,0.9952492117881775,0.004641115665435791,0.9359933881685168,1.0576679260897524,175.85803380564963,176.39299798315574,1.0,0.02635978748635288,0.027160428316074344,-0.10224037564690433,0.13286127432423617,93.58744611463301,0.9592853197206177,103,3.433333333333333
0.9490083690846043,0.5584499498526353,0.1271531581878662,0.9999744296073914,0.8573136958957495,0.7044859580384757,-0.01565399393439293,0.9999893307685852,1.043219614683596,0.7008394263197429,-0.07592211663722992,0.9999987483024597,0.8893094211301551,1.062459081289088,0.03403222933411598,0.999994158744812,0.9915949939361555,1.0619043689055565,-0.034145887941122055,0.9999970197677612,0.8840751273267468,1.3138235791929702,0.16268041729927063,0.9181215167045593,0.9925541304782673,1.3355155526771139,0.04202920198440552,0.98531174659729,0.8572884613501601,1.5584499498526352,0.2181834727525711,0.9411583542823792,1.0089630755931307,1.6042382846104242,0.10027027130126953,0.9734017252922058,0.7824017300491123,1.0557949231563324,-0.02037820778787136,0.7000852823257446,1.0971445517021428,1.0445778039510807,-0.14640523493289948,0.9954275488853455,0.001942276954650879,0.9404522075331553,1.0621817250973222,174.94391773853428,176.70654964165632,1.0,0.024891713091974958,0.024236471444665203,-0.01111829933320496,-0.02192288165398,94.79681665303484,0.970317694264582,104,3.466666666666667
0.9559332050458021,0.5566689602470015,0.12689000368118286,0.999976396560669,0.8630212077365385,0.6992562699668107,-0.018787244334816933,0.9999902844429016,1.0500638686105856,0.700884478822344,-0.07477658241987228,0.9999987483024597,0.8929321442532381,1.0624183104381038,0.032475974410772324,0.9999942183494568,0.9948675100587815,1.0614696132318413,-0.03258783742785454,0.9999969005584717,0.8890334867392535,1.3140152495576767,0.16060659289360046,0.9210749268531799,0.9957668472523066,1.3360187344193468,0.042473893612623215,0.9845396876335144,0.8599891486321204,1.5566689602470016,0.2105928659439087,0.9425641298294067,1.0090292446882723,1.6053510283196077,0.09550018608570099,0.9720250368118286,0.7874774990814952,1.0558581296976308,-0.03172966092824936,0.7295513153076172,1.1005996793837722,1.0476591069923047,-0.12236468493938446,0.9955408573150635,0.0008670687675476074,0.9438998271560098,1.0619439618349724,174.06224127493988,177.3686141619637,1.0,0.024657263126797814,-0.0034239197700359344,-0.001812639432033119,-0.20940136754636207,94.17516884171101,0.9735442529991319,105,3.5
0.9590275495789131,0.5596088972712094,0.122767373919487,0.9999777674674988,0.8683486315483319,0.6972986671665239,-0.03330328315496445,0.9999911189079285,1.0566003564792765,0.7038994640692195,-0.074445940554142,0.9999987483024597,0.8988648689499077,1.0648555183960373,0.028425049036741257,0.9999942779541016,1.001813815123265,1.063676193520816,-0.028535068035125732,0.9999968409538269,0.8957080148702655,1.317458266514742,0.15904009342193604,0.9248718619346619,1.0010431582970976,1.339404144704172,0.039474811404943466,0.984504759311676,0.8662179920877512,1.5596088972712094,0.21079829335212708,0.9455947875976562,1.0115823504550696,1.6093551993555568,0.08857164531946182,0.9726515412330627,0.7987024284498493,1.0612970093791112,-0.06072124093770981,0.7558108568191528,1.1059991448492033,1.0532021952498567,-0.10641126334667206,0.9956746697425842,0.003506273031234741,0.9503393420365863,1.0642658559584268,173.77250053405777,177.60410321411553,1.0,0.031115403943855913,-0.002734730037462222,0.049034075762015836,0.005349835165710828,94.08975121330228,0.9699965930375752,106,3.533333333333333
0.9646858721965273,0.5621900550917635,0.12717434763908386,0.9999792575836182,0.8722890278469861,0.6976533133031663,-0.016731668263673782,0.9999918341636658,1.0611373979578962,0.704343360611623,-0.07719548046588898,0.9999986886978149,0.9054693494217565,1.0661549053406578,0.02942998707294464,0.9999939799308777,1.0083859090562457,1.06510356884009,-0.02955005131661892,0.9999964833259583,0.8995166088744422,1.318782277191039,0.15825071930885315,0.9260227680206299,1.0033572746354729,1.3414733423424876,0.04055866599082947,0.9824813604354858,0.8729677771656658,1.5621900550917636,0.21116407215595245,0.9449039101600647,1.013425108543413,1.6118256361673244,0.09132508933544159,0.9697253704071045,0.807135218744361,1.064895976524872,-0.02529127337038517,0.7792180180549622,1.106103332081448,1.0567929077833238,-0.14747782051563263,0.9956763386726379,0.003547847270965576,0.9569276292390011,1.065629237090374,175.12510372604135,176.8249092041868,1.0,0.038420790426614455,-0.002957676266535613,0.05546076401957851,-0.0016701100661505074,94.5598251171868,0.9653687487756293,107,3.566666666666667
0.974406105529556,0.5624137048428255,0.1606229990720749,0.9999806880950928,0.8791906580739556,0.6955620388200763,-0.0034929760731756687,0.9999925494194031,1.0665177094552007,0.7044925583406689,-0.03998645022511482,0.9999986886978149,0.9095304700380517,1.0626176713821962,0.02682669460773468,0.9999938607215881,1.0130944382500717,1.0634136411067947,-0.0269613154232502,0.9999962449073792,0.9019331239299344,1.3165875436864403,0.1291528344154358,0.9312061667442322,1.006100785886617,1.3415133901307172,0.030928006395697594,0.9825646877288818,0.8796361920385717,1.5624137048428255,0.1628769189119339,0.9471355080604553,1.013296100400323,1.6118403784503872,0.06251181662082672,0.9690549373626709,0.8154923406039994,1.0651986996051177,0.009293429553508759,0.8005449175834656,1.103575995999131,1.058600390487167,-0.06953626126050949,0.9956761002540588,0.004735380411148071,0.9613124541440616,1.0630156562444955,176.5307933458382,177.03474316222668,1.0,0.03312700486061908,-0.021432985866089972,-0.04122548439205784,-0.14373555754697814,95.16552440519209,0.9550843280955389,108,3.6
