nose_x,nose_y,nose_z,nose_visibility,left_shoulder_x,left_shoulder_y,left_shoulder_z,left_shoulder_visibility,right_shoulder_x,right_shoulder_y,right_shoulder_z,right_shoulder_visibility,left_hip_x,left_hip_y,left_hip_z,left_hip_visibility,right_hip_x,right_hip_y,right_hip_z,right_hip_visibility,left_knee_x,left_knee_y,left_knee_z,left_knee_visibility,right_knee_x,right_knee_y,right_knee_z,right_knee_visibility,left_ankle_x,left_ankle_y,left_ankle_z,left_ankle_visibility,right_ankle_x,right_ankle_y,right_ankle_z,right_ankle_visibility,left_wrist_x,left_wrist_y,left_wrist_z,left_wrist_visibility,right_wrist_x,right_wrist_y,right_wrist_z,right_wrist_visibility,trunk_lateral_inclination,center_mass_x,center_mass_y,left_knee_angle,right_knee_angle,person_height,center_mass_velocity_x,center_mass_velocity_y,center_mass_acceleration_x,center_mass_acceleration_y,body_orientation,torso_leg_ratio,frame,timestamp
1.1314211006914616,1.1268609687670839,-0.1847052425146103,0.9999932646751404,1.0396831952612955,1.2641874275347083,0.07604990899562836,0.9999709129333496,1.0248425287908733,1.2781835166617606,-0.2766527533531189,0.9999984502792358,1.1391541610847116,1.6933686373221033,0.12136896699666977,0.9999944567680359,1.1152328050751237,1.727740314431782,-0.12152712047100067,0.9999980330467224,1.3605401330057252,1.7497792249142432,0.18898409605026245,0.3464573919773102,1.3832239470380094,1.7880365435332424,-0.16181285679340363,0.984933614730835,1.3748055076625476,2.1268609687670836,0.32260555028915405,0.6456189751625061,1.3803136207714812,2.191098408617137,-0.06568939983844757,0.9787032008171082,1.2258331631212491,1.6442727638637742,-0.005509880371391773,0.03353915736079216,1.2187573967163086,1.6703856505205485,-0.38988643884658813,0.9926980137825012,0.005554616451263428,1.1271934830799175,1.7105544758769426,106.4616649809427,102.26632215399623,1.0,-0.1323323811539513,0.4163942547905056,-0.7713128284401467,2.292086279799751,132.1145787017635,1.1365349217372394,0,0.0
1.1188881280746583,1.1083483844287518,-0.1886185109615326,0.9999929070472717,1.0259179752297962,1.2461376201394332,0.0695844292640686,0.9999732375144958,1.008674882820121,1.2588104590295381,-0.30321329832077026,0.9999985098838806,1.1090678377476524,1.6708031600393214,0.12620262801647186,0.9999948740005493,1.0827558955243561,1.7102950083650577,-0.12634289264678955,0.999998152256012,1.3424978246122181,1.7340382237370544,0.17054206132888794,0.3400762975215912,1.360563719267084,1.7777092396525673,-0.16823981702327728,0.9853516221046448,1.351410949238834,2.108348384428752,0.2843203842639923,0.6407986879348755,1.3550495110797953,2.172150057322087,-0.05866615101695061,0.9787266850471497,1.2146680567675927,1.605448372187925,-0.008007588796317577,0.036485373973846436,1.2128157544246305,1.6349862192813047,-0.4092530310153961,0.9899455308914185,0.0051125288009643555,1.0959118666360044,1.6905490842021895,106.5214477654037,102.83909000403332,1.0,-0.0975724759595563,0.05860429952278421,0.2453832486986743,-2.641403656566331,135.24755726842034,1.1245598493981215,1,0.03333333333333333
1.1256066680459993,1.11439863631788,-0.18659910559654236,0.9999924898147583,1.0381573947401364,1.2535295006951763,0.08424965292215347,0.9999746084213257,1.0144329215269883,1.2657369666987728,-0.3001306653022766,0.9999985098838806,1.109891189964203,1.69277406715815,0.1264706403017044,0.9999950528144836,1.0826897582317003,1.7254430053901697,-0.12662379443645477,0.999998152256012,1.3560695406562033,1.7471348820243355,0.14757297933101654,0.34441229701042175,1.3682355523874652,1.7859552479585814,-0.17232972383499146,0.9856440424919128,1.3557957047282014,2.11439863631788,0.23621174693107605,0.6465545296669006,1.3613134318157083,2.1709107644784433,-0.05731668323278427,0.9789623022079468,1.2289701473521084,1.608064564657707,-0.01069269422441721,0.04430108517408371,1.220417120614474,1.6450099791131385,-0.4073253273963928,0.9899224042892456,0.004897117614746094,1.0962904740979518,1.7091085362741598,102.40943997919608,100.93482088820487,1.0,-0.04465392742852881,0.06919332918292619,0.4107229954214074,0.07879513753428119,130.94272213728908,1.1751120705204232,2,0.06666666666666667
1.1175273271377844,1.103611470961031,-0.14964529871940613,0.9999891519546509,1.0327203256231043,1.2418409210784758,0.10608719289302826,0.9999752640724182,1.004919877913405,1.2533516065980905,-0.2671383321285248,0.9999983906745911,1.093243452999677,1.6875265841427198,0.12624724209308624,0.9999948143959045,1.0714110211915433,1.714960610226996,-0.12640395760536194,0.9999979138374329,1.3419435426740318,1.7342502333813705,0.1487272083759308,0.33734872937202454,1.354153820576255,1.767545387067325,-0.16761353611946106,0.9851753115653992,1.3425778103420498,2.103611470961031,0.21018855273723602,0.6413998603820801,1.349629495579915,2.1487576166189606,-0.07786176353693008,0.9784931540489197,1.2162654125498487,1.5892958687267493,-0.0055274092592298985,0.04982826113700867,1.2074474588465334,1.6229807637842137,-0.3725193440914154,0.9888277053833008,0.004663228988647461,1.0823272370956103,1.7012435971848578,100.73860252604575,99.8555842695725,1.0,-0.02504472597821999,0.06856383743750942,0.14838526835835184,0.0003681854875026121,133.75333622896557,1.1969640576576537,3,0.1
1.1102250553042892,1.0939968928444412,-0.15246768295764923,0.9999876022338867,1.0246675630373288,1.2328039258144898,0.10462013632059097,0.9999759197235107,0.9971575518498464,1.243470021466333,-0.26307451725006104,0.9999982714653015,1.0806791981941801,1.680609456148521,0.12561558187007904,0.9999944567680359,1.056840424054408,1.707685659550949,-0.12576761841773987,0.999997615814209,1.331052631233241,1.731332708749379,0.1497848927974701,0.3316216766834259,1.343265225365115,1.7539698265666543,-0.16842994093894958,0.9845395684242249,1.3312775631971605,2.0939968928444412,0.20817458629608154,0.638319730758667,1.339008304018101,2.1307181671825433,-0.07673891633749008,0.977658212184906,1.2125707774844126,1.576631335124469,0.006671675946563482,0.05688948929309845,1.2008745343079996,1.6115788435796703,-0.3764786422252655,0.9883989691734314,0.004355490207672119,1.0687598111242942,1.6941475578497351,101.48810743571596,98.53187004531709,1.0,-0.03715404049158559,0.04705542042213523,-0.09120800236860035,-0.15538120848235076,131.5087101707168,1.2132455829519402,4,0.13333333333333333
1.1202086686715236,1.1028483257465886,-0.16392937302589417,0.9999871253967285,1.037898040894872,1.2435516964581588,0.0999031513929367,0.9999762773513794,1.0064600648428685,1.2543623751452309,-0.2697409987449646,0.999998152256012,1.0920923490730585,1.6922477970291727,0.1275414079427719,0.9999940395355225,1.0621159401446592,1.7280856408245175,-0.1276874840259552,0.9999973177909851,1.346429176979125,1.7458542978370766,0.14945223927497864,0.3169751763343811,1.3555251720923138,1.7699583756697224,-0.1753932237625122,0.9831267595291138,1.3433032845282902,2.1028483257465886,0.21317562460899353,0.6244442462921143,1.3487870325453422,2.1545463668034315,-0.07787425071001053,0.9756909608840942,1.2254988540185845,1.590195484970898,0.004514496773481369,0.059500522911548615,1.2108013138201508,1.6259841484902722,-0.3838241696357727,0.9867497682571411,0.004376113414764404,1.077104144608859,1.7101667189268452,101.4003337967819,97.1181552968907,1.0,-0.007566806752855728,0.008357000217171182,0.21803662314340927,-0.2850809725750799,133.20242447249407,1.223827759602014,5,0.16666666666666666
1.1196408853783255,1.100668671378468,-0.16954779624938965,0.9999860525131226,1.036713538191246,1.2427516453742375,0.11147771775722504,0.9999759197235107,1.0065747277551194,1.2535123108479072,-0.2683606743812561,0.9999978542327881,1.090119028199657,1.6935623705161533,0.12995414435863495,0.9999933242797852,1.0597011356281052,1.731991384580701,-0.13010075688362122,0.9999968409538269,1.3449707567099094,1.7486281527433525,0.15086564421653748,0.3057733476161957,1.3541446345926023,1.7720174871850678,-0.17783880233764648,0.9824569225311279,1.3417256635117067,2.1006686713784677,0.21491165459156036,0.6217344403266907,1.3453969216791635,2.157403943100207,-0.08182714879512787,0.9747901558876038,1.2219266585686492,1.5891254648946975,0.010498018935322762,0.06071830913424492,1.2099932300692644,1.6265627918985393,-0.38542693853378296,0.9843955039978027,0.004358530044555664,1.074910081913881,1.7127768775484271,101.66432357973993,96.44092305343231,1.0,-0.011774482709476643,0.02800961621193014,-0.0322843117085531,0.15066267821771473,134.8810860909455,1.2388112041449704,6,0.2
1.1101167450846574,1.0899819636919184,-0.14111362397670746,0.9999830722808838,1.0269009864604413,1.2316935411985137,0.11760072410106659,0.9999755024909973,0.9989983962376872,1.2424463203553515,-0.25588780641555786,0.9999975562095642,1.0812767424411414,1.6773762139275663,0.12845498323440552,0.9999924898147583,1.054867257411802,1.716227002175357,-0.12860825657844543,0.9999963641166687,1.3322317710084766,1.7376580109991864,0.15122953057289124,0.3075123429298401,1.3408357450068984,1.759772219942295,-0.17122943699359894,0.9822196364402771,1.3268134382239307,2.089981963691918,0.20594987273216248,0.6272401809692383,1.333709047200623,2.141161282642209,-0.07719628512859344,0.9747220873832703,1.2059920574885983,1.5766938453779389,0.04911581426858902,0.062366895377635956,1.2009818503358447,1.6149164338150066,-0.34173277020454407,0.9841671586036682,0.004393160343170166,1.0680719999264718,1.6968016080514616,102.62601270892395,97.5875647599442,1.0,0.018422181054279382,-0.009364138392017237,0.2294059377871352,-0.2830488987643175,138.83740208476334,1.2311282648171311,7,0.23333333333333334
1.1024336080076813,1.0819192941007172,-0.15016493201255798,0.9999789595603943,1.019334177671405,1.2235199188113803,0.11926517635583878,0.9999738931655884,0.9923622643631246,1.234156868487812,-0.2598044276237488,0.9999971389770508,1.073449296856325,1.6672721564292428,0.12917156517505646,0.9999911189079285,1.0451037823558365,1.7070868097548944,-0.12932442128658295,0.9999955892562866,1.322997715591877,1.7258629098622131,0.15185537934303284,0.29713281989097595,1.330767905888211,1.7483930996339454,-0.17277215421199799,0.9808964133262634,1.318520632168121,2.081919294100717,0.1969386488199234,0.622751772403717,1.322666144190519,2.1302000318963574,-0.08005693554878235,0.9729313254356384,1.1984945383103727,1.5670097759219312,0.03134123235940933,0.06201700121164322,1.1908624544587478,1.6062547582778546,-0.35636159777641296,0.9830259084701538,0.004374980926513672,1.0592765396060808,1.6871794830920686,102.49258754740654,97.01218693652416,1.0,-0.013375453207505529,0.013380355281549459,-0.25210725821503605,0.1805316827055305,137.598709904773,1.2290553928389054,8,0.26666666666666666
1.1090979116097939,1.0884874936451412,-0.15369071066379547,0.9999788999557495,1.0251740288707316,1.2314376315139446,0.11554236710071564,0.9999728202819824,0.9991604402846014,1.2421477063545088,-0.2634720206260681,0.9999967813491821,1.078370551115673,1.6805136891918135,0.12977460026741028,0.999989926815033,1.053735687027424,1.7201885742136294,-0.1299198567867279,0.9999949336051941,1.3313163577256595,1.7345844854002885,0.16824693977832794,0.2907032072544098,1.339704224395817,1.7631490607206897,-0.16687467694282532,0.9800116419792175,1.321362557576607,2.088487493645141,0.2346462458372116,0.6205868124961853,1.330974903713542,2.1406100620706803,-0.039148129522800446,0.9716123938560486,1.2064622614917835,1.5777493046393332,0.04258617013692856,0.0649879202246666,1.1998551044785828,1.618080405637448,-0.364348828792572,0.9827461838722229,0.004376649856567383,1.0660531190715485,1.7003511317027216,100.45512948033209,97.218732190397,1.0,-0.0007519550844813308,0.016891945645486184,0.09668249478882508,0.026050706627788328,141.40744996977645,1.2540820094248382,9,0.3
1.1058498105015344,1.0852315424828882,-0.17113322019577026,0.9999778270721436,1.0222311942374545,1.228083739498451,0.10821832716464996,0.9999714493751526,0.9970023108717453,1.238582451979515,-0.26831305027008057,0.9999960660934448,1.07523337826291,1.6753727055295382,0.12948913872241974,0.999988853931427,1.0523951547044699,1.71440630554071,-0.12963809072971344,0.9999942183494568,1.3252101764472624,1.7294487917745418,0.17962060868740082,0.2889613211154938,1.3362872614613333,1.7592197033018728,-0.1607174277305603,0.9790887236595154,1.31565437411684,2.0852315424828882,0.25720661878585815,0.6178948879241943,1.3278337999395444,2.1338472741575996,-0.027964001521468163,0.970245897769928,1.2017672073829195,1.57533360428787,0.03286180645227432,0.06524211913347244,1.1970342551897153,1.6136875874795729,-0.3595699965953827,0.9797242879867554,0.004301846027374268,1.0638142664836898,1.694889505535124,100.66788077263212,97.6776698572086,1.0,0.005003402703191348,-0.007080838913288339,0.04583174426481444,-0.1906081259999125,142.91062663670812,1.2514227927268262,10,0.3333333333333333
1.1087321614931858,1.086790873760088,-0.18895094096660614,0.9999778270721436,1.0243672101848056,1.2308403275502062,0.10001148283481598,0.9999706149101257,0.9998904102237709,1.2409365864556516,-0.28179818391799927,0.9999954700469971,1.0750521535776396,1.677605690152006,0.12912046909332275,0.9999881982803345,1.0554968314117694,1.7177324643051224,-0.12926827371120453,0.9999937415122986,1.3270076529829162,1.732102943225569,0.18516317009925842,0.2869380712509155,1.340005452510623,1.762488112280012,-0.15411986410617828,0.9782268404960632,1.3178845046254104,2.086790873760088,0.2766388952732086,0.61399906873703,1.3316069237114434,2.1378430850856334,-0.017361003905534744,0.9694067239761353,1.2046235073496971,1.5820416553437266,0.02470875345170498,0.06559259444475174,1.200103202507834,1.618290278453549,-0.3782164454460144,0.9756768345832825,0.0041266679763793945,1.0652744924947044,1.6976690772285643,100.73148256338538,97.65808313295881,1.0,-0.009121399785075724,-0.011053392092096917,-0.10854618143562804,-0.030366013721659934,147.54578563171063,1.2520314043235168,11,0.36666666666666664
1.1111404728027894,1.0886110527652004,-0.19648166000843048,0.9999737739562988,1.0263520249278084,1.2332702953967207,0.08232606947422028,0.9999696016311646,1.0018878504331499,1.2427849446850325,-0.28897035121917725,0.9999943971633911,1.0781922955391863,1.6794659370485168,0.12874701619148254,0.9999876022338867,1.057725337487968,1.7209634320302611,-0.1288791298866272,0.9999931454658508,1.32968933390076,1.7341706407842177,0.18853271007537842,0.2817118763923645,1.3439728511911393,1.765971422883246,-0.15238341689109802,0.9769564270973206,1.3213301893512523,2.0886110527652004,0.27612513303756714,0.6148003339767456,1.334130750446118,2.1473217400516162,-0.021549779921770096,0.9689168334007263,1.21017254763005,1.5870198593244578,0.011930376291275024,0.0654505267739296,1.2026923786440573,1.622059356969211,-0.38520848751068115,0.9661720395088196,0.003881216049194336,1.0679588165135772,1.700214684539389,100.92059500795946,97.45732233561989,1.0,0.004271153577447347,-0.006337572548170299,0.10176013839727077,0.035950529594976195,147.1199740762934,1.2463555490002476,12,0.4
1.1122541542112065,1.0893604376432973,-0.20075945556163788,0.9999732971191406,1.0271488745052038,1.2345220924690339,0.08519899100065231,0.9999679923057556,1.0036194549966273,1.244095521314808,-0.28604310750961304,0.9999936819076538,1.0792252469144967,1.6801674066501462,0.12864728271961212,0.9999868273735046,1.058699984560873,1.7240304707368574,-0.12878428399562836,0.9999926090240479,1.331085603193376,1.731846135607022,0.18440352380275726,0.2828049063682556,1.3455827312305453,1.7672648529922323,-0.15371300280094147,0.9764410853385925,1.3231772011707992,2.0893604376432973,0.2710229754447937,0.6163884997367859,1.3356112932495763,2.1519701561896967,-0.02300485223531723,0.9686335325241089,1.2106640704164608,1.5893688117789055,0.017761830240488052,0.06459508836269379,1.2052709076751182,1.624021789427716,-0.38456934690475464,0.9625551700592041,0.003901064395904541,1.068962615737685,1.7020989386935017,100.32825864063165,97.08545532873345,1.0,-0.001012210948243792,0.0006773419694113325,-0.04229090183086813,0.05615680556754064,148.2581147314335,1.246037414454794,13,0.43333333333333335
1.1134006454928878,1.089986193941525,-0.19463686645030975,0.9999746680259705,1.0279071663705437,1.235481057915032,0.0998089462518692,0.9999672770500183,1.0047451646955472,1.2450842541398046,-0.27303463220596313,0.9999932646751404,1.0763846425568862,1.6813882005703655,0.12841089069843292,0.9999861717224121,1.0572373917426272,1.7266491183870611,-0.12854896485805511,0.9999921321868896,1.3318325899395687,1.7287189292319096,0.1833118498325348,0.28155645728111267,1.346925418152588,1.7686888665432403,-0.15379823744297028,0.9759609699249268,1.3245442617315997,2.089986193941525,0.26611095666885376,0.6106147170066833,1.3370048480038015,2.153050647051943,-0.02554841712117195,0.9683181643486023,1.210962092407634,1.590664639260179,0.0303223617374897,0.06501471251249313,1.2084541357350302,1.6253923439982,-0.3739596903324127,0.9599447846412659,0.003910064697265625,1.0668110171497567,1.7040186594787132,99.34127065670454,96.77865946454865,1.0,-0.022529285586032448,0.004175796461868517,-0.1611960220782143,0.026205736500871327,150.86498647545284,1.2466831802349525,14,0.4666666666666667
1.1176079765943896,1.093875860062892,-0.19601941108703613,0.9999753832817078,1.03056362537214,1.2399421764485086,0.09926525503396988,0.9999660849571228,1.0084803468237815,1.249674926159648,-0.27345994114875793,0.9999930262565613,1.0800314826907638,1.6868318467323302,0.12830093502998352,0.9999852180480957,1.0608823527251332,1.7330444114551158,-0.12844160199165344,0.9999915957450867,1.3348223093721605,1.7322577114595965,0.181001678109169,0.27796122431755066,1.3520455301704224,1.776125014048214,-0.15295156836509705,0.9753049612045288,1.3272316460540494,2.0938758600628917,0.26397401094436646,0.6044643521308899,1.3421984849230526,2.159905478472994,-0.027857378125190735,0.9677989482879639,1.2147889315497549,1.5967159866106746,0.02785421349108219,0.06523512303829193,1.2126652822901418,1.6318365955796421,-0.3678736090660095,0.959750235080719,0.003948807716369629,1.0704569177079484,1.709938129093723,98.90636285988533,96.94666565183047,1.0,-0.0010250388892142615,-0.000925507313113382,0.16025568321369574,-0.03798557059966116,151.17575391977473,1.2516393160707389,15,0.5
1.1175868731014045,1.0936865505737428,-0.19151566922664642,0.9999747276306152,1.0298294216565866,1.2391833332635809,0.10030557960271835,0.9999645948410034,1.0083314445123124,1.249018271966291,-0.26823949813842773,0.9999927878379822,1.0786245153769856,1.6868124021493425,0.12712469696998596,0.999984085559845,1.0606009409816304,1.7323780341092074,-0.1272716224193573,0.9999909400939941,1.3340072147456237,1.7334956875040521,0.17978695034980774,0.2760738432407379,1.3514786439873046,1.7768368793607627,-0.15000887215137482,0.9744301438331604,1.3268911503834142,2.0936865505737425,0.2674710154533386,0.5993873476982117,1.3419397490691178,2.1581126386392793,-0.011693118140101433,0.9665703177452087,1.213942663690663,1.5960743948044904,0.04323624446988106,0.06718570739030838,1.2116571351875278,1.6310526434426484,-0.35307493805885315,0.961329460144043,0.003991961479187012,1.069612728179308,1.7095952181292748,99.2273355988979,97.25690189424317,1.0,-0.002948138068745003,0.0028896025335511384,-0.014535553363431698,0.028826642759311377,152.1975017857758,1.252104966589414,16,0.5333333333333333
1.1186117675140232,1.0943652905156664,-0.1973254382610321,0.9999741911888123,1.030122485701433,1.2395669026044966,0.08988317102193832,0.9999632835388184,1.0087341430499326,1.250244732710898,-0.2731952965259552,0.9999922513961792,1.0789862568509185,1.6872964829656558,0.12608762085437775,0.9999830722808838,1.060179753412836,1.7330107686799416,-0.1262228637933731,0.9999902248382568,1.3346136036060847,1.734802647644753,0.17905563116073608,0.27630752325057983,1.3518546549523993,1.7781566002919387,-0.14806202054023743,0.9738767743110657,1.3274616578075225,2.0943652905156664,0.2673460841178894,0.5991261005401611,1.3427264865460353,2.158263791346498,-0.010517817921936512,0.9661672711372375,1.2168870527968272,1.5973735070276425,0.006659124046564102,0.06914263218641281,1.2117422493963848,1.6316227932468534,-0.3657178580760956,0.9606189727783203,0.004332900047302246,1.0695830051318773,1.7101536258227987,99.38832712059498,97.42282033665269,1.0,-0.002451338539662201,0.0006819031124773961,0.0037777113165230005,-0.016766309979820485,151.40968601215081,1.2513712679676259,17,0.5666666666666667
1.1186213787225572,1.0939906336691054,-0.1957823932170868,0.9999715685844421,1.030090242545418,1.2386727848501202,0.08788897842168808,0.9999616146087646,1.008704415720599,1.2504231552738214,-0.2767089009284973,0.999991774559021,1.0785566124621329,1.6859656882960055,0.12582246959209442,0.9999819397926331,1.0591736313074502,1.731360049635932,-0.12595528364181519,0.9999895095825195,1.3346030009805798,1.735943329668911,0.17391227185726166,0.2683594226837158,1.3508418300152807,1.7764325172012445,-0.14910605549812317,0.971314549446106,1.326660165674748,2.0939906336691054,0.26085054874420166,0.5878422260284424,1.3419230386185195,2.156276124971405,-0.0147740188986063,0.9633721709251404,1.2177394147331206,1.596257430766601,0.008158220909535885,0.07007284462451935,1.2108118731979252,1.630509100764861,-0.3668934106826782,0.9601390361785889,0.004771530628204346,1.0688651218847915,1.7086628689659686,99.77385721671794,97.4395547424306,1.0,0.00035505902766835086,-0.0020491498142563027,0.021401555896156617,-0.02083626935712747,150.6938062293727,1.2486902702976368,18,0.6
1.1191107754776033,1.093207643764811,-0.1997625231742859,0.999970018863678,1.0318861117512974,1.2371743333608956,0.08572070300579071,0.9999608397483826,1.008819909068145,1.249111558361819,-0.28083866834640503,0.9999912977218628,1.0775163130199803,1.6843830139341662,0.1257912814617157,0.9999811053276062,1.0578459072748416,1.7290175301557031,-0.1259250044822693,0.9999887943267822,1.3336523513209044,1.7378438899552144,0.17386355996131897,0.26110732555389404,1.3488946965018858,1.7739619746978859,-0.14973287284374237,0.9687128067016602,1.3254405702915673,2.093207643764811,0.26264896988868713,0.5766180753707886,1.340540706167427,2.1518392207985655,-0.0008832226740196347,0.9593979716300964,1.219643884442771,1.5943555807329555,-0.012915784493088722,0.0729961171746254,1.2092112925330438,1.628000689641826,-0.365913450717926,0.9587079882621765,0.004853188991546631,1.0676811101474109,1.7067002720449347,100.46579385298176,97.51194038924666,1.0,0.000662480242112905,0.0005406447952875431,0.002284179911131158,0.019197962241107456,150.39102106848583,1.2481263869615284,19,0.6333333333333333
1.1227019383784138,1.0946436702562128,-0.18134038150310516,0.9999672174453735,1.0343364043590924,1.2382570085341695,0.08977820724248886,0.9999611377716064,1.010960369860956,1.2503585243115865,-0.2857780158519745,0.999991238117218,1.0780104306516576,1.6858489398007754,0.12700863182544708,0.9999813437461853,1.0571450198567311,1.729803081548731,-0.12713830173015594,0.999988853931427,1.3344949677504154,1.7390632481481134,0.1746024638414383,0.2533356547355652,1.349658903138584,1.7748788586839166,-0.14989997446537018,0.9663540124893188,1.3262823552054679,2.094643670256213,0.26359981298446655,0.563818097114563,1.342691003680302,2.1523415862382995,-0.008538276888430119,0.9564884305000305,1.2218009773454883,1.5953451691342841,-0.002224961295723915,0.07540769129991531,1.2104938188296264,1.6289773607446978,-0.3710560202598572,0.9578622579574585,0.004917025566101074,1.0675777252541943,1.7078260106747534,100.39809745948415,97.70270211205384,1.0,-0.00550088623666103,0.0007322248097006615,-0.04547841258629964,0.0014111450918913775,149.0328793948095,1.2463023598104765,20,0.6666666666666666
1.1250366383125157,1.094305385602893,-0.1628156155347824,0.9999603033065796,1.0397642687857702,1.2386645513744452,0.10417336225509644,0.9999614357948303,1.0110212881513951,1.2494981311620437,-0.2792953848838806,0.9999909400939941,1.0778993374503105,1.686250563913012,0.12750586867332458,0.9999818801879883,1.0554085625358,1.7292908237289464,-0.1276317834854126,0.9999889731407166,1.3345001889177304,1.7376040834081858,0.16719399392604828,0.2448514848947525,1.3486343868382795,1.7735684488699934,-0.1563909947872162,0.9640430808067322,1.325670199849672,2.094305385602893,0.25077003240585327,0.5537406802177429,1.3418597347235919,2.1523387135490477,-0.024662677198648453,0.9544029831886292,1.223937910382999,1.5943114324361665,0.012219687923789024,0.07682427763938904,1.2097468355822056,1.626642713877409,-0.3683362603187561,0.9524644613265991,0.004405021667480469,1.0666539499930554,1.7077706938209793,99.89904930117122,97.56221470327675,1.0,-0.0011827149120293792,0.009051222773728532,0.03318980419484019,0.06400334126995752,147.540657049524,1.24744961398841,21,0.7
1.1300082336820276,1.0968030572318979,-0.14935393631458282,0.9999467730522156,1.0409739131352778,1.2405476325946478,0.11086100339889526,0.9999602437019348,1.0132801937902745,1.2502265893751852,-0.2675630450248718,0.9999902844429016,1.0777607522642625,1.6884370615249078,0.12747731804847717,0.9999818801879883,1.0551155241085743,1.7302245190414618,-0.12760408222675323,0.999988853931427,1.3350162859166061,1.7390653718869942,0.16808995604515076,0.23238129913806915,1.348441491042031,1.7739397915575692,-0.15631309151649475,0.9591769576072693,1.3261789520519067,2.096803057231898,0.25060826539993286,0.5357702970504761,1.3422060036305619,2.1528633543819704,-0.024887125939130783,0.9497342109680176,1.2234837279760369,1.5952073827044877,0.020759398117661476,0.07445830851793289,1.2099587450815827,1.626587454408121,-0.34348174929618835,0.9454075694084167,0.003934621810913086,1.0664381381864185,1.709330790283185,99.71850788924874,97.5338142767835,1.0,-0.0035662535208105745,0.008891899973365454,-0.01826153099087477,-0.0012370264559922915,146.85071693871913,1.2458261652482794,22,0.7333333333333333
1.1362422591959762,1.0986768828283822,-0.15669940412044525,0.9999477863311768,1.0494997685370293,1.241139810237046,0.10765416920185089,0.9999608993530273,1.0183036955575984,1.2519781463741013,-0.271473228931427,0.9999902248382568,1.0802973290420368,1.6893620205580202,0.12742385268211365,0.9999820590019226,1.0573218963970277,1.731343167513897,-0.1275525987148285,0.9999889135360718,1.3355765555522134,1.740644237379032,0.1756361424922943,0.2324291169643402,1.3494024146980086,1.7743194218341112,-0.154995396733284,0.9596195220947266,1.325859072431403,2.098676882828382,0.2583502233028412,0.5406236052513123,1.3440737042658881,2.1543604909215897,-0.026540040969848633,0.9508903622627258,1.2246788680543685,1.5949833794180632,-0.012464688159525394,0.07692953944206238,1.2117381438503847,1.6277934572644526,-0.37482884526252747,0.945557177066803,0.004402816295623779,1.0688096127195321,1.7103525940359585,99.80407549690166,97.56703304531042,1.0,0.012375872225600545,-0.0014141449917615396,0.12191404671030215,-0.0788488602706201,147.37836166195842,1.2457112516707771,23,0.7666666666666667
1.144149762259829,1.0988657559742776,-0.16165350377559662,0.9999514818191528,1.061386018191596,1.2401473925239617,0.12073048204183578,0.9999610781669617,1.0268589137874333,1.2532190856167582,-0.258578896522522,0.9999905228614807,1.0816326470728692,1.689200748919868,0.1278441995382309,0.9999819397926331,1.058044810924729,1.7318281187382623,-0.12797880172729492,0.9999889135360718,1.3354559038326208,1.741441012730508,0.17666466534137726,0.22860191762447357,1.3495871705035374,1.7735132867401673,-0.15474313497543335,0.9602736234664917,1.3258199756321551,2.098865755974278,0.2533692717552185,0.5415781140327454,1.344214771544302,2.155293110666386,-0.03318897634744644,0.9520891904830933,1.224809984287589,1.5919856800582222,0.03906410187482834,0.08106435835361481,1.2121463047811607,1.6278091555695946,-0.36463040113449097,0.9488352537155151,0.005310535430908203,1.0698387289987992,1.7105144338290652,100.08557053134682,97.33087367425978,1.0,0.008462715341859895,0.002360788810854983,-0.029456721387130985,0.02842326020536208,148.4605039409758,1.2477389887179193,24,0.8
1.1640253331560402,1.1123414872098971,-0.16541078686714172,0.9999510645866394,1.0810035775915872,1.2522905438465166,0.11488375812768936,0.9999606013298035,1.044583554486694,1.2667858086027393,-0.25986573100090027,0.9999903440475464,1.0936523769186637,1.7056838111295358,0.12756821513175964,0.9999817609786987,1.070460294066991,1.7489488532928177,-0.1276937574148178,0.9999887347221375,1.348123773779465,1.7577119710977713,0.18594498932361603,0.2178974747657776,1.3628455687163155,1.7892949303686374,-0.1482085883617401,0.9576652646064758,1.338443423568843,2.112341487209897,0.26927801966667175,0.5276467800140381,1.3583734866350528,2.1739360655974513,-0.03194816783070564,0.9505923986434937,1.2384823514988363,1.6077026187644474,0.023195995017886162,0.08096431940793991,1.2256644323541102,1.644288057792605,-0.3701508343219757,0.9466531276702881,0.005831599235534668,1.0820563354928272,1.7273163322111769,99.99158249209815,97.19046946623911,1.0,0.013462551231078557,5.834258388333068e-06,0.03872325899255457,-0.018729880844224195,150.20858589444296,1.2563659163156637,25,0.8333333333333334
1.18336396949027,1.1274353131607555,-0.17789776623249054,0.9999498724937439,1.1006215580986967,1.2629192997336074,0.10130371153354645,0.9999575614929199,1.0610919562542558,1.2778687986047235,-0.25999921560287476,0.9999895691871643,1.1084640907407628,1.720142962095782,0.1272200644016266,0.9999804496765137,1.0794564782406135,1.7627066634014645,-0.12734144926071167,0.9999878406524658,1.3598498106580974,1.772465536189987,0.17719712853431702,0.21417087316513062,1.3718976598057604,1.8020566293557596,-0.14848224818706512,0.9567998051643372,1.3489538411917192,2.1274353131607553,0.26191505789756775,0.5169434547424316,1.3683991649842913,2.185332722103427,-0.029292305931448936,0.9490177631378174,1.252892839650703,1.6264013988603647,-0.03829348087310791,0.0797313004732132,1.234438275734372,1.657392099007299,-0.36188045144081116,0.9446386098861694,0.005967319011688232,1.0939602844906882,1.7414248127486232,99.99931681908889,97.14053650687995,1.0,0.02790261919194081,0.004105848237825438,0.11842923195550273,0.03387447395528092,144.74248626656856,1.260574786378843,26,0.8666666666666667
1.2035707001052272,1.138874067630266,-0.16551366448402405,0.9999473094940186,1.1071456177027814,1.2694063556858926,0.10625237226486206,0.9999538064002991,1.077246974099344,1.284783392745943,-0.2590497136116028,0.9999890923500061,1.1140509734227442,1.7306373201243275,0.12689290940761566,0.9999783039093018,1.086352179820665,1.7717069902458857,-0.1270189732313156,0.9999865889549255,1.366842135359891,1.7837247421363656,0.1805921345949173,0.20891699194908142,1.3789419857664886,1.8104373779685106,-0.14351823925971985,0.9554502964019775,1.3555584672762369,2.138874067630266,0.25118735432624817,0.5102280378341675,1.3756449874053072,2.195576375859314,-0.021296590566635132,0.9469533562660217,1.256830949249459,1.635110068294859,-0.0164475217461586,0.07770341634750366,1.240757650733701,1.666282589696381,-0.3343951106071472,0.9460891485214233,0.006106674671173096,1.1002015766217046,1.7511721551851067,100.04028917736316,97.04998773891272,1.0,0.004766216369610584,0.006173954837849427,-0.17509748411273052,0.015397071929421972,145.1451791273951,1.2582883046028404,27,0.9
1.218559145385875,1.1453196376865795,-0.18051496148109436,0.9999505877494812,1.123738600353686,1.2727835969456953,0.10799767822027206,0.9999485611915588,1.0863086789462475,1.2854771232052475,-0.25190573930740356,0.9999882578849792,1.1173949913801415,1.7322699621290976,0.12569370865821838,0.9999754428863525,1.0871575224673553,1.772566260561542,-0.12583427131175995,0.9999846816062927,1.3681702379225105,1.7894896605256747,0.15590953826904297,0.22273851931095123,1.3791492549732782,1.8111521051289283,-0.14288803935050964,0.9562948942184448,1.3560021039724044,2.1453196376865797,0.2081383764743805,0.516779363155365,1.3768820174343732,2.195948651538132,-0.021534282714128494,0.9472141265869141,1.257919785901883,1.637293361462399,-0.044115521013736725,0.07708016037940979,1.2416423120746207,1.6678275463578358,-0.3239680528640747,0.9471877813339233,0.0050373077392578125,1.1022762569237485,1.7524181113453197,100.89465790273066,97.19026568009869,1.0,0.009607276669631931,-0.00021406133693609608,0.036478901337399026,-0.04820408819283002,143.90719979494855,1.249609281060334,28,0.9333333333333333
1.235446819405213,1.1497862445106626,-0.1831384152173996,0.9999536275863647,1.1381496232800978,1.2765558704096165,0.10727008432149887,0.999944269657135,1.0997682718210327,1.2864297999972638,-0.2545308768749237,0.9999883770942688,1.120097480982098,1.7338107108210024,0.12473026663064957,0.9999728798866272,1.0883148352187744,1.7719194276280905,-0.1248718723654747,0.9999836683273315,1.369929517891433,1.7946224449803427,0.14405076205730438,0.22829000651836395,1.378026173227262,1.8125319934170796,-0.14392167329788208,0.9572433233261108,1.3600823481427995,2.1497862445106626,0.2030017077922821,0.5115768313407898,1.377196618217828,2.203404693405158,-0.03359208628535271,0.9476816058158875,1.2585519108554595,1.6411940059764643,-0.03634071350097656,0.07422636449337006,1.2427684165947683,1.6693659526750744,-0.31745511293411255,0.9499980211257935,0.003914773464202881,1.1042061581004363,1.7528650692245464,102.0921935702448,97.8582866860482,1.0,0.006925657320081418,-0.008824297607074828,-0.02035869206072884,-0.06515203586764252,142.43274336031763,1.2356858533068218,29,0.9666666666666667
1.2565893348972237,1.1649924415923854,-0.15264804661273956,0.99995356798172,1.148943514860528,1.2864159188565634,0.1106765866279602,0.9999372959136963,1.1216007699742154,1.2919310696238768,-0.24531316757202148,0.9999880790710449,1.1243385872889908,1.7433498011664528,0.12294785678386688,0.9999690651893616,1.0960074847501395,1.7803060199353615,-0.1231003850698471,0.9999819397926331,1.3752674247052925,1.8071624589423922,0.1705441027879715,0.2173764556646347,1.3879919238704195,1.8258081712559766,-0.1399787962436676,0.9563015699386597,1.3668438256375404,2.164992441592385,0.22077524662017822,0.49082791805267334,1.3868768420519535,2.219310476704669,-0.03225797414779663,0.9449204206466675,1.2576792838464614,1.6509165586470582,-0.04577750712633133,0.06996705383062363,1.2515941014367145,1.681721280568136,-0.28189724683761597,0.9514487981796265,0.0021712183952331543,1.1101730360195652,1.7618279105509072,102.91966052984321,98.69523078715342,1.0,-0.014995792987114821,-0.02789391946570597,-0.17641243316214375,-0.15261645322904885,145.60805219977965,1.213858436575246,30,1.0
1.2979477612514452,1.1982752651467474,-0.1484455168247223,0.9999527335166931,1.183276159150521,1.3162391400083768,0.11473752558231354,0.9999310970306396,1.1599004993803523,1.311938843371462,-0.2403920590877533,0.9999873042106628,1.1411853536023429,1.7723684821970151,0.12269438803195953,0.9999681115150452,1.1135247075869068,1.8093770070846338,-0.12285065650939941,0.9999814033508301,1.3975040830275616,1.8369535613509704,0.17879734933376312,0.21649326384067535,1.410677790268869,1.8563883724730545,-0.13442596793174744,0.9573216438293457,1.38897473308371,2.1982752651467474,0.22480180859565735,0.4860939681529999,1.409626989620016,2.2509767106631413,-0.033546146005392075,0.9462302923202515,1.279682387079322,1.679640902842255,-0.047911398112773895,0.06596319377422333,1.2735926980356844,1.7097896029053739,-0.30865246057510376,0.9485378265380859,0.0016657710075378418,1.127355030594625,1.7908727446408244,102.79025018577103,98.83743939167593,1.0,-0.007081054859138806,0.002253766398731218,0.061938475299122775,0.23230713195359234,148.49731203987525,1.204523815412157,31,1.0333333333333334
1.3141001183371894,1.204393931355203,-0.07922999560832977,0.9999396800994873,1.1842015622969564,1.3180290052986456,0.14332017302513123,0.9999256134033203,1.1822641848920548,1.311625110244279,-0.21502244472503662,0.9999867081642151,1.1326027030705386,1.7776201999044998,0.1221742033958435,0.9999664425849915,1.1133219686571767,1.8089967020909312,-0.12235046923160553,0.9999805688858032,1.3921905144169144,1.8440066711725531,0.18764452636241913,0.212196946144104,1.408961793004496,1.8553149084097835,-0.12279315292835236,0.9584599733352661,1.3886104107507684,2.2043939313552032,0.22826647758483887,0.48513028025627136,1.4113509893342744,2.2512952885804998,-0.051228560507297516,0.9486024379730225,1.278608342348951,1.6789528196776522,0.06772048771381378,0.06354525685310364,1.2742997614033145,1.7088731362277119,-0.2560962736606598,0.9498645067214966,0.0024820566177368164,1.1229623358638576,1.7933084509977155,103.77608799343805,99.24990489858543,1.0,-0.02836149806157452,0.02628787254196587,-0.1613038560234793,0.18215126622784453,154.83528376653635,1.2014778851020291,32,1.0666666666666667
1.3652298802206049,1.240920562136026,-0.06919734179973602,0.9999231100082397,1.2279090414086204,1.3542364342465962,0.14584024250507355,0.9999164938926697,1.225659542169401,1.3403846296875495,-0.21260908246040344,0.9999858140945435,1.1533046297032075,1.8109075621238913,0.12194456905126572,0.999966025352478,1.1345979997753084,1.8450407948288057,-0.12212665379047394,0.9999805092811584,1.417791892548891,1.8691217808724845,0.19169998168945312,0.20339694619178772,1.434649083833833,1.8902715988684,-0.1258305460214615,0.9588676691055298,1.414885150901526,2.240920562136026,0.2253083884716034,0.4748251736164093,1.4369800826974575,2.297504005499072,-0.07157118618488312,0.9501811861991882,1.301246177013896,1.7094381027576389,0.03237151354551315,0.059618253260850906,1.299874540683853,1.7407406914471977,-0.23137167096138,0.9456750750541687,0.005272924900054932,1.143951314739258,1.8279741784763486,101.96506953694468,98.90039059546797,1.0,0.004419047196753266,0.015805547345178157,0.25385094724901325,-0.08356050224588053,160.55337562403528,1.1980803306870251,33,1.1
1.3890517885300366,1.2654581945579835,-0.07344359904527664,0.9999207854270935,1.2510580710303154,1.378789587710522,0.15215817093849182,0.9999120831489563,1.2461071945652908,1.3637503800668027,-0.20991793274879456,0.9999853372573853,1.1674861865375812,1.841496019187456,0.12236281484365463,0.9999632239341736,1.1509885867170266,1.8759587453172752,-0.1225498765707016,0.9999791979789734,1.4372364751024076,1.893434351938841,0.21971814334392548,0.19832153618335724,1.455561811014741,1.9208523790354992,-0.12785476446151733,0.961007297039032,1.4349169953165604,2.2654581945579837,0.2578442692756653,0.4776628017425537,1.4582865365326407,2.330938502093584,-0.06110341101884842,0.9526955485343933,1.3177877935728122,1.7352177445207633,0.14654165506362915,0.05916934460401535,1.320024031977399,1.7668906135175741,-0.2279386967420578,0.9477312564849854,0.005642831325531006,1.1592373866273038,1.8587273822523656,100.54126657764625,98.76561813342252,1.0,-0.010469738247502951,0.032065296286191244,-0.1153243419268473,0.12362838789712075,164.6572862179423,1.211658649562177,34,1.1333333333333333
1.4280794303226998,1.2923846898622815,-0.043191902339458466,0.9999089241027832,1.267739024298309,1.395827528321559,0.15065981447696686,0.9999119639396667,1.2785967638634932,1.385218290812183,-0.20368914306163788,0.999984860420227,1.1719885782282784,1.8641373679501305,0.11990156024694443,0.9999628067016602,1.1646293168291106,1.8981000121116622,-0.12010209262371063,0.9999788999557495,1.45093535064709,1.916440621149052,0.19285210967063904,0.2021874189376831,1.472585569858533,1.9448640483990705,-0.11475588381290436,0.963076114654541,1.4503920537851034,2.2923846898622813,0.21016116440296173,0.49320539832115173,1.4767456485819268,2.358421941220584,-0.055664945393800735,0.9557050466537476,1.3245350049945537,1.757343207619851,0.16094085574150085,0.059502214193344116,1.3355518758891363,1.7886133175402186,-0.22398214042186737,0.9491003155708313,0.003934085369110107,1.1683089475286945,1.8811186900308965,100.53699965988046,99.21089465264907,1.0,-0.03639827865865899,0.002979597555554114,-0.20174466577172648,-0.2303657544511892,179.32917747592523,1.2062904805671801,35,1.1666666666666667
1.4867632147163135,1.3206832504367216,-0.021349681541323662,0.9999004006385803,1.3051363626415495,1.4132791170263996,0.17840352654457092,0.9999114871025085,1.3443965114999066,1.413061234253027,-0.21113184094429016,0.999984085559845,1.1874235264416366,1.885624561620755,0.1294202208518982,0.9999639987945557,1.190435320506129,1.9192663777997794,-0.1296064555644989,0.999979555606842,1.4672004659013866,1.9403170430297323,0.19317516684532166,0.19085434079170227,1.4911558550951007,1.9705773641277573,-0.13660544157028198,0.9647372961044312,1.4676479473254158,2.3206832504367214,0.21516680717468262,0.4813497066497803,1.4949283675804428,2.388393861433553,-0.09723157435655594,0.9578040242195129,1.3256318254646708,1.7899510805171226,0.24327686429023743,0.05567415803670883,1.3524288030612286,1.815811438813058,-0.21161234378814697,0.9308663010597229,7.981061935424805e-05,1.188929423473883,1.902445469710267,101.12843908842896,100.20026269151595,1.0,0.0456509672853109,-0.013705268735005771,0.6058737054647074,-0.12280513326817302,160.89062374681595,1.213930049683089,36,1.2
1.519143790462182,1.3300097160683584,-0.005700135603547096,0.9998995065689087,1.3437844355738433,1.4175944621840135,0.20464472472667694,0.9999048113822937,1.3787035671477663,1.4180107717863928,-0.1822405904531479,0.9999831318855286,1.1925770805639926,1.8876000004573037,0.1308000236749649,0.9999659061431885,1.1974309500139395,1.913728205196047,-0.13098719716072083,0.9999806880950928,1.469407123842879,1.9539060832321957,0.19731344282627106,0.18136844038963318,1.4967088022940962,1.9774804106651693,-0.13644291460514069,0.9669346213340759,1.4746708516479343,2.3300097160683584,0.2206723988056183,0.46776822209358215,1.499654980763034,2.39703115233812,-0.11693066358566284,0.9606048464775085,1.3325670231511584,1.8170632060543077,0.14471419155597687,0.05072248354554176,1.364677412321425,1.8282299067737606,-0.12447305023670197,0.8876967430114746,0.0001519322395324707,1.195004015288966,1.9006641028266753,104.27150361016282,102.42774676617995,1.0,0.01279925834763222,-0.06742821439802289,-0.25238430470216233,-0.4102289124542648,151.64235091679276,1.1990191972222137,37,1.2333333333333334
1.5480021533749964,1.3433916970229303,-0.049994245171546936,0.999908447265625,1.3727422310755335,1.4270209141002945,0.1880316138267517,0.9998969435691833,1.41705116565178,1.4284750581768502,-0.17693132162094116,0.9999822378158569,1.1967109701808483,1.8868221580808846,0.1305023729801178,0.9999654293060303,1.2076716653382593,1.9042552973065976,-0.13070543110370636,0.9999807476997375,1.471095129159383,1.9797016072702276,0.19975167512893677,0.1819564402103424,1.5052332679190241,1.9888527118604395,-0.14756986498832703,0.969006359577179,1.4836093422966952,2.3433916970229305,0.21881639957427979,0.4684320390224457,1.4988978120083918,2.4154863962464588,-0.1589234620332718,0.9633658528327942,1.346984761710003,1.8316354768120031,0.12740987539291382,0.04684571549296379,1.3786135040921927,1.83942359850972,-0.12954065203666687,0.8549922704696655,0.0005276799201965332,1.2021913177595538,1.8955387276937412,110.67175013037685,105.0197944773177,1.0,0.0027459152921909297,-0.11836322505254712,-0.07506347475074736,-0.3747138913949945,126.89234459480146,1.1558248060839789,38,1.2666666666666666
1.5791594165635414,1.3563446335850586,-0.039449721574783325,0.9999083280563354,1.4126688743868043,1.4460841774183693,0.20663776993751526,0.9998478293418884,1.4452229472165006,1.443317421794748,-0.18815599381923676,0.9999800324440002,1.2022442121974242,1.887345251305802,0.13431651890277863,0.9999657273292542,1.2171288000112808,1.8942639545226914,-0.13446490466594696,0.9999814033508301,1.477963218609565,1.99156944361181,0.1973695605993271,0.1699874848127365,1.511895391701003,1.9920849942841659,-0.1667526215314865,0.9691735506057739,1.4902813503172592,2.3563446335850586,0.22132889926433563,0.44616982340812683,1.504921768978709,2.425902413646293,-0.17966406047344208,0.9646249413490295,1.3558892799681763,1.84506531339288,0.13824832439422607,0.04232907295227051,1.3904609436968693,1.8527479419822428,-0.16661004722118378,0.8093719482421875,0.0009999275207519531,1.2096865061043525,1.8908046029142467,112.6411221872246,107.43795445977622,1.0,0.01877338570415494,-0.08999094633450136,0.11572055439742224,0.20847828644990318,89.43497667031191,1.125572788973496,39,1.3
1.5869217043002448,1.344571595039367,-0.042161181569099426,0.9999147057533264,1.4151945938512813,1.4311874796744788,0.2263469249010086,0.9998283982276917,1.4504536297877804,1.4323527552445547,-0.1870741844177246,0.9999768137931824,1.1869363028308766,1.8564524527812483,0.13890062272548676,0.9999656677246094,1.2071292804162668,1.8557275770805677,-0.13905152678489685,0.9999814033508301,1.4606163903699227,1.9778964234251672,0.16481688618659973,0.1597171574831009,1.4978905449097075,1.9657741033797553,-0.16123829782009125,0.9683698415756226,1.4723237276305217,2.3445715950393673,0.177083358168602,0.4262877404689789,1.485509003187563,2.395768120589077,-0.1605200469493866,0.9649006724357605,1.3563603973146525,1.828838745543049,0.13391682505607605,0.03855867683887482,1.3836893028615076,1.8330778590472765,-0.13489188253879547,0.7526774406433105,0.00042629241943359375,1.1970327916235717,1.8560900149309079,115.75771955642543,109.08115648545157,1.0,0.01514480895548876,-0.09129147623266341,-0.026182621286102534,-0.01838228649713712,59.71971364005126,1.0970067392566536,40,1.3333333333333333
1.6119938267934082,1.3602851480263252,0.025197157636284828,0.9999092221260071,1.4245375227943127,1.4346573673205978,0.26957130432128906,0.9997996687889099,1.4904017467684694,1.4362681531398258,-0.16190090775489807,0.9999757409095764,1.1872275122087046,1.8611480047302724,0.1448565423488617,0.9999663829803467,1.2200885408687003,1.8515956816347103,-0.1450364589691162,0.9999822378158569,1.4653730537258256,1.9911992460750183,0.2111346423625946,0.15331825613975525,1.5136516388551444,1.9727861285917836,-0.16078290343284607,0.9708418250083923,1.4752439021098334,2.360285148026325,0.25137531757354736,0.42442598938941956,1.4886322708979869,2.40833355078233,-0.15720562636852264,0.9675644040107727,1.3614961003555883,1.8411087232166572,0.2739831805229187,0.034943755716085434,1.4089827894095495,1.839773763610228,-0.1571391224861145,0.7280027270317078,0.0005868673324584961,1.2036580265387025,1.8563718431824914,116.59112099815015,109.14444547239937,1.0,0.013395244815647446,-0.05714028717074753,-0.014127275809274368,0.26922959878712377,44.69880755980108,1.0766330981410603,41,1.3666666666666667
1.611821682304514,1.342858145179621,0.015346033498644829,0.9999167323112488,1.436487512840236,1.413059679897,0.28885990381240845,0.999785304069519,1.496206694414833,1.4181794461165986,-0.13487279415130615,0.9999747276306152,1.1734282209390339,1.8220284290987796,0.14450961351394653,0.9999653100967407,1.2093090215166302,1.8086123427283283,-0.14470292627811432,0.9999819397926331,1.453619467301169,1.9681937211286669,0.15331098437309265,0.15213976800441742,1.4983600710937635,1.9504915745095814,-0.16419345140457153,0.9724634289741516,1.463870962944138,2.342858145179621,0.16217659413814545,0.4158753454685211,1.4686808175200796,2.3837066661234725,-0.16203662753105164,0.9691206812858582,1.3457127434309886,1.8166603455684576,0.3706292510032654,0.03212607279419899,1.4013768030892226,1.8175197562610397,-0.0649690330028534,0.6917505264282227,0.0018876194953918457,1.191368621227832,1.8153203859135538,119.1166894886988,112.22470859752862,1.0,0.014866074942293863,-0.14701711380583463,0.012528766144651223,-0.6963961143660309,36.748698849867594,1.0316429045826234,42,1.4
1.6208050857211282,1.3280287561206892,0.0038663744926452637,0.9999223351478577,1.4344939186309964,1.3869748093604486,0.2741062045097351,0.9997668266296387,1.5009155719250702,1.4058265038723026,-0.1507241427898407,0.999970555305481,1.1644217355836621,1.788985113524743,0.14508941769599915,0.999962568283081,1.208423085261237,1.778595772288187,-0.14528772234916687,0.9999801516532898,1.4416672287649752,1.9531698454696174,0.16261687874794006,0.15065248310565948,1.488916530847407,1.9357222070324234,-0.1527784764766693,0.9737074971199036,1.446315387439192,2.328028756120689,0.18262560665607452,0.4139532744884491,1.4577999982836285,2.3669530146501936,-0.15039828419685364,0.9708108901977539,1.3511619955562018,1.800533246156631,0.361217200756073,0.029719308018684387,1.4128191939742847,1.804406150288539,-0.0630510151386261,0.650114893913269,0.007004916667938232,1.1864224104224497,1.783790442906465,121.34442703052372,115.12945065692729,1.0,0.03297007161876447,-0.1332017260870621,0.1392963097262155,0.09688959740259653,42.82159978186593,1.0103544347064712,43,1.4333333333333333
1.6202361031875807,1.3160949640690418,0.028845006600022316,0.9999276399612427,1.4338619467653233,1.3617581905984846,0.28974246978759766,0.9997433423995972,1.5025905969582547,1.3872100544354493,-0.13040192425251007,0.9999685883522034,1.1546350904172875,1.752255741671071,0.1430533081293106,0.9999619722366333,1.202661066029138,1.738196907628913,-0.14324739575386047,0.9999798536300659,1.4270055224092282,1.9420682863104926,0.13632915914058685,0.1574832648038864,1.4778171887292735,1.919138331167745,-0.14823728799819946,0.9748662114143372,1.4354629239194796,2.316094964069042,0.1400899589061737,0.41919293999671936,1.4415698193943858,2.3458980386320607,-0.1393493115901947,0.9724814295768738,1.3433584808700005,1.7831975786114922,0.4034813344478607,0.02758331410586834,1.4029972251213334,1.7847851997143076,-0.08748041093349457,0.622473418712616,0.009541153907775879,1.1786480782232127,1.745226324649992,126.16763705472792,118.47390265630125,1.0,0.02030424425504299,-0.17623597156781023,-0.09521710726975387,-0.34007503269169215,38.11663706504263,0.9608720943998466,44,1.4666666666666666
1.6125222653759386,1.3061743893590623,0.0027223846409469843,0.9999313354492188,1.4425654151296374,1.3513141277500587,0.26600953936576843,0.999689519405365,1.4992185967552685,1.380653582650066,-0.14335201680660248,0.9999618530273438,1.1598562652340743,1.739493892897152,0.14254386723041534,0.9999600052833557,1.1977628225779928,1.7278931911836442,-0.14272408187389374,0.9999788403511047,1.4291095395074453,1.9342999924312583,0.13554659485816956,0.15694008767604828,1.475548327605262,1.9141240251282228,-0.14965304732322693,0.9750228524208069,1.4324684757940938,2.3061743893590623,0.16008779406547546,0.411123126745224,1.4353281128828308,2.3384944227090787,-0.1378641426563263,0.97304767370224,1.3567574400533853,1.7656503550373939,0.25933265686035156,0.02533799409866333,1.4030323312081416,1.7795414927540194,-0.06169088929891586,0.5770158171653748,0.011032700538635254,1.1788095439060335,1.733693542040398,126.40343473335469,118.42428404943081,1.0,0.027893341642806123,-0.04475739208734757,0.055940848509135215,0.9571899093423052,36.91845771023922,0.949278289693179,45,1.5
1.5949209405921372,1.2755011817444064,0.006405965890735388,0.9999350309371948,1.4254752545432372,1.3157442450559207,0.26353996992111206,0.9996696710586548,1.486768611312229,1.3503381708638886,-0.1485065519809723,0.9999590516090393,1.1435063748413097,1.7061224993650044,0.14154216647148132,0.9999594688415527,1.1900953325646975,1.6976751617412797,-0.1417224109172821,0.9999785423278809,1.4077345954649547,1.905593267256277,0.14004109799861908,0.1686955690383911,1.458697855249729,1.887012249655235,-0.13779495656490326,0.9768183827400208,1.4108639855979612,2.2755011817444064,0.19388967752456665,0.4311004877090454,1.4201799645433706,2.3085881500229037,-0.09690924733877182,0.9751043319702148,1.3318640341162433,1.7399707593361167,0.2727851867675781,0.023967517539858818,1.3869614265593764,1.7449740020918334,-0.06934274733066559,0.5653917193412781,0.013195812702178955,1.1668008537030037,1.701898830553142,127.53453559393343,119.95947338637862,1.0,0.03636194044733296,-0.05545142476212915,0.06832022927940817,-0.0873165234831819,43.88253834098847,0.9435005122653455,46,1.5333333333333334
1.5605955171041044,1.21604339946215,0.03134121373295784,0.9999368786811829,1.4000287726194274,1.2706375418744371,0.26713651418685913,0.9996611475944519,1.4557220595410538,1.2977666205645066,-0.13730284571647644,0.9999584555625916,1.1175246565363703,1.6404054351325863,0.13945642113685608,0.9999603629112244,1.1646543593943743,1.6325066660374241,-0.13962391018867493,0.9999790191650391,1.3714867908557875,1.8560499760608762,0.14937421679496765,0.1791251301765442,1.4226600362778583,1.8382713897403538,-0.1313479244709015,0.9785681366920471,1.3751616176301562,2.21604339946215,0.19271600246429443,0.4475008547306061,1.3845067817368462,2.2489837860961264,-0.09327332675457001,0.9770798683166504,1.2957190452666376,1.69390941496435,0.2610554099082947,0.02282971329987049,1.3540467775808012,1.6932905752925407,-0.046470556408166885,0.5654258728027344,0.010621786117553711,1.1410895079653725,1.6364560505850052,130.92013748093893,123.26578829862223,1.0,0.03394910133984677,-0.16980047629256115,-0.01159223200408213,-0.9087983611187704,43.10588589256056,0.9249594985046532,47,1.5666666666666667
1.5281005515987394,1.157289883427836,0.04257825389504433,0.9999401569366455,1.378663880567365,1.2253530094801748,0.2648177146911621,0.99967360496521,1.4199983173699677,1.246753987999957,-0.1405402421951294,0.9999591708183289,1.1008478009248535,1.5844588732234632,0.13821637630462646,0.9999620318412781,1.1461548012217229,1.5755401928056818,-0.13835936784744263,0.9999797940254211,1.3355082005976673,1.802991745847258,0.14907851815223694,0.1907813847064972,1.3876292595278925,1.789561837950868,-0.13175685703754425,0.9802701473236084,1.3379068749520506,2.1572898834278362,0.1878535896539688,0.46700480580329895,1.3497173070358768,2.189424855558813,-0.09713675826787949,0.9789510369300842,1.2733075206520599,1.6496051193462797,0.23468723893165588,0.023100683465600014,1.3258162516117482,1.643468041333399,-0.05473854020237923,0.5739107728004456,0.00860440731048584,1.1235013010732882,1.5799995330145726,133.34980704664258,126.1347906827503,1.0,0.09708224372169633,-0.10740051538315039,0.5055445046745951,0.4576216827066941,41.13700318900825,0.9244723650521978,48,1.6
1.4599618066547406,1.0473339049056927,-0.04612033814191818,0.999944269657135,1.32724577334627,1.1293139062541568,0.23934701085090637,0.9996719360351562,1.3527596148797805,1.1410595493286606,-0.16785013675689697,0.9999553561210632,1.068756396583009,1.4657587946814212,0.13702288269996643,0.9999608397483826,1.1010642168724387,1.4700063158229593,-0.13713127374649048,0.9999789595603943,1.2752008303611055,1.7108275051204336,0.14585259556770325,0.20478135347366333,1.3205166841464961,1.703136614755491,-0.14553657174110413,0.9813876748085022,1.2711703584507528,2.0473339049056927,0.20260512828826904,0.47548407316207886,1.2806971587523694,2.081652879160867,-0.0874265506863594,0.9801589846611023,1.2257914449665481,1.5504930128305374,0.18074741959571838,0.023421911522746086,1.2669369131348427,1.5468632796758168,-0.08203519880771637,0.5715954899787903,0.004973739385604858,1.084910306727724,1.4678825552521901,139.20318970346094,130.72568119243846,1.0,0.1373455939047248,-0.2438626214349092,0.3412429642904131,-1.0719455899881214,59.954801551324714,0.899505084435352,49,1.6333333333333333
1.4138226658805377,0.9788233817804294,-0.04696699231863022,0.9999421238899231,1.2884665533203872,1.074868701782237,0.22575707733631134,0.9996495842933655,1.308158291726756,1.0767784940406098,-0.1719352751970291,0.9999533891677856,1.0479852317746314,1.407353299046356,0.13314734399318695,0.999958336353302,1.0682848726269825,1.4068328425472099,-0.13322746753692627,0.9999781847000122,1.2525784645335571,1.6516035068750887,0.1376619040966034,0.19832782447338104,1.282772427129285,1.6474704779761429,-0.15808236598968506,0.9814354777336121,1.2312201492882648,1.9788233817804295,0.20177438855171204,0.4593236744403839,1.2378997947027763,2.012525662152959,-0.09490892291069031,0.9805678129196167,1.1848420855497648,1.4801765142371528,0.1679534912109375,0.02246120199561119,1.2260713863796098,1.4842869500976945,-0.18413659930229187,0.5814060568809509,0.0008363723754882812,1.0581350522008068,1.407093070796783,136.31466629096494,131.2807698544204,1.0,0.0660178315748988,-0.08870739969354743,-0.4840572742261527,1.0661027542129065,52.6536580989137,0.9060240995634544,50,1.6666666666666667
1.3768631677059833,0.9240371536541873,-0.05564577132463455,0.99993896484375,1.256992915127107,1.0257263073160612,0.22316446900367737,0.9996405243873596,1.2731757590383832,1.0313196454588303,-0.18095239996910095,0.999949038028717,1.0300898532234122,1.359012328204969,0.1328626275062561,0.9999571442604065,1.0546547526775099,1.3574864024763624,-0.13294222950935364,0.9999775886535645,1.2172244863501942,1.607545261410201,0.146388441324234,0.19221331179141998,1.2501014666393924,1.6071683521890654,-0.15108492970466614,0.9811581969261169,1.1972387556243993,1.9240371536541871,0.21474263072013855,0.4521259069442749,1.206816941327334,1.9625118455053874,-0.09508676081895828,0.981180727481842,1.160650067685289,1.4276136497594918,0.17377102375030518,0.02278118021786213,1.198159691692498,1.4339156143457958,-0.20106129348278046,0.5897252559661865,0.0025156140327453613,1.042372302950461,1.3582493653406658,139.40852373660087,135.0017686977219,1.0,0.09279959562598401,-0.09169135764362676,0.21997905005013457,-0.04099294766043641,52.19819863674015,0.9038430468149299,51,1.7
1.339066157402899,0.8697506647891301,-0.04134554788470268,0.9999145269393921,1.227050927922483,0.9802629375616034,0.22359386086463928,0.999647855758667,1.2341957687414888,0.9718039112941246,-0.2010868489742279,0.9999479055404663,1.013223842138537,1.3138568538071898,0.13416481018066406,0.9999586939811707,1.032121320087529,1.3073337795316566,-0.1342160552740097,0.9999783039093018,1.1859016271812064,1.5614009596870635,0.1473054587841034,0.1894957423210144,1.2165547048933942,1.5619978658736084,-0.1495637595653534,0.9818894267082214,1.1568630557577875,1.86975066478913,0.21662919223308563,0.4574008285999298,1.1738963933676174,1.9071759355866864,-0.08593855798244476,0.9823588728904724,1.1469472512173846,1.377938867738264,0.17679202556610107,0.024663425981998444,1.1696921592237592,1.382447351431673,-0.22445695102214813,0.6118313074111938,0.00391426682472229,1.022672581113033,1.3105953166694233,139.72185665294273,137.0420184898272,1.0,0.07445493477338083,-0.07453861487382173,-0.12283770067819792,0.11377920032694638,38.29716760284746,0.9116325383474218,52,1.7333333333333334
1.304884872374903,0.8244278302471426,-0.035848405212163925,0.9998727440834045,1.1994296006279077,0.9398533828876285,0.22453732788562775,0.99964439868927,1.2030715807275059,0.9315019066922156,-0.19334805011749268,0.9999435544013977,1.0041387568106155,1.2656358612859933,0.1340618133544922,0.9999591112136841,1.0171459095265873,1.2626249865215011,-0.13410326838493347,0.9999784231185913,1.1605649431372582,1.5235664589608744,0.14819639921188354,0.17887383699417114,1.1883535949871127,1.5272231686284374,-0.14705616235733032,0.9813238978385925,1.1289881485518474,1.8244278302471426,0.2274068295955658,0.44029369950294495,1.1477437984269954,1.8639133956796918,-0.08129557222127914,0.9824564456939697,1.1402660877568775,1.346956798869575,0.16817735135555267,0.02449767291545868,1.1508245442190128,1.3451981891695752,-0.20814141631126404,0.6148509979248047,0.003954023122787476,1.0106423331686014,1.2641304239037472,142.77308287179392,140.2177085550947,1.0,0.08383565050091264,-0.12654820009887227,0.083400988108737,-0.4046825907186057,46.026162496616514,0.8907862208263401,53,1.7666666666666666
1.3011425980511844,0.7993768013029935,-0.11377626657485962,0.9998847246170044,1.2009681479646765,0.9232079891835787,0.20867034792900085,0.9996606707572937,1.2016962973033625,0.9131740736809875,-0.1968066394329071,0.9999425411224365,1.0180736933182704,1.2456018024684476,0.1341114342212677,0.9999595880508423,1.0244310019992966,1.24553448608756,-0.13414865732192993,0.9999785423278809,1.1632932456945355,1.5132643153788803,0.1812516301870346,0.17831306159496307,1.1881976642977383,1.525384787038967,-0.14405879378318787,0.9821312427520752,1.1314106978060081,1.7993768013029934,0.2855888903141022,0.44336622953414917,1.1472642717176014,1.8625729163802838,-0.07906152307987213,0.9835461378097534,1.1483482541874093,1.3340572885049855,0.15349319577217102,0.028456002473831177,1.1586345746620765,1.3387859182435633,-0.1926153600215912,0.6140387058258057,0.004753172397613525,1.0212523476587834,1.2455681442780038,145.1596348420522,142.74246664406752,1.0,0.08359250025127679,-0.13384741572213824,-0.0014782113744928943,-0.05518251442058604,59.827026303326235,0.8819690139893549,54,1.8
1.264069742197735,0.7536316408349305,-0.1117238774895668,0.9998959302902222,1.1618444174270761,0.8740780772014567,0.2095406949520111,0.9996791481971741,1.1684813187305667,0.8673137692375792,-0.19282272458076477,0.9999433159828186,0.9898130997556804,1.2033442136131538,0.13391542434692383,0.9999598860740662,1.0075056665658106,1.2041414695149106,-0.13396434485912323,0.9999788403511047,1.1304171554874312,1.4716741504559394,0.17396128177642822,0.1879911720752716,1.1567300287763953,1.4839328629960242,-0.13680261373519897,0.9832068085670471,1.1014733744569298,1.7536316408349306,0.261410653591156,0.4602203667163849,1.1168458053698878,1.8126523323867731,-0.07742489129304886,0.9847883582115173,1.1150182759068679,1.290264086272615,0.16093459725379944,0.03258875384926796,1.1364044726166291,1.2957072465553365,-0.20939800143241882,0.6212758421897888,0.0032927095890045166,0.9986593831607455,1.203742841564032,146.48454705156252,145.0091469143644,1.0,0.03524954106468969,-0.06136276643058531,-0.3371209617466924,0.5038031644341076,64.99442771452054,0.8858864724950039,55,1.8333333333333333
1.2601103320130507,0.7493569157856383,-0.13259875774383545,0.9999055862426758,1.1558487480831774,0.8628713504783772,0.18075691163539886,0.9996976256370544,1.1659416565194565,0.8618803597350151,-0.22940918803215027,0.9999451041221619,0.9922489057963246,1.1965165062811918,0.1347421109676361,0.9999608397483826,1.0067545450186437,1.1998358121845316,-0.13476449251174927,0.9999796152114868,1.1308468774537694,1.4678598380905348,0.1789933145046234,0.20876076817512512,1.1542443741393196,1.482358330744993,-0.15053170919418335,0.984667181968689,1.1002930398231805,1.7493569157856383,0.2787427008152008,0.49014773964881897,1.1140425477331177,1.8099956051661745,-0.09178642183542252,0.9861770868301392,1.11185655311259,1.277796804751185,0.12312183529138565,0.03744998946785927,1.1359542912849436,1.2876976720818716,-0.2518969178199768,0.6436533331871033,0.00048351287841796875,0.9995017254074842,1.1981761592328617,146.74809571092274,145.43800420105825,1.0,0.023473926725050002,-0.020623698059681127,-0.08691008015167338,0.3017195597448386,76.7684079180989,0.877591325062929,56,1.8666666666666667
1.237876635459249,0.7208499179219355,-0.13479335606098175,0.9999141693115234,1.1371801592949122,0.8345965631510531,0.1723102629184723,0.99972003698349,1.1455525481847986,0.8300027854723357,-0.23885449767112732,0.999948263168335,0.9837239909748055,1.1706710358372423,0.13507866859436035,0.9999622702598572,0.9966752664647445,1.1725618425596276,-0.1350870430469513,0.999980628490448,1.1103562828673277,1.4427599845733228,0.19115790724754333,0.21786239743232727,1.1343712695371102,1.457726719524792,-0.15609584748744965,0.9859917759895325,1.0871506983765782,1.7208499179219356,0.30354204773902893,0.5098291039466858,1.093682958247277,1.779188600735175,-0.10435096174478531,0.9874157905578613,1.1048244873220778,1.2478279590449703,0.12755335867404938,0.04612945765256882,1.1212597948621816,1.2575476302859803,-0.27998441457748413,0.6702996492385864,0.0022800564765930176,0.990199628719775,1.171616439198435,150.27229753272061,147.01202736978846,1.0,0.059720223291432034,-0.048408772550440855,0.285384247752149,-0.21911273237723555,73.76406791812344,0.8761654648343553,57,1.9
1.196588311478309,0.6776632482895644,-0.16936272382736206,0.9999225735664368,1.1020609659657419,0.7907315488487557,0.17640039324760437,0.9997393488883972,1.1106165650443016,0.7876851779442909,-0.24814645946025848,0.9999517798423767,0.9606303274879292,1.1275510961653878,0.13752765953540802,0.9999620318412781,0.9741968884823982,1.126557358644972,-0.13760490715503693,0.9999811053276062,1.0678959835267596,1.399401137179042,0.18577353656291962,0.2220444232225418,1.099827414822644,1.4139405896824238,-0.1499772071838379,0.9869404435157776,1.0439992339381918,1.6776632482895644,0.279991090297699,0.5206409692764282,1.0606775570966724,1.7234579759838808,-0.1026427373290062,0.9883384704589844,1.078360448384897,1.1955322688397139,0.1367304027080536,0.050958868116140366,1.0945128464710467,1.2077617736438753,-0.3141865134239197,0.6979049444198608,0.0015591681003570557,0.9674136079851637,1.1270542274051798,153.55853366128338,149.17842110974792,1.0,0.05349692608768497,-0.06830658328517425,-0.033029359206966535,-0.15971835288180786,63.033070152128296,0.8701042878839922,58,1.9333333333333333
1.1676016837479615,0.6419370501396008,-0.14185796678066254,0.9999295473098755,1.0790413224081352,0.7626978674233477,0.17887960374355316,0.9997587203979492,1.0826083862943598,0.7501085214837246,-0.2323855459690094,0.9999560117721558,0.9527569238300427,1.0969510956030726,0.1384282410144806,0.999963104724884,0.9596748624626095,1.0926283373985013,-0.13849803805351257,0.9999822378158569,1.0458406359307717,1.367742622218301,0.1849830448627472,0.21861495077610016,1.0749884875583093,1.38252408505261,-0.15408051013946533,0.9878915548324585,1.02197934306507,1.641937050139601,0.2692418694496155,0.5188473463058472,1.0370638577637117,1.6845290429446804,-0.1213117390871048,0.9891980290412903,1.0668263513955811,1.1547577264279554,0.14600197970867157,0.05878235399723053,1.0753115759095397,1.1601722454811176,-0.3173184096813202,0.7272814512252808,0.006591349840164185,0.9562158931463262,1.094789716500787,156.05622199344253,151.15099628882535,1.0,0.08569806944734201,-0.05671073037691476,0.2720813635302373,0.08196426729775004,37.30320128577956,0.8719485164550899,59,1.9666666666666666
1.1376057901539374,0.6109282125219399,-0.10510800033807755,0.9999357461929321,1.0554251524546414,0.7302935381693544,0.18693582713603973,0.999777615070343,1.055793047966968,0.7184566504717993,-0.23114991188049316,0.9999598860740662,0.9385798887834709,1.0685890599885275,0.13858672976493835,0.9999646544456482,0.9500889350076701,1.065493590267459,-0.13865995407104492,0.9999834299087524,1.0149907393836324,1.3406489055136361,0.18867680430412292,0.22931519150733948,1.0511758590129026,1.3530240994400846,-0.15357407927513123,0.9889101386070251,1.0005440998590087,1.61092821252194,0.274806946516037,0.5381634831428528,1.0162653380090156,1.6487870227587718,-0.131748229265213,0.9901289343833923,1.0490221884334743,1.1168435367237322,0.16873033344745636,0.06794203817844391,1.0582534466946198,1.1210218581965576,-0.3259581923484802,0.7539049386978149,0.006332427263259888,0.9443344118955704,1.0670413251279933,161.25245522276322,153.89809958027996,1.0,0.06492105433610279,-0.033583153070817336,-0.1445655919484473,0.1672138954416976,55.891385428558635,0.8745144670028951,60,2.0
1.0960860495352083,0.5631986896845131,-0.10220323503017426,0.9999417662620544,1.0248275772478828,0.6903630539530845,0.19159813225269318,0.9997962713241577,1.0197134063764213,0.6746532329739636,-0.22803553938865662,0.9999634623527527,0.9240831093362144,1.0240583189986003,0.1385197937488556,0.9999657869338989,0.9357561107099671,1.0230961507858753,-0.13858970999717712,0.9999844431877136,0.9867840436829565,1.296924590824111,0.18644797801971436,0.22708460688591003,1.0178742664387543,1.3137166345330487,-0.1529691368341446,0.9895844459533691,0.9750452234215645,1.5631986896845131,0.28631725907325745,0.5423757433891296,0.9877400413749652,1.6019613595497468,-0.13512897491455078,0.9908949732780457,1.0134109231207247,1.0659968584471722,0.18970851600170135,0.07574375718832016,1.038013330489842,1.0731323619995519,-0.36554819345474243,0.7774367332458496,0.008649766445159912,0.9299196100230908,1.0235772348922378,164.53458710347974,158.25350801024734,1.0,0.09649606844228684,-0.10280990089529442,0.26049306626968255,-0.5470654807914551,68.48858502101858,0.8718828144647277,61,2.033333333333333
1.0805703987432456,0.5515957092865654,-0.060857344418764114,0.9999470114707947,1.0165194712123673,0.673610301424375,0.22430403530597687,0.9998117089271545,1.005807241847716,0.6534146271646115,-0.18965019285678864,0.9999666213989258,0.9336267879740454,1.0032852261707246,0.13438817858695984,0.9999664425849915,0.9327591200592781,0.9976823341878076,-0.13449470698833466,0.9999851584434509,0.9959102637176627,1.2799320860275873,0.13513584434986115,0.2130366712808609,1.0075149729911776,1.3014655671551927,-0.15215402841567993,0.9874585866928101,0.9794194175980518,1.5515957092865655,0.22478148341178894,0.5053855180740356,0.9793000837216831,1.5891481790010293,-0.13543429970741272,0.9894779324531555,1.0298625238298527,1.0427723869573335,0.19594042003154755,0.0813307836651802,1.0357240620542603,1.0480785017121619,-0.323632150888443,0.7981890439987183,0.011206984519958496,0.9331929540166617,1.000483780179266,163.8383657436154,160.57373046294327,1.0,0.08478301388926185,-0.12184585068964454,-0.08834457960057733,-0.15988230083579238,22.916682451141547,0.8263342083299801,62,2.066666666666667
1.0599596577752335,0.5324328300472675,-0.13523851335048676,0.9999521970748901,1.003217280227208,0.6567516161444844,0.1852809637784958,0.999825656414032,0.9882213728936186,0.6376899308526588,-0.2168298065662384,0.9999696016311646,0.930992245412761,0.986140196072504,0.12796661257743835,0.9999669790267944,0.9296886592993368,0.9812740756391788,-0.12811283767223358,0.9999858140945435,0.982874972727048,1.2638008561665086,0.13564875721931458,0.23940476775169373,0.986956820115405,1.2842146540686576,-0.10980155318975449,0.9881179928779602,0.9660935024452582,1.5324328300472674,0.21396608650684357,0.5331034064292908,0.9670481220563907,1.568270947350713,-0.07266699522733688,0.9901748299598694,1.015649927836061,1.0134031775468375,0.16622526943683624,0.09627462923526764,1.026595384159615,1.0278424355782911,-0.33310407400131226,0.8180934190750122,0.010711580514907837,0.9303404523560489,0.9837071358558414,165.84133215729764,165.28593742757016,1.0,0.06586304234278559,-0.031943904609613626,-0.13352040248980496,0.6607036055540085,27.36436543184115,0.8269067702001692,63,2.1
1.0402884521598057,0.5174120065838689,-0.15203621983528137,0.9999569654464722,0.9829290615110036,0.6361373536916566,0.1882522702217102,0.9998401403427124,0.9745418416585201,0.6243868045022039,-0.21756863594055176,0.9999725222587585,0.9211079101234911,0.9706947069402448,0.12786538898944855,0.9999668002128601,0.9317354596691834,0.9719489471930836,-0.12804727256298065,0.9999864101409912,0.9727257866063393,1.2491976736604613,0.13492046296596527,0.28046494722366333,0.9731391420286921,1.270637664521915,-0.11333803087472916,0.9890128374099731,0.9556062365957404,1.517412006583869,0.1997290849685669,0.569438099861145,0.9543513663879781,1.552419336634367,-0.0834699422121048,0.9909949898719788,0.998951964992145,0.9935508364698964,0.1608961820602417,0.11628718674182892,1.0231448588696235,1.0079596904443502,-0.32940012216567993,0.8362209796905518,0.006670832633972168,0.9264216848963372,0.9713218270666643,165.84780645112792,168.29350888087467,1.0,0.04544020544445872,-0.019773120294792366,-0.16255604442201102,0.09748376253786475,86.26148715242519,0.8292728281632167,64,2.1333333333333333
1.0316970137243215,0.5087550033192434,-0.14386513829231262,0.999961256980896,0.9680354643875833,0.6295514130586469,0.19014249742031097,0.9998526573181152,0.9665535558943633,0.6142720423193752,-0.22047844529151917,0.9999751448631287,0.9249413817703762,0.9656015786295503,0.12855705618858337,0.9999672174453735,0.9332179706054586,0.9671572538836452,-0.1287119835615158,0.9999871253967285,0.9658537628742953,1.2421497220052142,0.13832078874111176,0.32641205191612244,0.9672019104234676,1.26290770938296,-0.11397576332092285,0.9899716377258301,0.9492721010093369,1.5087550033192434,0.2163226306438446,0.6059030294418335,0.9483947252070778,1.542551552610334,-0.08240224421024323,0.9918206334114075,0.9899694420932231,0.9752757710882815,0.16186115145683289,0.14314106106758118,1.0211986576953627,0.9933871281175781,-0.33724245429039,0.8525611758232117,0.008728593587875366,0.9290796761879174,0.9663794162565977,168.0257737030955,169.5974553647697,1.0,0.059562889714631535,0.007874087525062082,0.1017203789562195,0.19434455358028935,93.33760597145937,0.8380420105800462,65,2.1666666666666665
1.0307501319424148,0.5105715366121786,-0.17823225259780884,0.9999651312828064,0.9646342083972322,0.6276560496602933,0.17656151950359344,0.9998638033866882,0.9674673001713711,0.6138339388595934,-0.23924262821674347,0.9999775290489197,0.9294898271901788,0.9645338997705754,0.1305864155292511,0.9999668598175049,0.9366311744792284,0.9645871887284868,-0.13078446686267853,0.9999876618385315,0.967275877875501,1.2430914784373546,0.16288764774799347,0.34173187613487244,0.9664959783032441,1.2642191919032548,-0.11823896318674088,0.9904419779777527,0.9518455899155558,1.5105715366121786,0.2596392035484314,0.6235312819480896,0.9514493708402614,1.5444428341659124,-0.08021925389766693,0.9922710061073303,0.9912989580545895,0.9781768133892791,0.1569812297821045,0.1522420346736908,1.026316908596794,0.9973270885640538,-0.3552214503288269,0.8672532439231873,0.007884740829467773,0.9330605008347036,0.9645605442495311,168.97343927355675,171.23449149309664,1.0,0.02068908772517633,-0.02516248141371164,-0.3051796741877198,-0.2588715557029007,84.47176499619275,0.8244585629419372,66,2.2
1.0225911519310054,0.5041643444456538,-0.2158282995223999,0.9999685883522034,0.9586309316874647,0.6243524845212279,0.14976991713047028,0.9998725056648254,0.9613702207339437,0.6123664697998765,-0.2539231479167938,0.9999796152114868,0.9304776303095568,0.9625877518718137,0.13071496784687042,0.9999639391899109,0.9398202524229322,0.9626092817663583,-0.1309148669242859,0.9999875426292419,0.9627805848403436,1.237612912985891,0.16581395268440247,0.36433255672454834,0.961856983567126,1.2581653295163362,-0.10626067221164703,0.9907362461090088,0.9474587885835603,1.5041643444456538,0.26530516147613525,0.6440369486808777,0.9479900673339651,1.5339240671822159,-0.05893837660551071,0.9926702976226807,1.0086271951586652,0.9638098594123888,0.1155506819486618,0.16704300045967102,1.0247264598295591,0.9943726368145491,-0.38282138109207153,0.8804907202720642,0.006868839263916016,0.9351489413662445,0.962598516819086,170.01121168827743,172.8571286916806,1.0,0.049447046805604626,0.019106404487074426,0.2241163081909004,0.3429658855890561,85.37394177998895,0.8384977891844014,67,2.2333333333333334
1.0166028395243898,0.5008907367733787,-0.24309119582176208,0.9999716877937317,0.9531370142843713,0.6214387391218357,0.12781359255313873,0.9998815655708313,0.9554174000406352,0.6105810687720596,-0.28805842995643616,0.9999815225601196,0.9323433329535458,0.9620605696855213,0.13203710317611694,0.9999629259109497,0.9400003071506116,0.9623267322931305,-0.1322368085384369,0.999987781047821,0.9600733259824721,1.2349057784369064,0.18092307448387146,0.3777410387992859,0.9574665927014788,1.2556637638858537,-0.107399120926857,0.990800678730011,0.9450349830019116,1.5008907367733786,0.2877320349216461,0.6584077477455139,0.9458298389762919,1.530382798901646,-0.05366729944944382,0.9928092956542969,1.0162143355076692,0.9585586376459146,0.11112602800130844,0.17858578264713287,1.0275162328060512,0.9891032094540958,-0.4114137291908264,0.892403244972229,0.006236732006072998,0.9361718200520787,0.9621936509893259,170.96083965333005,174.16691013051715,1.0,0.02385244157959182,0.01368379151224406,-0.18996955983370917,-0.040098242392783374,88.49748937840211,0.8459681158656175,68,2.2666666666666666
1.013803400487416,0.5001993426418057,-0.24759438633918762,0.9999744892120361,0.9517875359494385,0.6221472427106487,0.12561915814876556,0.9998877048492432,0.9536332857659592,0.6119799890935326,-0.2886260151863098,0.9999831914901733,0.9381655637481567,0.9647497406053225,0.13282501697540283,0.9999590516090393,0.9449764459974604,0.96462740373007,-0.13303884863853455,0.9999872446060181,0.960632035084305,1.2362873396184855,0.19152729213237762,0.3849356174468994,0.9580930775917996,1.2563667879684903,-0.10941296815872192,0.9903393387794495,0.945364746147349,1.5001993426418057,0.2982098460197449,0.6646134257316589,0.9469127541800423,1.5317536367959412,-0.05482142046093941,0.9923757910728455,1.0207181340739457,0.9540987474594068,0.12166527658700943,0.1840783655643463,1.0318468433711017,0.9856791082991861,-0.42566174268722534,0.9031146764755249,0.005835413932800293,0.9415710048728086,0.9646885721676962,171.95936988712683,175.10085742708162,1.0,0.0358770299156505,0.013253655824922429,0.0928419278944822,-0.003412344995076098,86.69406841040546,0.8526478596263284,69,2.3
1.011419058306336,0.5021160014324629,-0.25581806898117065,0.9999770522117615,0.9427565764135306,0.6205812597877606,0.11639972031116486,0.9998947978019714,0.9540108702940135,0.615016640167488,-0.30232763290405273,0.9999847412109375,0.9392742776743164,0.9673417157018419,0.1348981261253357,0.9999552965164185,0.9546505928660642,0.9668396260003461,-0.13512249290943146,0.9999869465827942,0.9608692285022706,1.2385027955377428,0.20820601284503937,0.39995115995407104,0.9588667949784793,1.2580854373715864,-0.0927734524011612,0.9903364181518555,0.9462885643612987,1.502116001432463,0.3236835300922394,0.6783584952354431,0.9477404664028704,1.5346202283936403,-0.01815386302769184,0.9923191070556641,1.0254232028853005,0.9388660569170133,0.114434614777565,0.19445200264453888,1.0376426940490935,0.9900727614257893,-0.42273861169815063,0.9127805829048157,0.003190666437149048,0.9469624352701903,0.967090670851094,172.28079021554706,176.86657626517422,1.0,0.03577902038831464,0.011703363521588206,-0.0010623314404730826,-0.012495666311739697,87.5543933969537,0.8515123259414291,70,2.3333333333333335
1.0094168838300217,0.5050750060173612,-0.2320818156003952,0.9999793171882629,0.944463141969089,0.6217038666365191,0.13189998269081116,0.9999005794525146,0.9542273135060846,0.6172565417313121,-0.283470094203949,0.9999861717224121,0.9446241259196664,0.9711551145486771,0.13502347469329834,0.9999502301216125,0.9592529302725891,0.972204271440822,-0.13525739312171936,0.9999864101409912,0.9602276906982535,1.2434177361592875,0.21109800040721893,0.4058964252471924,0.9596343945075819,1.2622148265697497,-0.07270672917366028,0.9899502396583557,0.9447791706565332,1.5050750060173612,0.32246133685112,0.6906099319458008,0.947722832525635,1.5378617580280978,0.012067733332514763,0.9921507239341736,1.033023591182039,0.9408643952473786,0.1432277113199234,0.20102885365486145,1.042787971112498,0.9939406474576519,-0.3968091309070587,0.9214892387390137,0.0025440454483032227,0.9519385280961278,0.9716796929947495,173.341045517617,177.4502467121098,1.0,0.020978046705536022,0.017663819799293542,-0.11356589400715994,0.045265378314674046,94.12854245863421,0.8550647418736252,71,2.3666666666666667
1.0088463861384898,0.5084012475158696,-0.21575923264026642,0.9999813437461853,0.9477297825827271,0.6252130149636747,0.13993076980113983,0.9999051094055176,0.952503928246536,0.6185748317390625,-0.26250866055488586,0.9999874234199524,0.9516179321843891,0.9735746584033568,0.1326819509267807,0.999946653842926,0.9618244815174016,0.9751509691345495,-0.13292039930820465,0.999985933303833,0.9619807969098629,1.247025204264643,0.2010214775800705,0.4046635925769806,0.9603402684322684,1.2648982039079475,-0.07647177577018738,0.989152729511261,0.9464450099782892,1.5084012475158697,0.3056652545928955,0.6963582634925842,0.9495398876784626,1.540843426483524,-0.004638110753148794,0.9917495250701904,1.0290736188067988,0.9795365713278518,0.14576581120491028,0.2013365477323532,1.0458696398543479,0.9942686444479529,-0.3758505582809448,0.9293115735054016,0.0037892162799835205,0.9567212068508953,0.9743628137689531,174.42814911803842,178.05210286438324,1.0,0.02018135936379857,0.004470660945337623,-0.0061726436579177075,-0.09705708116283575,99.41892483461007,0.8519753360173813,72,2.4
1.0090400891247628,0.5127333470354365,-0.19198857247829437,0.9999831914901733,0.9479979001745055,0.629591096949362,0.1407885104417801,0.999907910823822,0.9546539804391567,0.6221859916504445,-0.25247007608413696,0.9999885559082031,0.9557045215631395,0.985405270247803,0.1322825849056244,0.9999433755874634,0.9730044654019713,0.988546525404092,-0.13252179324626923,0.9999858140945435,0.9633741734555351,1.254957512570807,0.22528226673603058,0.3963923454284668,0.9635991323164976,1.2717506705957666,-0.04627317190170288,0.9881514310836792,0.9477301069680432,1.5127333470354365,0.3452534079551697,0.694601833820343,0.952981451105092,1.5441605607214812,0.04403141140937805,0.9909124374389648,1.0272861588248308,0.9947779277445334,0.1885594129562378,0.18725034594535828,1.0510792239024027,0.9988430013889743,-0.3376310169696808,0.9363284111022949,0.004214465618133545,0.9643544934825553,0.9869758978259475,174.89724176033943,179.67003919496412,1.0,0.03771849726316352,0.07652068638704045,0.1376297651352327,0.5672776286254939,101.53219779330522,0.87942373425826,73,2.433333333333333
1.0108016713984058,0.5155035025782678,-0.19630582630634308,0.999984860420227,0.9464033221446436,0.6315839016352361,0.13666757941246033,0.9999119639396667,0.9548824641897917,0.6247441828153396,-0.25642111897468567,0.9999895691871643,0.9611254424002856,0.9912474895757973,0.13186700642108917,0.9999430775642395,0.9811781935775536,0.9954197941373449,-0.13210883736610413,0.9999861717224121,0.965228276763394,1.2594276411215721,0.23242518305778503,0.4036000072956085,0.9657422722799427,1.2749152977784437,-0.04981749877333641,0.9881675839424133,0.9510125963531714,1.515503502578268,0.3589584231376648,0.7040181159973145,0.9539755737745174,1.5473604157969774,0.04460320621728897,0.9906736612319946,1.022896202078943,0.9987471228109279,0.18050691485404968,0.1753634661436081,1.0551236580026206,1.0022024781342025,-0.33834752440452576,0.9426513314247131,0.0038848817348480225,0.9711518179889196,0.9933336418565711,175.94608089639726,179.31191602174425,1.0,0.03530130483402061,0.03177799685309136,-0.018109167910524047,-0.32613093524905884,104.09761371687355,0.8905116851922905,74,2.466666666666667
1.0117660398423054,0.5173626508966473,-0.22634105384349823,0.9999863505363464,0.9476471283031859,0.6327289936356387,0.12338638305664062,0.9999176263809204,0.9546262361660997,0.6261887202720101,-0.288519948720932,0.9999905824661255,0.9655279527908235,0.9935387504734075,0.13299722969532013,0.9999440312385559,0.9840302493160025,0.9980093769348756,-0.13324233889579773,0.9999867081642151,0.9654412577568411,1.2611752525925493,0.24441483616828918,0.3998662531375885,0.9671928126979537,1.2777705736247855,-0.05139008164405823,0.987831175327301,0.9539460216752297,1.5173626508966473,0.3852394223213196,0.7056301832199097,0.955509789918492,1.5505446760001664,0.048886802047491074,0.9900871515274048,1.0248136949990942,0.9758364652133287,0.1724729835987091,0.16780154407024384,1.0575919839564798,1.004265290587042,-0.3722885847091675,0.9483590126037598,0.0037096738815307617,0.9747791010534129,0.9957740637041415,177.4493973366768,179.00830821294102,1.0,0.018429923534202124,0.008611139606889584,-0.1364546840844995,-0.18718604050334992,106.42087582853868,0.8909754105793463,75,2.5
1.0142020349811804,0.5191628105564339,-0.24948127567768097,0.9999877214431763,0.9499548517619243,0.6344626616986662,0.10455980151891708,0.9999225735664368,0.9571786751990508,0.6278346169710707,-0.30730435252189636,0.9999914169311523,0.9709185089446078,0.9971059091861745,0.13349533081054688,0.9999457597732544,0.9864331954349582,1.0009560586470425,-0.13374143838882446,0.9999871850013733,0.9676145733656103,1.2644162408928579,0.24812021851539612,0.4011315703392029,0.9696883952515315,1.282232083802799,-0.05620236322283745,0.9873435497283936,0.9579264140869034,1.5191628105564339,0.3955382704734802,0.7052872180938721,0.9579529610296674,1.5543882860140223,0.04848730191588402,0.9888054132461548,1.0350345376252084,0.9602663374705304,0.1574937105178833,0.1644200086593628,1.0603411482300695,1.0094264295989563,-0.4060591757297516,0.9534734487533569,0.0037501752376556396,0.978675852189783,0.9990309839166085,178.53019345284906,179.06219067220607,1.0,0.011428563221241285,0.006100291262568073,-0.05427608048451662,-0.019502810639144035,107.2455328640431,0.894146650600725,76,2.533333333333333
1.0188909986025367,0.5217780627578832,-0.25129422545433044,0.9999889135360718,0.954747083272958,0.6376817837487179,0.09600578248500824,0.9999274015426636,0.9613473269478832,0.6313271519511405,-0.3134535551071167,0.9999921917915344,0.9765005372131366,1.002543334540312,0.1336316615343094,0.9999471306800842,0.9922562136735482,1.0063587068061004,-0.1338813304901123,0.9999875426292419,0.9692995208530888,1.2703531063684128,0.25536197423934937,0.3991256058216095,0.9746497424330003,1.2892131984128001,-0.05286358669400215,0.9866747260093689,0.9622594937907983,1.5217780627578832,0.40114814043045044,0.7041193246841431,0.9628051215553873,1.5619337259665789,0.0496831052005291,0.9876179099082947,1.0423996698502185,0.9594262515012701,0.14848729968070984,0.16256123781204224,1.065845257849075,1.0171347228512613,-0.4148983955383301,0.9580692648887634,0.0035785138607025146,0.9843783754433424,1.0044510206732062,179.93633731235172,178.92505063659866,1.0,0.007798137738492759,0.005018799477227248,-0.027022175509834316,-0.008143533585737503,107.02461710078249,0.8997021774193068,77,2.566666666666667
1.0207594518665062,0.5236115590383691,-0.24285888671875,0.9999899864196777,0.9577690113151466,0.6396863939667833,0.09896284341812134,0.9999304413795471,0.9640419385138522,0.6332615517742536,-0.31029778718948364,0.999992847442627,0.9814171297076005,1.0052711266107208,0.13385239243507385,0.9999488592147827,0.9974162246911371,1.0095633751892836,-0.13409754633903503,0.9999879598617554,0.9714772303142736,1.2718626794578773,0.25211673974990845,0.39466434717178345,0.9776039200966398,1.2920879084260875,-0.05422995612025261,0.9860089421272278,0.9648627994829265,1.523611559038369,0.3936121165752411,0.6996680498123169,0.9659253023946749,1.5655331993425048,0.040850020945072174,0.9863141775131226,1.0474143516211818,0.9618038056324328,0.1443738341331482,0.15451781451702118,1.0675894905599927,1.0212547276444857,-0.4093910753726959,0.9621274471282959,0.0036085546016693115,0.9894166771993689,1.0074172509000021,179.36974748676195,178.4342134081318,1.0,0.019273393259811405,0.002540843853121017,0.09020043114759942,-0.01961670496598302,108.7187842535736,0.9016653570465548,78,2.6
1.0219743791240048,0.5253285670544586,-0.24227449297904968,0.9999909400939941,0.9603308530943643,0.6413524039791452,0.1029805988073349,0.9999327063560486,0.9659138102866585,0.634723632717884,-0.31349822878837585,0.9999934434890747,0.9840753577447724,1.0074262530120264,0.135142982006073,0.9999503493309021,0.9992855261183383,1.011722880701686,-0.1353832632303238,0.9999883770942688,0.9731157665710242,1.272942529520438,0.24329333007335663,0.3902444839477539,0.9801043804012944,1.293961228040005,-0.05921290069818497,0.9855821132659912,0.9634885553897525,1.5253285670544585,0.3752713203430176,0.697597324848175,0.968011287793972,1.5684633057891846,0.02117886207997799,0.985503077507019,1.0529734843831942,0.9402428424191588,0.1457984745502472,0.15082858502864838,1.0691015783406572,1.023559983634528,-0.4163910746574402,0.9658321738243103,0.0037150681018829346,0.9916804419315554,1.0095745668568563,179.82084676341213,178.63462526104965,1.0,0.0009526591282834232,-0.0001408383087592461,-0.13816256559306783,-0.020218874904789984,109.48528674803435,0.9019314536795451,79,2.6333333333333333
