nose_x,nose_y,nose_z,nose_visibility,left_shoulder_x,left_shoulder_y,left_shoulder_z,left_shoulder_visibility,right_shoulder_x,right_shoulder_y,right_shoulder_z,right_shoulder_visibility,left_hip_x,left_hip_y,left_hip_z,left_hip_visibility,right_hip_x,right_hip_y,right_hip_z,right_hip_visibility,left_knee_x,left_knee_y,left_knee_z,left_knee_visibility,right_knee_x,right_knee_y,right_knee_z,right_knee_visibility,left_ankle_x,left_ankle_y,left_ankle_z,left_ankle_visibility,right_ankle_x,right_ankle_y,right_ankle_z,right_ankle_visibility,left_wrist_x,left_wrist_y,left_wrist_z,left_wrist_visibility,right_wrist_x,right_wrist_y,right_wrist_z,right_wrist_visibility,trunk_lateral_inclination,center_mass_x,center_mass_y,left_knee_angle,right_knee_angle,person_height,center_mass_velocity_x,center_mass_velocity_y,center_mass_acceleration_x,center_mass_acceleration_y,body_orientation,torso_leg_ratio,frame,timestamp
0.8008252076184184,0.44170422037020607,0.22396330535411835,0.9999980926513672,0.7117329864950943,0.5852722153571143,0.027721229940652847,0.9999985098838806,0.8779951287790856,0.5901956159011771,0.01602395623922348,0.9999947547912598,0.7487946144851133,0.9111302035654798,0.012430300936102867,0.9999909996986389,0.8352951671804076,0.9078862176284911,-0.012558403424918652,0.9999896287918091,0.7520833258189857,1.1886403262934115,0.1331721395254135,0.9916053414344788,0.8289952343406406,1.190860629651832,0.07738707214593887,0.9640514850616455,0.7487331531332665,1.441704220370206,0.243272066116333,0.9903399348258972,0.8199083802649426,1.4503607487993275,0.20466944575309753,0.9821233749389648,0.6642137912444505,0.9184035149352768,0.10191623866558075,0.9954541921615601,0.9133255953587542,0.9249835345615505,0.06918402016162872,0.9867535829544067,0.0030510127544403076,0.7920448908327604,0.9095082105969855,178.56256934772742,179.2698868503239,1.0,-0.2065524345883437,0.12024218342850448,-1.177375821113371,0.7514106700456727,94.34095470966403,0.8719763830792299,0,0.0
0.7783635196045446,0.42849022873644005,0.2023315131664276,0.9999979734420776,0.6927183120014656,0.5712177959476595,0.025466328486800194,0.9999985694885254,0.874343174074185,0.5773848854838484,-0.019810538738965988,0.9999951720237732,0.7309051557208006,0.9052136606895965,0.02650461532175541,0.9999913573265076,0.829182207390285,0.9043915022001985,-0.02662510797381401,0.9999903440475464,0.7302754980080437,1.1786796001901112,0.15836690366268158,0.9891045093536377,0.8236360988077089,1.1854736448419465,0.07626177370548248,0.9655583500862122,0.7286382457129223,1.42849022873644,0.26031824946403503,0.9857272505760193,0.8141125259022597,1.4386289506754217,0.20393911004066467,0.9755141735076904,0.6445873333351034,0.9045311837982243,0.09547622501850128,0.9946959614753723,0.9092752374207854,0.9131355892022047,0.03498188406229019,0.9875232577323914,0.0038763582706451416,0.7800436815555428,0.9048025814448976,179.75641414253639,178.97595008491075,1.0,-0.0061403892858206185,0.05948269661802898,1.4479199707424615,-0.4330159314041388,96.04318270409301,0.900697074198401,1,0.03333333333333333
0.7795682864683146,0.4285439058076116,0.2011490762233734,0.9999976754188538,0.6921809488852451,0.5681123156538329,0.019255828112363815,0.9999986290931702,0.8778097004930133,0.5775769196000753,-0.020655285567045212,0.9999955296516418,0.7275301902178878,0.9104333815060789,0.026757949963212013,0.9999917149543762,0.8313687378890942,0.9075910392524438,-0.026875535026192665,0.9999909400939941,0.7281337454471772,1.184020852764365,0.1594281941652298,0.9880830645561218,0.8238749536443105,1.185013380571254,0.08197779208421707,0.9675756692886353,0.7294605324753191,1.4285439058076117,0.2632652819156647,0.9838595390319824,0.8182885918381244,1.4361801440816686,0.2053285539150238,0.9732343554496765,0.6449666915241513,0.9056101595062795,0.06613273173570633,0.9939181804656982,0.9097919112969794,0.9134726538801284,-0.016882050782442093,0.9880448579788208,0.0059441328048706055,0.7794494640534909,0.9090122103792613,179.81551373178377,179.72683420611637,1.0,-0.009366010278605343,0.026235106487725247,-0.024389223037825213,-0.25215402901384915,94.3277120361147,0.918008541584895,2,0.06666666666666667
0.7797851993038081,0.43117254372128794,0.20248059928417206,0.9999972581863403,0.6903875656830192,0.5685157872843698,0.018704090267419815,0.9999986886978149,0.8761306182889604,0.5745666053146892,-0.022257309406995773,0.9999958276748657,0.726989249530374,0.910399029751796,0.026610523462295532,0.9999920129776001,0.8333046138726615,0.9074462612882777,-0.026740187779068947,0.9999914765357971,0.7304605335084485,1.1790732602374443,0.15810160338878632,0.9873080253601074,0.8253154338286788,1.1835413537703956,0.07728472352027893,0.969382107257843,0.7281040199418828,1.4321382385508128,0.2518645226955414,0.9828433990478516,0.820558865052448,1.4311725437212879,0.1967228204011917,0.9718056321144104,0.6469209583999442,0.9059109203436944,0.06789065897464752,0.9930296540260315,0.9079640179070936,0.9124748941874041,-0.017336783930659294,0.9885197281837463,0.0038019120693206787,0.7801469317015177,0.9089226455200369,178.726260309739,179.44295058855235,1.0,0.008026231163196288,0.002521724115095573,0.1316876836420742,-0.17950164635522495,94.51984892569169,0.9138880731992013,3,0.1
0.7792633702493614,0.4311275361268648,0.21560534834861755,0.9999968409538269,0.6856829796721485,0.5686222049825863,0.03215155750513077,0.9999986886978149,0.8753985896178081,0.5709631012589433,-0.021293669939041138,0.9999961256980896,0.7250999389745306,0.9102921810436468,0.02859746478497982,0.9999922513961792,0.8322013665253158,0.9070660957694928,-0.02872801385819912,0.9999920129776001,0.7282710373879868,1.1779638616500274,0.17104928195476532,0.9863598346710205,0.8243263576746099,1.184987876604938,0.0813899114727974,0.970862090587616,0.7267299844393341,1.4311275361268647,0.2622738480567932,0.9816399216651917,0.8193947798477181,1.4312979432972273,0.19612139463424683,0.9701902270317078,0.644916734689818,0.9050954727721501,0.11365477740764618,0.9893575310707092,0.9064682971857478,0.9113278853242153,0.0064033628441393375,0.988914430141449,0.0014730095863342285,0.7786506527499232,0.9086791384065698,178.97248492636285,179.52395174940165,1.0,-0.002509712339598804,0.0076589756557142,-0.07426354404831846,0.036276770838771746,94.85554006700693,0.9138612991988722,4,0.13333333333333333
0.7759951726304205,0.4252452535195634,0.20969156920909882,0.9999963045120239,0.6822873796404979,0.5672717095831789,0.024772370234131813,0.9999986886978149,0.8711605289323342,0.5642746310392306,-0.030302714556455612,0.9999964237213135,0.7225778248023825,0.906892038382784,0.028350774198770523,0.999992311000824,0.8296928574296383,0.9032075556363791,-0.028481516987085342,0.9999923706054688,0.7260671344460216,1.1737984360645128,0.17546328902244568,0.984496533870697,0.8206515059550942,1.180523405893453,0.08356638252735138,0.9713501930236816,0.7259755466807111,1.4255971508127883,0.27430304884910583,0.9790229201316833,0.8156105418037453,1.4252452535195634,0.20524394512176514,0.9658093452453613,0.6418276459015774,0.9036106551666316,0.0998726412653923,0.985891580581665,0.9049563670973669,0.9086107142098017,-0.012239376083016396,0.9894489645957947,0.0018909871578216553,0.7761353411160103,0.9050497970095815,179.23016543543184,179.31269699636857,1.0,-0.003363905136728689,-0.009409603161934009,-0.006803080494103963,-0.13471404643659043,94.7955425356204,0.9219911297206237,5,0.16666666666666666
0.7499316509535677,0.38513830436421725,0.19948327541351318,0.9999961853027344,0.6589805237764833,0.5490017738663319,0.017565976828336716,0.9999986886978149,0.8460311895356188,0.5415716228328172,-0.038116417825222015,0.9999966621398926,0.7018387681292293,0.8791904245690572,0.02920343354344368,0.9999926686286926,0.8058289313674724,0.8757685715040128,-0.029330870136618614,0.999992847442627,0.7066940258440992,1.1393906143877905,0.17921572923660278,0.9838303923606873,0.7967186590054613,1.1441711969875443,0.0856822282075882,0.9725455045700073,0.7046939796362932,1.3851383043642174,0.28487175703048706,0.9783327579498291,0.7922764752392171,1.3851657173285141,0.21145622432231903,0.9647243022918701,0.6253950125641226,0.8771270259922577,0.08737213164567947,0.9833315014839172,0.8784292793195864,0.881223017941831,-0.01761329360306263,0.9899388551712036,0.004830509424209595,0.7538338497483508,0.877479498036535,178.46470386763517,179.11197816976008,1.0,0.004690269217018827,-0.0068607334745747935,0.06269091453697134,0.017899392125641185,95.51093288064199,0.96977447137967,6,0.2
0.7525103785221425,0.38831104391289956,0.19392623007297516,0.9999958276748657,0.6591508663316085,0.5472723589852642,0.008950682356953621,0.9999986290931702,0.8474834736214522,0.5412027271707496,-0.042564745992422104,0.9999969005584717,0.7018074927229337,0.8806479473615029,0.02764567732810974,0.9999927282333374,0.8065945394647649,0.8757536113494935,-0.02777639962732792,0.9999931454658508,0.705921326248617,1.1429006366472343,0.17760267853736877,0.9831762313842773,0.7972468614390159,1.1451226738220375,0.08664243668317795,0.9733505845069885,0.7062309671656295,1.3883110439128996,0.27349168062210083,0.9774437546730042,0.7921475357074611,1.3892310201564813,0.20970472693443298,0.9624658823013306,0.6273086863934862,0.8780057454929675,0.07430924475193024,0.9810231328010559,0.8802489790085113,0.8818499909273239,-0.03307977691292763,0.9903607964515686,0.003942698240280151,0.7542010160938494,0.8782007793554982,179.17359358504416,179.20922429338586,1.0,-0.001977132424787263,-0.00010949850743023955,-0.04975675908762862,0.05039558961324483,94.61738758763515,0.9594518545781564,7,0.23333333333333334
0.7621767689458243,0.40172542801412253,0.18933075666427612,0.9999943971633911,0.6695712588008306,0.5536896863021924,0.0036347571294754744,0.9999985098838806,0.857193146276857,0.5474891063866298,-0.04258119687438011,0.9999970197677612,0.7100990012771663,0.8919262367313161,0.02548794448375702,0.9999923706054688,0.8158705874203304,0.8858743221612394,-0.02562480792403221,0.999993085861206,0.7149923290167454,1.1558383323332548,0.1714283525943756,0.982369065284729,0.807543192343614,1.156757160311757,0.08258995413780212,0.9736006855964661,0.715900524776598,1.4017254280141225,0.2545963525772095,0.9764053821563721,0.8030174886532405,1.404759278212569,0.18273214995861053,0.9598328471183777,0.6359725657187185,0.8880042944877564,0.05496453493833542,0.9777526259422302,0.8911371311061204,0.8912649963033308,-0.039299800992012024,0.9905878305435181,0.003980100154876709,0.7629847943487483,0.8889002794462778,179.14939541079275,179.2846402505748,1.0,-0.0018802541914314486,0.0013962458368590649,0.0009166537569588295,0.01145925114111721,93.55793398635505,0.9471568146406593,8,0.26666666666666666
0.7634678302912132,0.40690301521822686,0.17299231886863708,0.9999940991401672,0.6718669362070613,0.553962625964199,-0.0029320900794118643,0.9999985098838806,0.8592222432362647,0.5479914363871806,-0.053174763917922974,0.9999971389770508,0.711143640207608,0.8938509441121065,0.02660108543932438,0.9999921917915344,0.8176612667818245,0.8878035547101942,-0.026746263727545738,0.9999931454658508,0.716913181866825,1.1579181090675976,0.16822883486747742,0.9800447821617126,0.8099519112540624,1.1585122535788666,0.07222159951925278,0.9731083512306213,0.7167155371163668,1.406903015218227,0.24702484905719757,0.973719596862793,0.805613688113884,1.4102049765979958,0.16372212767601013,0.9549039006233215,0.6371476985814218,0.8903068376565291,0.04107743501663208,0.9766882061958313,0.8945230107411962,0.8916605598969491,-0.059092141687870026,0.990822970867157,0.003823012113571167,0.7644024534947162,0.8908272494111503,178.70287556549593,179.35621078815788,1.0,-0.0041113570211407085,-0.002720380547684662,-0.016731860005473963,-0.030966256291446323,93.34233019004496,0.9346903878859113,9,0.3
0.7648429489341765,0.40751296427923156,0.18634584546089172,0.9999935626983643,0.6737490164740366,0.5547720996560128,0.0010231725173071027,0.9999984502792358,0.861202542426263,0.5495734823882228,-0.045973412692546844,0.9999972581863403,0.7117834703529586,0.8944177656750091,0.025445198640227318,0.9999918937683105,0.8184197686948205,0.8883659361396732,-0.025591334328055382,0.9999931454658508,0.7179203275947474,1.157727932957354,0.1567753553390503,0.9792852997779846,0.810982616516378,1.158753669935582,0.06208425760269165,0.973488450050354,0.7171650951993497,1.4075129642792314,0.21960754692554474,0.9726468920707703,0.806350213887778,1.4120419359443657,0.140035942196846,0.9527687430381775,0.6384030221968439,0.8910295164015417,0.03711714968085289,0.9750007390975952,0.8967154239607238,0.89091620824697,-0.06007727235555649,0.9912707209587097,0.0033253729343414307,0.7651016195238896,0.8913918509073412,178.49163857992338,179.4722164449585,1.0,6.413697477638192e-05,-0.0018440720157153602,0.032050924761800444,0.006739383255364462,93.14134965975713,0.9334121743969556,10,0.3333333333333333
0.7660917389936617,0.41054900477413725,0.19609345495700836,0.9999929666519165,0.674637023546864,0.5564569344882745,0.010236268863081932,0.9999983906745911,0.8627331662617177,0.54967818996433,-0.04234654828906059,0.9999973773956299,0.7140136414325904,0.896152407111428,0.02574755623936653,0.9999917149543762,0.8208053743289069,0.8900203266627007,-0.025895724073052406,0.9999932050704956,0.720039275119965,1.1605461801999872,0.16224215924739838,0.9777674078941345,0.8122990642302559,1.1620577242111945,0.06277927756309509,0.9736524224281311,0.718624793747728,1.4105490047741371,0.22462889552116394,0.9706822037696838,0.8074504142506442,1.4157227842476348,0.14891336858272552,0.9497352242469788,0.640009098396865,0.893063863668217,0.042706284672021866,0.9725120663642883,0.898983050594239,0.890274304900314,-0.056438397616147995,0.9915828108787537,0.004327148199081421,0.7674095078807486,0.8930863668870643,178.37026547782128,179.30404744601734,1.0,0.005310648531590461,-0.0011397777077160754,0.038659900961630723,0.0052180456549896425,93.32570025024684,0.9278359696581655,11,0.36666666666666664
0.7655197724150405,0.41222510490524517,0.1787007749080658,0.9999924898147583,0.6751628423154946,0.5563381716065937,0.0006190541898831725,0.9999983310699463,0.8613720350346894,0.5504032423830645,-0.04662693291902542,0.9999974966049194,0.7147383647488478,0.8966217110131447,0.026185501366853714,0.9999915957450867,0.8216193191586054,0.8904945458241957,-0.026337463408708572,0.9999932646751404,0.7213211969139097,1.1610288973401082,0.16634705662727356,0.9769859910011292,0.8127258247039706,1.1633627307205312,0.06349495053291321,0.9740763902664185,0.7195658933501959,1.4122251049052452,0.22906744480133057,0.970553457736969,0.8082612787153349,1.4163094768266669,0.1576477587223053,0.9488531947135925,0.6396672537922107,0.8938593993156306,0.04140099138021469,0.9714357256889343,0.9000120713908784,0.8900513052798694,-0.061288852244615555,0.9919079542160034,0.0037861764430999756,0.7681788419537265,0.8935581284186702,178.17346247746116,179.1444137689067,1.0,0.0023923336598183275,-0.0006271951263532517,-0.023529924574571648,0.004133900630322502,93.35278420315151,0.9243600973699433,12,0.4
0.762431511739692,0.41179465707858226,0.18794944882392883,0.9999920725822449,0.6755493214808602,0.5548871911155326,0.0029937373474240303,0.9999983310699463,0.8600105229157897,0.5498455746718025,-0.04604209214448929,0.9999975562095642,0.7141045872618994,0.8949460063986268,0.025890398770570755,0.9999914169311523,0.8214333382798437,0.8888661824060989,-0.026043305173516273,0.9999932646751404,0.7202473696674574,1.159863536007502,0.16038432717323303,0.9765119552612305,0.8121139075320927,1.1622943836525264,0.061008892953395844,0.9744959473609924,0.7180308604419047,1.4117946570785822,0.2229708880186081,0.9700626730918884,0.8074376364273833,1.4144382575237868,0.1487138718366623,0.9470463395118713,0.6393167547820179,0.8923482023694189,0.04088220372796059,0.9717581868171692,0.8999416398829141,0.8883197033809973,-0.057180922478437424,0.9921978116035461,0.0032218098640441895,0.7677689627708716,0.8919060944023628,178.16761095029588,179.1103946396613,1.0,0.006709601956773227,-0.0008951659527109146,0.03198911617709645,-0.0019916214861879548,93.22631742605327,0.9211583240062275,13,0.43333333333333335
0.763117337653844,0.41214141624106243,0.1866110861301422,0.9999919533729553,0.6769565216580028,0.5541374966576437,0.004522806033492088,0.9999983310699463,0.8610070489432929,0.549755114668247,-0.04843391478061676,0.999997615814209,0.7147127402134966,0.8951777331238759,0.026779990643262863,0.9999913573265076,0.8219218647111168,0.889208233326983,-0.026935908943414688,0.9999933242797852,0.7205754152218886,1.1607225124891707,0.16945967078208923,0.97557532787323,0.8123606263048718,1.1641416520952679,0.0625079870223999,0.9746496677398682,0.7179433270706329,1.4121414162410624,0.2401517629623413,0.9688801169395447,0.8079814630536439,1.4156398580918985,0.14956820011138916,0.944286048412323,0.6401078473209743,0.8925657037757011,0.05022677034139633,0.9717565178871155,0.9001460654051328,0.888532484905051,-0.0507366880774498,0.992470383644104,0.002799779176712036,0.7683173024623067,0.8921929832254294,178.13543025554145,179.0058033308199,1.0,0.0026476677143081767,0.00036736073779006733,-0.03143647208376796,0.00976858396076309,93.13044232851239,0.9201747362901828,14,0.4666666666666667
0.763590954310644,0.4127249848288139,0.18899491429328918,0.999991774559021,0.6781209218762415,0.5539897105136611,0.0018666645046323538,0.9999983310699463,0.8612785562265595,0.5500577291215343,-0.045830704271793365,0.9999976754188538,0.7153992332549973,0.895231407068198,0.026212772354483604,0.9999911189079285,0.8224464783836201,0.8892878759327066,-0.026368021965026855,0.9999932050704956,0.720667939956115,1.1611239913849778,0.16625455021858215,0.9753479957580566,0.8129941774464473,1.1640675770606908,0.06284783780574799,0.9747962355613708,0.7175684317652141,1.412724984828814,0.2387572079896927,0.9684286713600159,0.8085445538322951,1.415355232499739,0.15632298588752747,0.942383348941803,0.6405405164562404,0.8926858856951729,0.04200690984725952,0.9718891382217407,0.9016095803794796,0.8886015742575379,-0.05456918478012085,0.992728054523468,0.002511650323867798,0.7689228558193086,0.8922596415004523,178.15902385695472,179.04427426383185,1.0,0.003915894474882094,-0.0005491142686327082,0.010150851217838543,-0.007338208056154686,93.05650577493864,0.919031246078652,15,0.5
0.7654327360924226,0.4139812097985021,0.18535980582237244,0.9999917149543762,0.6796549645021959,0.5540476410496133,0.0009856086689978838,0.9999983310699463,0.8635813169884811,0.5505668632532625,-0.047385916113853455,0.9999977350234985,0.716723197109309,0.8962318405627548,0.026067156344652176,0.9999910593032837,0.8241757317664211,0.8903704024847295,-0.02622038498520851,0.9999932050704956,0.7218183651229672,1.1624143085167167,0.1594752073287964,0.9749821424484253,0.8144886429731839,1.1659191928460033,0.05567259341478348,0.9750420451164246,0.7183036699953926,1.413981209798502,0.21284811198711395,0.9675617218017578,0.8094927041764942,1.4188059735241125,0.12927313148975372,0.9409444332122803,0.6413478616617643,0.8935632099922887,0.03878944739699364,0.9714499115943909,0.9044722570713197,0.8893420439518157,-0.06630329042673111,0.9929980635643005,0.002220451831817627,0.7704494644378651,0.8933011215237422,178.10295939634312,179.11832776277396,1.0,0.003666414644076651,-0.001160167877545355,-0.0018894807816038457,-0.004526946659464795,93.06030692966986,0.9162952370687045,16,0.5333333333333333
0.7665940731329602,0.4146955862851042,0.1766803115606308,0.9999915957450867,0.6807268141254956,0.5533260038638644,-0.008853068575263023,0.9999983310699463,0.8651576747445087,0.5507256782447042,-0.04860448092222214,0.9999977946281433,0.717334195293901,0.896588571356452,0.02455439604818821,0.9999909996986389,0.824826708063211,0.8908241866883185,-0.024709032848477364,0.9999932646751404,0.7224943661715068,1.1628355698031467,0.158697247505188,0.9748433828353882,0.8148337617426935,1.1665867810587438,0.05842918902635574,0.9753100275993347,0.7186057273633683,1.4146955862851043,0.21583788096904755,0.9675469398498535,0.8098982428438342,1.4202481268484357,0.1390714794397354,0.9405940771102905,0.6408891843113828,0.8932946105494811,0.03380752354860306,0.9711052179336548,0.9062296283519585,0.8897621615203788,-0.06966796517372131,0.9932523369789124,0.0016578733921051025,0.771080451678556,0.8937063790223853,178.00512298347795,179.0393225644037,1.0,0.0015521194974854712,-0.0007009340848226762,-0.01621601228198696,0.003523736123424072,93.0177260142719,0.9145117093940767,17,0.5666666666666667
0.7689597127765175,0.41490901032707184,0.18032915890216827,0.999991774559021,0.6809143217291331,0.5529162347574834,-0.0046767909079790115,0.9999983310699463,0.8659506427654664,0.5505907610845499,-0.04934383183717728,0.9999978542327881,0.7175159928898989,0.8964672029546491,0.02462523803114891,0.9999909996986389,0.8247774377451319,0.890738868405029,-0.024781007319688797,0.9999933242797852,0.7225800399367104,1.162928195391391,0.15816962718963623,0.9744837284088135,0.8150914229648751,1.1664618384544594,0.059436261653900146,0.9754176139831543,0.718579310959234,1.4149090103270718,0.21680498123168945,0.9670146703720093,0.810120110677814,1.4208918045702812,0.14411874115467072,0.9394108057022095,0.6407052029762436,0.893172501470131,0.04141952842473984,0.9709071516990662,0.9068754644625584,0.8890230883844058,-0.06681028008460999,0.9935194849967957,0.0014827251434326172,0.7711467153175153,0.893603035679839,178.00161887562112,179.10741526922214,1.0,0.0007918986405727363,-0.00035917076417608625,-0.005388381401659099,0.0024223883075905816,93.02431437393814,0.9129501572931743,18,0.6
0.7707330229942243,0.4148467175543555,0.17937248945236206,0.9999919533729553,0.6818143310090377,0.5513092451606533,-0.005333060398697853,0.9999983310699463,0.8670316027304271,0.5498875468149962,-0.06073523312807083,0.9999979138374329,0.7174901045355986,0.8944826001645478,0.02698361501097679,0.9999910593032837,0.8246062549774045,0.8897614869137632,-0.02714204229414463,0.9999934434890747,0.7223018233111894,1.162198982535937,0.15759538114070892,0.9720096588134766,0.8149067442986392,1.1660224515724218,0.05619636923074722,0.9745336174964905,0.7184002251166458,1.4148467175543555,0.21499288082122803,0.9651145339012146,0.8098204052707089,1.4206396768742504,0.14149430394172668,0.9362659454345703,0.6388536676850092,0.8918909737505187,0.026394564658403397,0.9715461134910583,0.908268004133182,0.8872891102672975,-0.08120497316122055,0.9936935305595398,0.0009067356586456299,0.7710481797565015,0.8921220435391556,178.08558349153012,179.13358559229636,1.0,0.000958526776467797,-0.009660388572361192,0.0013148930478588733,-0.07329895999198159,93.41139992957248,0.9079399343917155,19,0.6333333333333333
0.7736281037014147,0.41703349922513755,0.163675919175148,0.9999922513961792,0.685046134275568,0.5525044140313113,-0.01038415264338255,0.9999983906745911,0.8695665577264781,0.550654798342275,-0.0753081738948822,0.9999980330467224,0.7195214452629665,0.8966807927537456,0.029899615794420242,0.999991238117218,0.8266540120014426,0.8921364698637594,-0.03005841001868248,0.999993622303009,0.7242620254067172,1.163419746806123,0.16549652814865112,0.9710308313369751,0.8170501030854227,1.1690125866068877,0.0538422055542469,0.9748724102973938,0.7200441107972223,1.4170334992251377,0.2265624701976776,0.964644193649292,0.8118988772435943,1.4251693907648242,0.13910822570323944,0.93619704246521,0.6394028063709724,0.8921862252238687,0.02624404802918434,0.9723718166351318,0.9123757509803259,0.8885285034965087,-0.09423701465129852,0.9938931465148926,0.0011765658855438232,0.7730877286322045,0.8944086313087525,178.02901330164866,179.16544028992104,1.0,0.00011586075678997948,-0.00040889988228427537,-0.006267227124082793,0.06879003399667205,93.29119664044276,0.9062786392259002,20,0.6666666666666666
0.7750103891180753,0.41764592291241565,0.15239030122756958,0.9999924898147583,0.6860761621064433,0.5519105613931463,-0.018962187692523003,0.9999983906745911,0.87060818849138,0.5507856949323519,-0.07622898370027542,0.9999980926513672,0.7202804400690676,0.8973883384341848,0.029413703829050064,0.9999913573265076,0.8272964218198584,0.8930188596607638,-0.029572010040283203,0.9999937415122986,0.7245566957924611,1.16209406355805,0.16373613476753235,0.9697520732879639,0.8178720779052087,1.1700125832360384,0.055005691945552826,0.9747133851051331,0.7203070752262183,1.4176459229124156,0.22543784976005554,0.963670551776886,0.812933694683632,1.4279606688763218,0.1397666186094284,0.9353106617927551,0.6396579295535731,0.8919370408659277,0.015249068848788738,0.973079264163971,0.913440240976895,0.8893099140275275,-0.09441576898097992,0.9941588044166565,0.0007148981094360352,0.7737884309444629,0.8952035990474743,178.12178669011436,179.14812523194863,1.0,2.6121958592500465e-05,-9.206620371063101e-05,-0.0006999685098017117,0.0024713223383995586,93.31608724015071,0.9050682738057291,21,0.7
0.7761570383410245,0.4190256906312296,0.15322083234786987,0.9999929070472717,0.6877739180493881,0.5528256979857271,-0.017371509224176407,0.9999984502792358,0.8719063970650013,0.5513950462715773,-0.07586102187633514,0.9999982118606567,0.7212952106112531,0.8985829348512214,0.03053244948387146,0.9999915361404419,0.8283863692325019,0.8943957554686864,-0.03068714216351509,0.9999939203262329,0.7255067640948171,1.1624410788982136,0.16768525540828705,0.968658983707428,0.8192216133184597,1.1718385863434684,0.05568891763687134,0.9749431610107422,0.7210061497406695,1.4190256906312295,0.2349328249692917,0.9626283645629883,0.8143491412919673,1.4314708530132283,0.14186543226242065,0.9344295859336853,0.6396793551786958,0.8922079098607234,0.01734921708703041,0.9736247062683105,0.9160572397819331,0.8906165957195603,-0.10121704638004303,0.9943314790725708,0.0009078681468963623,0.7748407899218774,0.8964893451599539,178.08066325826286,179.1831725553528,1.0,-0.0008702354551633211,-0.00048721746781170953,-0.006822853444417267,-0.003006606064587804,93.2984615631826,0.9029071944976462,22,0.7333333333333333
0.7761081351558856,0.41927528329093633,0.15421205759048462,0.9999932646751404,0.6891248618448175,0.5528923428676225,-0.01756627857685089,0.9999985098838806,0.8726370813207429,0.5515484184825233,-0.07366608083248138,0.9999982714653015,0.7208608594577064,0.8987011064064545,0.03026992455124855,0.999991774559021,0.8283391088243816,0.894707524398177,-0.030425360426306725,0.9999940991401672,0.7254528164115391,1.161895043775604,0.16740605235099792,0.9678629636764526,0.8194352633281936,1.1723031413134448,0.05563456937670708,0.9752231240272522,0.721182736135909,1.4192752832909363,0.23422975838184357,0.9622070789337158,0.8145202083310629,1.4327259891835906,0.1414373815059662,0.9343247413635254,0.6393838758010746,0.8920017309561936,0.027468064799904823,0.9740225076675415,0.9174672871451888,0.8908725319499714,-0.09316446632146835,0.994448721408844,0.0008526146411895752,0.774599984141044,0.8967043154023158,178.04997784610194,179.24411039934125,1.0,-0.0032237616784140098,-0.00010286764965921137,-0.017292923575511033,0.0028252550664100854,93.1155653916118,0.9019355935563032,23,0.7666666666666667
0.7754068097407811,0.4163136256697809,0.15481342375278473,0.9999933838844299,0.6880900138278557,0.551809594514163,-0.01723397895693779,0.9999985098838806,0.8715315503512845,0.5510724932932837,-0.07468800246715546,0.9999983310699463,0.7188990915320042,0.8962392320308196,0.03054204210639,0.9999920129776001,0.8265905503276568,0.8927923005058962,-0.030696172267198563,0.9999943375587463,0.7240169358416746,1.1592361788012633,0.16654029488563538,0.9667686223983765,0.8178129372773413,1.169612039948139,0.053970981389284134,0.9752750992774963,0.7195458072568677,1.4163136256697808,0.23357954621315002,0.9613439440727234,0.8128452041493318,1.4300991952690507,0.14060015976428986,0.9334032535552979,0.6378097062771414,0.8902138760863605,0.03154613450169563,0.9732199311256409,0.9159628661878361,0.8889624495144499,-0.08785716444253922,0.9946111440658569,0.0004685819149017334,0.7727448209298304,0.8945157662683579,177.88878532702628,179.27638145233908,1.0,-0.0022338554434824364,-0.0029053466493021425,0.007669691325406083,-0.02185910271810175,93.27821096435508,0.9044446769034565,24,0.8
0.7742123417295548,0.4165807380935067,0.1431359350681305,0.9999935030937195,0.6856487350577936,0.5554397651134072,-0.025266533717513084,0.9999985098838806,0.8707230579404026,0.5511438756334698,-0.08606160432100296,0.9999983906745911,0.7181169126514194,0.8973623924990298,0.03048788011074066,0.9999920725822449,0.8260444195516092,0.8933652545499479,-0.030641471967101097,0.9999944567680359,0.7241435637072402,1.159598815889962,0.16429056227207184,0.965689480304718,0.8178772315935277,1.1697465220788024,0.0474596843123436,0.9749407172203064,0.719659336986335,1.4165807380935067,0.2292332947254181,0.9608592391014099,0.8130519161427145,1.429775784913151,0.13809238374233246,0.9324527382850647,0.6374341200597634,0.8901719138772289,0.03234204277396202,0.973180890083313,0.9157345801755666,0.888999600117419,-0.09138292074203491,0.9948360919952393,0.0027306675910949707,0.7720806661015143,0.8953638235244888,177.68378879787875,179.37048237361338,1.0,-0.005632037507368728,0.005785286587758658,-0.025859429352267493,0.06614027855040171,93.30340661675878,0.9070578731694522,25,0.8333333333333334
0.7715540564775151,0.4167791561262742,0.14304563403129578,0.9999936819076538,0.682999053152178,0.5556094110906613,-0.0256142970174551,0.9999985694885254,0.8682322123770991,0.5511618284594934,-0.0858561247587204,0.9999984502792358,0.7173213607133874,0.8974286951386784,0.030412081629037857,0.9999920725822449,0.8255215223268779,0.8932644401325633,-0.030566032975912094,0.9999945163726807,0.7236316947169454,1.1594722876466952,0.15417543053627014,0.9647232294082642,0.8178477180826835,1.1694632552013922,0.03280770778656006,0.974862277507782,0.7196709686236809,1.4167791561262741,0.2093106061220169,0.959926426410675,0.8131619114464033,1.4290426522241313,0.11240005493164062,0.9312856197357178,0.6358249801382319,0.8895150259052782,0.031004678457975388,0.9742895364761353,0.9154369483509633,0.8890019136218793,-0.09123994410037994,0.995047926902771,0.002827078104019165,0.7714214415201327,0.8953465676356209,177.73862872593497,179.44268944151665,1.0,-0.005329143527494302,-0.0001711720373187883,0.0024359458331802706,-0.04789946557279016,93.52985832749924,0.9070826720958481,26,0.8666666666666667
0.7742420832554554,0.4226269850990921,0.16725300252437592,0.9999937415122986,0.6841695342001132,0.5581253986021006,-0.012869389727711678,0.9999985694885254,0.8694857756825723,0.5543900822169885,-0.06426962465047836,0.9999984502792358,0.7203194571415533,0.9030334564640917,0.028890511021018028,0.9999920129776001,0.8276567308286841,0.89824309685795,-0.029043182730674744,0.9999944567680359,0.7265654222628718,1.163559436291217,0.1448168158531189,0.9656193852424622,0.8209532224144036,1.1745674117944733,0.03406505659222603,0.9754002094268799,0.7228509675161686,1.422626985099092,0.19062738120555878,0.960426390171051,0.8168425849048669,1.4352804399912618,0.10227338969707489,0.9320654273033142,0.6367736812206969,0.8934413410520453,0.029205162078142166,0.9753187894821167,0.9192351793717105,0.8924659770458875,-0.08490487933158875,0.99515700340271,0.002363920211791992,0.7739880939851187,0.9006382766610208,177.8051904469077,179.51360399910862,1.0,-0.005987978386228994,0.00972397170493761,-0.0045807325771675435,0.07134540580368702,93.4279831701466,0.9047535086471742,27,0.9
0.7726276030948115,0.42858597968065276,0.16938123106956482,0.9999939203262329,0.6845679244697722,0.5604359379917924,-0.01079527661204338,0.9999985694885254,0.8693781512541462,0.5572053823269496,-0.056686073541641235,0.9999984502792358,0.722714082890468,0.9111944047647871,0.026354040950536728,0.9999919533729553,0.8286986001319516,0.9063949841718519,-0.02650003507733345,0.9999943971633911,0.7284067686517929,1.1686722022310727,0.15545357763767242,0.9676843285560608,0.8234142911834491,1.1804454276929037,0.05653896927833557,0.9766272902488708,0.7258778209966589,1.4285859796806528,0.21921737492084503,0.9623934626579285,0.8202790202890832,1.4411413441517564,0.149624302983284,0.9347952008247375,0.6359555260816405,0.8974896647943249,0.031928811222314835,0.9764938950538635,0.9214795800244534,0.8958496318366704,-0.07776730507612228,0.9953300356864929,0.0020360052585601807,0.7757063415112099,0.9087946944683195,178.17596228650015,179.5843823834436,1.0,-0.011658397339612287,0.03419099653316465,-0.043789542251014675,0.1894656147373191,93.61389484417664,0.9128292557458993,28,0.9333333333333333
0.7694273644624177,0.43433910273934817,0.16747154295444489,0.9999938607215881,0.6840547757579545,0.5631323171407412,-0.010867518372833729,0.9999985694885254,0.8686870365413228,0.5607236210699279,-0.05889267846941948,0.9999984502792358,0.7226626147598962,0.9162679473543324,0.025629576295614243,0.9999919533729553,0.8281888278701499,0.9110822144392812,-0.02577236294746399,0.9999943971633911,0.7302197728631701,1.1738997659198658,0.15705670416355133,0.9692323207855225,0.8257601906901798,1.1852966795489397,0.058020491153001785,0.9777684211730957,0.7288875643350035,1.4343391027393482,0.22076638042926788,0.964126467704773,0.8236173760747901,1.446831068134117,0.14662742614746094,0.9376686215400696,0.6361605996158582,0.9013364246483884,0.03151393309235573,0.9774446487426758,0.9224051560491497,0.8997046721733881,-0.07955751568078995,0.9954892992973328,0.0015119314193725586,0.7754257213150231,0.9136750808968067,178.02673606084826,179.96198903514895,1.0,-0.025790203348758766,0.009119084926797447,-0.10635299972136444,-0.19036047580442667,93.42594331392853,0.9097786423922638,29,0.9666666666666667
0.7695003599476612,0.44406154242126245,0.16589444875717163,0.9999938011169434,0.6831178451767563,0.5692834113486843,-0.01215837150812149,0.9999985098838806,0.8692147777266424,0.5663988105353972,-0.0603436641395092,0.9999984502792358,0.7233469381550209,0.9253750265496955,0.02504313550889492,0.9999917149543762,0.8285097860874958,0.9200459176475891,-0.02518247440457344,0.9999942183494568,0.7329625291592503,1.1831537706256416,0.16719681024551392,0.9705036878585815,0.829332796770142,1.1933850898822225,0.06353349983692169,0.9785788655281067,0.7340426828752349,1.4440615424212624,0.24345175921916962,0.9654278755187988,0.8292767693235771,1.4538554460327333,0.16230496764183044,0.9393800497055054,0.6383853310583896,0.9076715007549124,0.026787614449858665,0.9784746170043945,0.924149306643617,0.9067372956689301,-0.08488206565380096,0.9957471489906311,0.0017983019351959229,0.7759283621212584,0.9227104720986423,178.1009613978024,179.81516139059377,1.0,-0.03725963322299853,0.021308256010667236,-0.08721618477963408,0.09365965107405234,93.54463178773476,0.9095753785264763,30,1.0
0.7557528160245647,0.45097070640718645,0.1597074568271637,0.9999939799308777,0.6794115155912643,0.5741797952072105,-0.014392709359526634,0.9999985098838806,0.8669205265672036,0.5694578876768668,-0.060768771916627884,0.9999985098838806,0.7218628507963024,0.929707685742127,0.02420414611697197,0.9999916553497314,0.82802625985154,0.9245896195574966,-0.02434958703815937,0.9999942183494568,0.7354021949572357,1.1893856960975009,0.16280947625637054,0.9712422490119934,0.8308308863274003,1.1990089019434307,0.06731095165014267,0.9792386889457703,0.7377091969677673,1.4509707064071864,0.23619146645069122,0.9662801623344421,0.8333640725417133,1.4602788493796244,0.15979710221290588,0.941372275352478,0.6401656736837418,0.9122154987777261,0.027448032051324844,0.9788193702697754,0.9250943543164022,0.9125671700546335,-0.08481404185295105,0.9959992170333862,0.0029291510581970215,0.7749445553239211,0.9271486526498118,177.520656364731,179.96994804864764,1.0,-0.03589904570225097,-0.0010877094727761612,0.011466602785904268,-0.16692471869857567,94.04903504430294,0.9015873589941187,31,1.0333333333333334
0.7575875238477694,0.4543991546776301,0.15329840779304504,0.9999938607215881,0.6777444432175204,0.5763411539553768,-0.020855581387877464,0.9999984502792358,0.8654721669317128,0.5715837596359628,-0.061383914202451706,0.9999985098838806,0.7199934661072855,0.9325358722412085,0.02215556800365448,0.9999914169311523,0.825831644680673,0.9270030597283416,-0.02230861410498619,0.9999940991401672,0.7340425393592634,1.1934495991898897,0.1573820412158966,0.9722683429718018,0.8310143584314978,1.1997501248340463,0.0754999965429306,0.9795349836349487,0.7395550779273132,1.45439915467763,0.22476164996623993,0.9673604369163513,0.8353803355930194,1.4600926177366005,0.1701776087284088,0.9427522420883179,0.6409705411876746,0.9142738154682879,0.016808610409498215,0.9788593053817749,0.9233166690496176,0.915454519931527,-0.09213342517614365,0.9962116479873657,0.00294417142868042,0.7729125553939793,0.9297694659847751,178.12803585570663,179.87216960980598,1.0,-0.02907633062636805,0.003142683517631295,0.05186521351143755,0.03178122506848264,93.77189287839974,0.9013385769128314,32,1.0666666666666667
0.7629910556683596,0.45840128466414254,0.16242451965808868,0.999993622303009,0.6780596365654828,0.5808804554351843,-0.016082117334008217,0.9999983310699463,0.8660453115253371,0.5763302802435791,-0.05132535099983215,0.9999985098838806,0.7219485326146522,0.9382967191584136,0.019891750067472458,0.999991238117218,0.8277942641889598,0.9326026164827697,-0.02005951665341854,0.9999940395355225,0.737894326470479,1.199445639242222,0.13843068480491638,0.9729679822921753,0.8352287026421338,1.1969764730519292,0.07165969908237457,0.9796109199523926,0.7440050282611963,1.4584012846641425,0.18407881259918213,0.9681340456008911,0.8404687035608032,1.4605492072939634,0.14018294215202332,0.9443268775939941,0.6455372389120823,0.9199795373181813,0.01859588548541069,0.9782565236091614,0.9239946457468468,0.9237581949813712,-0.08754576742649078,0.9964417815208435,0.002798706293106079,0.774871398401806,0.9354496678205916,177.85763429546307,179.5281420538652,1.0,-0.021359582601984253,-0.0003221505878152084,0.060271313187364874,-0.026596224053667003,93.92125446176905,0.9101330728952423,33,1.1
0.7640495282061281,0.46041417110225763,0.165578693151474,0.9999933838844299,0.6787614107112075,0.5834552315498825,-0.013001762330532074,0.9999982118606567,0.8681240641253585,0.5795613122946972,-0.0493505634367466,0.9999985098838806,0.7231444366833928,0.941560188576537,0.019391415640711784,0.9999911189079285,0.8291312870900538,0.9358082686887434,-0.019565248861908913,0.9999939799308777,0.7398464089765193,1.2031949383571785,0.1229494959115982,0.9737587571144104,0.8380074449367161,1.1972157463499218,0.060914523899555206,0.9798835515975952,0.7463446702767308,1.4611716475842855,0.15725664794445038,0.9691476225852966,0.8433019031000958,1.4604141711022576,0.11558534950017929,0.9462002515792847,0.6482314810785264,0.9232495634104531,0.019663672894239426,0.9779451489448547,0.9238849917495942,0.9289870903698424,-0.08505234867334366,0.9966505169868469,0.0023865997791290283,0.7761378618867233,0.9386842286326402,177.79030412940682,179.20765178671593,1.0,-0.010994867570234716,-0.0006014836130321763,0.07756576427067355,-0.00206678611002112,93.95872829123323,0.9157388773115296,34,1.1333333333333333
0.7706374673860118,0.46839935064153315,0.16497297585010529,0.9999927282333374,0.682930733999435,0.5910247523076406,-0.008485597558319569,0.9999980330467224,0.8732184938321313,0.5860397265980123,-0.050561316311359406,0.9999985098838806,0.7278942428427108,0.9513809137415323,0.019797714427113533,0.9999909400939941,0.8346113743281691,0.9453185705524279,-0.019978784024715424,0.9999939799308777,0.7462431353810784,1.2151040460976308,0.1318950653076172,0.974107027053833,0.8450838201056708,1.2039864088174141,0.06382058560848236,0.979832112789154,0.7541987446332523,1.474287742732419,0.17692831158638,0.9699187278747559,0.8497653650292545,1.4683993506415332,0.12617047131061554,0.9474668502807617,0.6553525563710891,0.9338219753994819,0.028698954731225967,0.9752011895179749,0.9310460303597736,0.9414915481141612,-0.0889873281121254,0.996843159198761,0.003023386001586914,0.78125280858544,0.9483497421469801,177.77811720750466,178.69592533027688,1.0,-0.022692476277737166,-0.0018843763857017096,-0.08508127308126387,-0.009377907994514113,93.86099279008468,0.9171994145094559,35,1.1666666666666667
0.7842805623511425,0.481461700546477,0.1531391590833664,0.9999909996986389,0.6943182908349418,0.6087697699928042,-0.015955304726958275,0.999997615814209,0.8866872206740437,0.598066651531744,-0.06243894249200821,0.9999984502792358,0.7405848669729056,0.9698328092527837,0.019975055009126663,0.9999902248382568,0.8489032722475215,0.9623822950089308,-0.020153459161520004,0.999993622303009,0.7592396371289443,1.2391021410198682,0.12589141726493835,0.9742254018783569,0.860666186340988,1.2171315289476459,0.06833711266517639,0.9785568714141846,0.7698191888253119,1.5048312649189692,0.16402862966060638,0.970632791519165,0.8663552724017793,1.481461700546477,0.1520707905292511,0.9469947814941406,0.6712433509521286,0.9550607636054956,0.017198998481035233,0.9683837890625,0.9440803721566167,0.9626807809600064,-0.10407509654760361,0.9969611763954163,0.0063606202602386475,0.7947440696102136,0.9661075521308572,178.3168547870718,178.58924154965007,1.0,-0.01885594140943009,-0.01275101791634004,0.03158848665772393,-0.07948782290666487,93.36727763429816,0.9188741865071799,36,1.2
0.8061867001272732,0.5022863527378372,0.20132800936698914,0.9999847412109375,0.7154455060119409,0.637834552924481,0.014161561615765095,0.9999966025352478,0.9149464079709512,0.6221650941316417,-0.03153558447957039,0.9999983906745911,0.7638543616132825,1.006685683643701,0.017665397375822067,0.9999885559082031,0.8782250441999738,0.9989640212239,-0.01789786107838154,0.9999929070472717,0.7834410289344744,1.2820169940915216,0.1053110808134079,0.973425567150116,0.8907067638674799,1.2357088833527252,0.09552595019340515,0.9731482267379761,0.7992482815979903,1.5622361087302439,0.07354379445314407,0.9699077606201172,0.8960581843078133,1.5022863527378372,0.13886278867721558,0.9408799409866333,0.7070658999837219,0.9941308764830215,0.12302751839160919,0.9154145121574402,0.973057628291065,1.0007286364971142,-0.02641136571764946,0.9968430399894714,0.00897073745727539,0.8210397029066282,1.0028248524338006,179.15956886814664,178.13206434994663,1.0,-0.029150936057008022,-0.0002627980911141884,-0.07089603270916885,0.09603116478534683,93.6144683492477,0.9446379703851538,37,1.2333333333333334
0.8257036338112443,0.5171214661764997,0.2080371081829071,0.9999731183052063,0.7329457810336643,0.6600651117834345,0.02327587455511093,0.9999946355819702,0.9402537572003753,0.6422431828241045,-0.02054561860859394,0.9999983310699463,0.7814628368849743,1.0350548226659224,0.014111985452473164,0.9999865889549255,0.8984982972781604,1.027078495396523,-0.014402763918042183,0.9999922513961792,0.803949201462794,1.3153981393422136,0.08700411021709442,0.9717676043510437,0.9114321327668119,1.2570197470777034,0.11614036560058594,0.9607470035552979,0.8223071814026275,1.606276977156286,0.037096455693244934,0.9677445292472839,0.914969555451252,1.5171214661764998,0.14443974196910858,0.9291675686836243,0.738760778151641,1.022006990712767,0.19471770524978638,0.8316246867179871,0.9963517920190701,1.0295255124622755,0.024518094956874847,0.9964516162872314,0.009924143552780151,0.8399805670815674,1.0310666590312227,179.02538625972312,177.55977772478363,1.0,-0.03395945437317493,0.0005041686547308767,-0.03279299332424316,0.006365282424677485,93.47325478634802,0.9675123248695152,38,1.2666666666666666
0.8362281320753174,0.5270277059555952,0.19528402388095856,0.9999567866325378,0.7455311102816368,0.6737370209218244,0.01602601818740368,0.9999921321868896,0.9559713704217332,0.6550497639176859,-0.03173115476965904,0.9999982714653015,0.7935386736342509,1.0538153245076056,0.014766320586204529,0.9999847412109375,0.9120169576032673,1.045642217457286,-0.015047076158225536,0.9999917149543762,0.8181833241152703,1.33379374606643,0.08750560134649277,0.9669885635375977,0.9216167483577771,1.2745122100737536,0.11584115028381348,0.9433124661445618,0.8385681941405814,1.6343293382338917,0.04897172376513481,0.963972270488739,0.9285402674963832,1.5270277059555952,0.15528734028339386,0.9147707223892212,0.755990006348203,1.0377441810409418,0.16306306421756744,0.753233015537262,1.0107251391564247,1.0492701201254384,-0.010241584852337837,0.995750904083252,0.010220468044281006,0.8527778156187591,1.0497287709824457,178.8499381311307,179.16873010619324,1.0,-0.018437956353423473,-0.0004135991809918584,0.12139826732756223,-0.006972779169689412,93.25264753273053,0.9833036939644887,39,1.3
0.8399431075338717,0.5277112655460717,0.16630953550338745,0.9999310970306396,0.7475812154808982,0.6740618534900484,0.009656507521867752,0.9999894499778748,0.9579570180400324,0.6564389080198596,-0.0671921893954277,0.999998152256012,0.7960950792101924,1.0562432698520556,0.017662521451711655,0.9999831914901733,0.9142980086708418,1.0479394339797097,-0.01796559989452362,0.9999912977218628,0.8202779818368131,1.3370041932060985,0.12595215439796448,0.9584432244300842,0.9202978449381559,1.276115622801617,0.15384289622306824,0.9176504611968994,0.841037134605908,1.6376242856970433,0.14895251393318176,0.9596816301345825,0.927847789551397,1.5277112655460716,0.2693357765674591,0.8980834484100342,0.7603814742200483,1.0383226782385662,0.14812879264354706,0.6831234693527222,1.0116992410787942,1.0516956736941923,-0.019771048799157143,0.9951550364494324,0.009616672992706299,0.855196543940517,1.0520913519158828,179.0273251880165,179.78740103538684,1.0,0.0036921391765342712,-4.567510772318312e-05,0.16556052842853852,0.0027543317384358897,93.21593224069407,0.9872374925818941,40,1.3333333333333333
0.8263540401799901,0.5186668612997821,0.20770113170146942,0.9998865127563477,0.7336313290259384,0.6623314056452665,0.035889558494091034,0.9999860525131226,0.940520653612673,0.6438192497344704,-0.032160039991140366,0.9999980330467224,0.7822118298501832,1.0380482847365713,0.017583835870027542,0.9999802112579346,0.8982476948520955,1.0286895623478836,-0.01787704974412918,0.9999904036521912,0.8073957396086144,1.3134170001424288,0.12308105081319809,0.955575704574585,0.9030959720884507,1.2597379104279707,0.1454939991235733,0.9038664698600769,0.8289578401354724,1.611019020945643,0.13746124505996704,0.9561191201210022,0.911729494497791,1.518666861299782,0.2467283010482788,0.8830692768096924,0.7558118750234046,1.01777051562965,0.196785569190979,0.6182360649108887,0.9939030657240822,1.0338936163114012,0.009958108887076378,0.9946954250335693,0.01026877760887146,0.8402297623511393,1.0333689235422274,178.9185362873832,179.29239027707416,1.0,-0.008318839669369384,-0.012643633398272484,-0.0929525276632046,-0.0979903758088435,92.75637869844036,0.9672397342194019,41,1.3666666666666667
0.8186390521698953,0.511336609879887,0.20043185353279114,0.9998677968978882,0.7244077111101088,0.6543430923673849,0.025299644097685814,0.9999830722808838,0.9294301447276868,0.6365697637878438,-0.04576381668448448,0.9999979734420776,0.7734981605087047,1.026450115171084,0.018791425973176956,0.9999783039093018,0.8872417788427236,1.0166545829601834,-0.01906578801572323,0.9999899864196777,0.7985814275795499,1.2990353701165716,0.1379956752061844,0.9521430730819702,0.8928193563711628,1.2507124446026208,0.14525094628334045,0.893644392490387,0.8201404706307492,1.5930993934133413,0.1806209683418274,0.9537731409072876,0.9008833776491116,1.511336609879887,0.27692490816116333,0.8737684488296509,0.7519347610542008,1.0000786808938298,0.2107142210006714,0.5595254898071289,0.9814923518292936,1.0220863803585287,0.008441723883152008,0.9944654107093811,0.009970217943191528,0.8303699696757141,1.0215523490656337,178.93554205420517,179.59286077853014,1.0,-0.0038170759730482636,-0.0022450668701374976,0.034877362067570236,0.08114298147474491,92.59324783250717,0.9601668981412816,42,1.4
0.8151097787950372,0.5080392370582573,0.1935642659664154,0.9998577833175659,0.7211714922940944,0.6490618983661898,0.029891077429056168,0.9999794960021973,0.9226755045026163,0.6337382675545713,-0.04551367089152336,0.9999979138374329,0.7696220029822836,1.0207828380745139,0.018749941140413284,0.9999755620956421,0.8816822349025659,1.010782366264427,-0.019018065184354782,0.9999891519546509,0.7943981084906425,1.292715363208968,0.13503921031951904,0.9505189061164856,0.888098218074215,1.2468125213219325,0.1516096591949463,0.8785597085952759,0.81611188651282,1.5842722292424298,0.17607730627059937,0.9499163627624512,0.8959837338057,1.5080392370582572,0.3037196397781372,0.8545821309089661,0.7502776837474422,0.9849185086764712,0.23891028761863708,0.5061136484146118,0.9754812502512931,1.0148644481166615,0.020818937569856644,0.9942014813423157,0.008643627166748047,0.8256521189424247,1.0157826021694705,179.05334064452978,179.8280487751751,1.0,-0.0010312364656146415,-0.0010238906716130028,0.019713093840974423,0.008618803830165358,92.32645260060744,0.9559668865028421,43,1.4333333333333333
0.8137530138022612,0.5095433595172889,0.20818515121936798,0.9998583197593689,0.7212949097329985,0.6485706162556961,0.05454135686159134,0.9999773502349854,0.9206739891055847,0.6346301074898604,-0.026845067739486694,0.9999978542327881,0.7696520396374471,1.0209981051950985,0.01875603385269642,0.9999735355377197,0.881518771516692,1.010526459200967,-0.01902073808014393,0.9999884963035583,0.7940174077873408,1.2936283290706119,0.1347810924053192,0.9519187211990356,0.887259794850748,1.2476252626994226,0.1595573127269745,0.872279942035675,0.8156696806185465,1.5846162246458555,0.1711163967847824,0.9492251873016357,0.8958251241138928,1.509543359517289,0.30912166833877563,0.8447282314300537,0.7558025165704337,0.9769712714372182,0.2659633159637451,0.45834895968437195,0.9745409024281617,1.0142824840331452,0.04391326755285263,0.9936885833740234,0.007867574691772461,0.8255854055770695,1.0157622821980328,179.14846901809443,179.51403054989052,1.0,0.0028704643200619037,0.004015216824676259,0.030558346542594723,0.039467847379555845,92.05029767257162,0.951486747051634,44,1.4666666666666666
0.8138948414232182,0.5104364013772426,0.2085057944059372,0.9998602271080017,0.721673680871223,0.6484331669439822,0.05533934757113457,0.9999756217002869,0.9199178909315481,0.6356215248428722,-0.023750467225909233,0.9999978542327881,0.7698324468950158,1.021476328485274,0.018767166882753372,0.9999715685844421,0.8816783844645824,1.010735365741873,-0.01903160847723484,0.9999878406524658,0.7939111170812461,1.294538720478985,0.13445979356765747,0.9528018236160278,0.8868499610744385,1.2486507002165723,0.15366578102111816,0.8668030500411987,0.8155446368264114,1.5844920182534061,0.182257741689682,0.9479437470436096,0.896102543826634,1.5104364013772424,0.3046448230743408,0.8343074321746826,0.7585722302551514,0.9745815871744604,0.2603386640548706,0.4157924950122833,0.9740971825327931,1.0141422500115107,0.04876837134361267,0.9933019876480103,0.00723111629486084,0.8257554156797992,1.0161058471135735,179.22763946032742,179.2210191517426,1.0,0.0017836549536130867,0.003181759613893259,-0.00798173506045838,-0.006119893591985944,91.87053467203629,0.9503923982077522,45,1.5
0.8167357779445189,0.5155055878418527,0.19969458878040314,0.9998689889907837,0.7241201334491258,0.6506645365425584,0.04665844514966011,0.999974250793457,0.9235421632111558,0.6384945677651117,-0.04024672508239746,0.9999979734420776,0.7723362065892717,1.0251703533459178,0.021062683314085007,0.9999701380729675,0.8846255923246892,1.0148793201257376,-0.021302854642271996,0.9999876022338867,0.7964316643118181,1.3008351348449807,0.14630216360092163,0.9501142501831055,0.8887249725291211,1.264941194814676,0.15807972848415375,0.8475762605667114,0.8180131532903908,1.589276953544012,0.2007691115140915,0.9403025507926941,0.8988833849736954,1.5155055878418526,0.3287254273891449,0.8074089288711548,0.7637603985360234,0.9337932619006623,0.38380807638168335,0.375550776720047,0.9771554888026277,1.0173665952311708,0.026922831311821938,0.9926144480705261,0.006847977638244629,0.8284808994569804,1.0200248367358278,179.2835069488606,178.61757102905744,1.0,0.001517370391288552,0.00621618583287648,-0.0020908635771778026,0.023272501911772565,92.09985518890078,0.946447003708289,46,1.5333333333333334
0.8217799877497242,0.5229741102357712,0.17023247480392456,0.9998746514320374,0.7280308908336931,0.6552345660654587,0.0288053248077631,0.9999731779098511,0.9284922479937366,0.6438155931673711,-0.056003473699092865,0.9999980330467224,0.7762435336526807,1.0311529442519847,0.020660774782299995,0.999968945980072,0.8891900336677687,1.021650970812273,-0.020900685340166092,0.9999873638153076,0.8004572272556024,1.3094367624614678,0.1426745504140854,0.9483956098556519,0.8922689945135603,1.2790052209762317,0.15695342421531677,0.8304910063743591,0.8219720602384881,1.5963626185957143,0.18960289657115936,0.9349389672279358,0.9034757776048588,1.5229741102357712,0.32205435633659363,0.7858482003211975,0.7741804973671593,0.9397400640273561,0.32927244901657104,0.3395290672779083,0.9822848919846379,1.0228876004462213,0.0008192430250346661,0.9920442700386047,0.006394386291503906,0.8327167836602247,1.0264019575321288,179.31541219926643,178.0553985755196,1.0,0.001692009277979821,0.01109621211993208,0.0012976105684199507,0.03762101978833878,92.49959454671084,0.9427738697910464,47,1.5666666666666667
0.8257243410095486,0.5306239137538394,0.17789523303508759,0.9998733997344971,0.7348699274446517,0.6618344024395545,0.0349825918674469,0.9999720454216003,0.933265538222791,0.6512697653823257,-0.052548445761203766,0.9999980330467224,0.7821646100432763,1.0370045697533459,0.0207225289195776,0.9999672770500183,0.8935442802901828,1.0292712644107165,-0.02096107415854931,0.9999868869781494,0.8062822625436417,1.3180020775932473,0.14844825863838196,0.9449024200439453,0.8949124097188843,1.291276552022953,0.16223861277103424,0.8152831792831421,0.8261931817361512,1.603845627560263,0.21004316210746765,0.9265608787536621,0.9079400112729245,1.5306239137538395,0.322549968957901,0.7650260329246521,0.7824341079061957,0.9513987874841984,0.31701719760894775,0.3073159158229828,0.9872883098297153,1.0282254629815544,0.019823458045721054,0.9913149476051331,0.005888164043426514,0.8378544451667296,1.0331379170820312,179.07899852147068,177.18366524077618,1.0,0.009314187886880432,0.014599512421327914,0.0588828147520235,0.026686769108191635,93.21313533643395,0.9397331779542815,48,1.6
0.8364069145721328,0.5476739420244521,0.22251133620738983,0.999859094619751,0.7516170691097612,0.6796123539985729,0.0692681148648262,0.9999697804450989,0.945322820262977,0.6651789601973215,-0.01371493749320507,0.9999979138374329,0.8015184819967497,1.0510367568977401,0.021391799673438072,0.9999658465385437,0.9088536036611757,1.0442463555695545,-0.02162747271358967,0.9999864101409912,0.8215428114159155,1.334992987772252,0.14573702216148376,0.9425151348114014,0.9062996753622334,1.309839518116763,0.15624971687793732,0.8098785877227783,0.8373312093742459,1.6229647317655,0.21202513575553894,0.9187474250793457,0.9197008939344772,1.547673942024452,0.3115103244781494,0.7495366930961609,0.8031388546738003,0.9971659725203857,0.28782203793525696,0.278218537569046,1.0032243899881765,1.0456650481714267,0.07298766076564789,0.9894251227378845,0.007942646741867065,0.8551860428289627,1.0476415562336474,179.10440094392112,176.2240381481342,1.0,0.051871688091587896,0.009967791389414834,0.33365749731835137,-0.03788606187459164,94.03204091810545,0.9296425877236969,49,1.6333333333333333
0.8469649237012669,0.5523922684531027,0.2155817449092865,0.9998570084571838,0.7623295007979308,0.684917093572357,0.06987745314836502,0.9999680519104004,0.9528916011521555,0.6718374507144366,-0.01636560633778572,0.9999978542327881,0.8151525212654551,1.056509286695565,0.022347841411828995,0.9999649524688721,0.9186021297024034,1.0494710578625033,-0.022578168660402298,0.9999860525131226,0.8321267850028194,1.341642953715658,0.14549270272254944,0.9436649084091187,0.9121590832395339,1.315947512916029,0.15365660190582275,0.8083985447883606,0.8417857212837433,1.628474155967717,0.2007921189069748,0.9175523519515991,0.9245075797985252,1.5523922684531029,0.30589428544044495,0.7420492768287659,0.8110468242788686,1.0031978193519453,0.302224725484848,0.252013623714447,1.010458989839173,1.0529079298865915,0.07989358901977539,0.9877722859382629,0.00716167688369751,0.8668773254839293,1.052990172279034,178.52183714033583,175.62533708490275,1.0,0.05493658563213476,0.0006063770280698641,0.02084036022036149,-0.06994713850714165,94.19843267391623,0.9317502458912825,50,1.6666666666666667
0.8598199856119032,0.5568040157881382,0.22165486216545105,0.9998511075973511,0.773240176849401,0.6899125839337591,0.0769006535410881,0.9999663233757019,0.9626166842566206,0.6778090820672381,-0.016612019389867783,0.9999976754188538,0.8254604919265999,1.0629122765248091,0.02546178176999092,0.9999637007713318,0.9279441963501018,1.05594459586127,-0.025686144828796387,0.99998539686203,0.8396058485018167,1.3483448267629552,0.14955607056617737,0.9429323077201843,0.9201507716599832,1.3233087935496468,0.15244337916374207,0.8023130297660828,0.8468397056715363,1.6337593070058247,0.2064114362001419,0.9146360754966736,0.9301406316547549,1.5568040157881382,0.3012513518333435,0.7296315431594849,0.8179489044052348,1.017667746230243,0.2872157394886017,0.22923748195171356,1.019606601965862,1.0592882020781809,0.05850972607731819,0.9861806631088257,0.0065874457359313965,0.8767023441383509,1.0594284361930397,178.6147350468408,175.88050392593973,1.0,0.03515095472010577,0.0006435570998627164,-0.15392813449574422,0.00025648864856094104,94.08021399475854,0.9382877234113237,51,1.7
0.8693651382519398,0.5581798735486112,0.22913475334644318,0.9998425245285034,0.7782142687999748,0.6923899821171882,0.08128909766674042,0.9999647736549377,0.9654538980407841,0.6798022892454927,-0.011227267794311047,0.9999974966049194,0.830478025365703,1.0643558679566147,0.02531859651207924,0.9999616742134094,0.9323695997460097,1.0572208321164427,-0.02554498240351677,0.9999843835830688,0.8426303783280317,1.3464559099667515,0.1404554396867752,0.9429917335510254,0.9251645104678912,1.3226240373407847,0.151773601770401,0.7942007780075073,0.8477189548158615,1.6286456291478433,0.17614051699638367,0.9135445952415466,0.9314445435497777,1.5581798735486112,0.28934669494628906,0.7201226353645325,0.8209477978005633,1.0254969299272672,0.2795836329460144,0.20873726904392242,1.0253160407682504,1.0625568430478485,0.049725670367479324,0.9850195050239563,0.0068438053131103516,0.8814238125558563,1.0607883500365287,178.5664000881262,176.91776116961003,1.0,0.026525366749936427,0.0017477658497248706,-0.060411044164911554,0.007695990083904263,93.99244858601391,0.943802826906645,52,1.7333333333333334
0.8694754151474517,0.5560855216424586,0.2396337240934372,0.999844491481781,0.7804354370770326,0.6918818888192807,0.08114437013864517,0.999965250492096,0.9675055578096238,0.6834324633676195,0.006983951665461063,0.9999974966049194,0.834720347203034,1.0612720350378377,0.02305537834763527,0.9999613165855408,0.936096042979701,1.053018659688502,-0.023281216621398926,0.9999842047691345,0.8447703648891512,1.3354421630572955,0.11930596828460693,0.9436374306678772,0.9291570409497256,1.3198571380002748,0.13678498566150665,0.7930541038513184,0.8470872161263227,1.6118304329214383,0.1400464028120041,0.9124311208724976,0.9309540665176481,1.5560855216424585,0.24619917571544647,0.7170283198356628,0.8157601507390421,1.0340205780888472,0.2765461802482605,0.19083163142204285,1.026733711677365,1.062479213132302,0.07351311296224594,0.9846887588500977,0.004599541425704956,0.8854081950913675,1.05714534736317,178.3809741259877,178.07453805993018,1.0,0.03929694231410217,-0.018093647735036786,0.09922009014378394,-0.15373394729364565,93.70584380918683,0.9515708548134627,53,1.7666666666666666
0.8723004285559669,0.5548867581560363,0.18641473352909088,0.9998524785041809,0.7841391798136308,0.6906748100740868,0.044184695929288864,0.9999670386314392,0.9692970038162104,0.681799669267958,-0.05151466652750969,0.9999975562095642,0.8368843613140093,1.0533524040857116,0.02926718257367611,0.9999626278877258,0.9377550090120844,1.0460812650093168,-0.02947274222970009,0.9999846816062927,0.845177710364507,1.326534095660281,0.14700548350811005,0.9374783039093018,0.9317924912111872,1.3157287822247579,0.11367170512676239,0.7886106371879578,0.8459174467140715,1.5924789934510417,0.19511201977729797,0.9067307114601135,0.9305717020055846,1.5548867581560362,0.22751612961292267,0.7120811939239502,0.8086080678732984,1.0357264874341896,0.18129569292068481,0.18058326840400696,1.0279546071174712,1.0614691592671612,-0.03371332213282585,0.9845417141914368,0.004836350679397583,0.8873196851630469,1.049716834547514,178.4204980624216,179.02573239564518,1.0,0.02237804221463869,-0.04982569031718351,-0.1330373151990345,-0.2502745312738764,94.15170106167882,0.9448235471967293,54,1.8
0.873088255065825,0.5457084888654319,0.10406769812107086,0.9998661279678345,0.7856300306357805,0.6852788134498082,-0.03935897722840309,0.9999699592590332,0.9698068305477152,0.6774736184637903,-0.1057618036866188,0.999997615814209,0.8351557547275303,1.0398014961538846,0.02844347432255745,0.999964714050293,0.9371748945848071,1.0357279293806316,-0.028656136244535446,0.9999851584434509,0.8407957558065922,1.3072819697053422,0.14565631747245789,0.9370620846748352,0.9297052203526704,1.3025439967836998,0.10631944984197617,0.7914010882377625,0.8398375446472665,1.5687641871597746,0.19150418043136597,0.9098888039588928,0.9254767560097864,1.5457084888654318,0.22197671234607697,0.7225109338760376,0.7871103684343119,1.0336210396150534,0.011030138470232487,0.2477720081806183,1.024343393118284,1.0555532954240385,-0.18784254789352417,0.9857016205787659,0.004276901483535767,0.8861653246561687,1.0377647127672582,178.5820983955266,179.39262353232033,1.0,0.029512759318601537,-0.04858848220341781,0.057250179030187066,0.007590164272552342,95.66600435748401,0.9475339677889485,55,1.8333333333333333
0.8748037947564586,0.5436198354816927,0.10731212794780731,0.9998782277107239,0.7876509939126769,0.6839536211412516,-0.03635738044977188,0.9999725222587585,0.9709318880638825,0.6766699040916914,-0.10372406244277954,0.9999976754188538,0.836290269709433,1.0367589986952086,0.027914410457015038,0.9999663829803467,0.9378600312536728,1.0331363298777,-0.02812632918357849,0.9999855160713196,0.8401706677115724,1.3035137604335199,0.13734498620033264,0.9369553327560425,0.929974311885909,1.299734747145436,0.10017994791269302,0.7940926551818848,0.8367773512311149,1.564966618063614,0.17230811715126038,0.9130196571350098,0.9254070528317104,1.5436198354816926,0.2080685794353485,0.7315999865531921,0.783653011386944,1.0344343803882714,0.028740206733345985,0.30495667457580566,1.024815716294149,1.0533218361799153,-0.17482315003871918,0.9867718815803528,0.003993093967437744,0.8870751504815529,1.0349476642864543,178.4230124084769,179.37859916787897,1.0,0.010751090771250275,-0.01855510013693504,-0.15039030620818383,0.24073718208907985,95.80687107456995,0.9462807588891922,56,1.8666666666666667
0.8829563282099957,0.5407326441093987,0.09155489504337311,0.999889075756073,0.7886981032724846,0.6816958215921027,-0.0566212460398674,0.9999749064445496,0.9744664243391682,0.6760697417976308,-0.10987236350774765,0.9999977350234985,0.8356604758902367,1.0345743639120168,0.026454225182533264,0.9999681711196899,0.9393902404753759,1.031048170049801,-0.026625338941812515,0.9999858140945435,0.8384064346663516,1.292621250279256,0.1373504102230072,0.938866913318634,0.9290000176857627,1.2960190867354284,0.10970648378133774,0.799997091293335,0.8344406465263806,1.543254764061619,0.17430314421653748,0.9180839657783508,0.9238740760680926,1.5407326441093987,0.22227592766284943,0.7460032105445862,0.7761247738148288,1.0322424472842209,-0.027862021699547768,0.36744925379753113,1.0228353575936426,1.049453298356754,-0.20384755730628967,0.9877820611000061,0.0030906498432159424,0.8875253581828063,1.032811266980909,178.48380176515363,178.95441081974803,1.0,0.01658229443931843,-0.0001738698979061161,0.0429265963074242,0.1345288685068298,95.63362296221729,0.9663169810471248,57,1.9
0.91551978754641,0.5497070290189547,0.09653256833553314,0.9998993873596191,0.8103079161941299,0.6961446651378396,-0.06775835901498795,0.9999772310256958,1.0052034316764435,0.6972502515821897,-0.0965486392378807,0.9999977946281433,0.8568297716274734,1.0547176013487511,0.017793484032154083,0.9999701976776123,0.9652138964308711,1.053211767991204,-0.017961587756872177,0.9999862313270569,0.8569039653611749,1.303615064721556,0.11058081686496735,0.9430821537971497,0.9514989241354102,1.3217944148199376,0.08876243978738785,0.8131254315376282,0.8529681485968512,1.5497070290189547,0.12371212244033813,0.9243089556694031,0.9443544779189911,1.5749241371845464,0.1609804332256317,0.7650057673454285,0.7886788347347335,1.0543632680465445,-0.04597197473049164,0.42915886640548706,1.046276483780407,1.0695583443330072,-0.17682233452796936,0.9888147711753845,0.0005941987037658691,0.9110218340291723,1.0539646846699777,179.06665161557098,178.69348530150597,1.0,0.030024595421583682,-0.01322789357620163,0.1017562244320077,-0.10156006653179164,96.59637010487884,0.9916907207649545,58,1.9333333333333333
0.9363007902320194,0.5631612711949474,0.10842083394527435,0.9999082684516907,0.8308389825073249,0.7130836352320311,-0.07132454961538315,0.9999793767929077,1.0344410775904602,0.715752678572798,-0.0866309255361557,0.9999978542327881,0.8814490069510219,1.0787777367564546,0.010223640128970146,0.9999720454216003,0.9919158958220985,1.0783648598834616,-0.010381076484918594,0.9999866485595703,0.8784805313045938,1.3247479408845302,0.10919506847858429,0.9459239840507507,0.9757426884067435,1.352135175024744,0.0877261608839035,0.8242641091346741,0.8743364245510404,1.5631612711949474,0.12806975841522217,0.9291394352912903,0.9667184769956061,1.6136348440358748,0.1498371958732605,0.7816718220710754,0.8056903613189587,1.0795180520300982,-0.06756586581468582,0.4849652945995331,1.0715001285837646,1.0900326648776473,-0.1306040734052658,0.9896959066390991,0.0014002323150634766,0.9366824513865601,1.078571298319958,179.69562041780418,178.595595744318,1.0,0.0254866705387376,-0.008843722524111858,-0.03977823703281774,0.035518594664914103,97.66522068218262,1.0104406485314346,59,1.9666666666666666
0.9483065398826134,0.5657039056998657,0.10786404460668564,0.9999165534973145,0.8494016848615281,0.7247514176122901,-0.08518220484256744,0.9999813437461853,1.0521392123738378,0.7272257208811285,-0.06651023775339127,0.9999979138374329,0.8979091048839641,1.0916796723458164,-0.0004556652274914086,0.9999741315841675,1.0080677751320481,1.0933643952800962,0.0002633710973896086,0.9999873638153076,0.892805157813854,1.3355675421212494,0.09061358869075775,0.948864758014679,0.9941833343978106,1.372948248965715,0.09594839066267014,0.8346533179283142,0.8901997679247093,1.5657039056998656,0.11073075234889984,0.9338966012001038,0.9826705797851496,1.6404598911322732,0.15599504113197327,0.7980172634124756,0.8117150322398015,1.0974525654113574,-0.06206059455871582,0.5357879400253296,1.088473305162607,1.106076217110396,-0.10660102218389511,0.9903947710990906,0.001276940107345581,0.9529884400080061,1.0925220338129564,179.44974323100018,179.62125140543066,1.0,0.006412606850099485,-0.0309113131945869,-0.15472567878145985,-0.17397543765549767,98.40694751760319,1.031338908416176,60,2.0
0.9661156634268061,0.5751370220968378,0.16675928235054016,0.9999215006828308,0.8697483444628326,0.7380098199144881,-0.06197825074195862,0.9999830722808838,1.0759022297268233,0.7404705948953086,-0.004848509095609188,0.9999977946281433,0.9142760315503164,1.1066202243961738,-0.002543271752074361,0.9999755620956421,1.0274023009014015,1.1089254686532621,0.002346503082662821,0.9999873638153076,0.910735074214283,1.3420696131510141,0.07281767576932907,0.9511547088623047,1.015379181609454,1.3965280811221892,0.08545781672000885,0.8424782156944275,0.9086928139921394,1.5751370220968377,0.060417331755161285,0.9357222318649292,1.0012527785007697,1.671589256245959,0.09929007291793823,0.8071277141571045,0.8205073644062495,1.1179123551712082,-0.021543556824326515,0.5807079076766968,1.1069017450099972,1.1192083856893609,-0.027477290481328964,0.9899949431419373,0.0012462437152862549,0.970839166225859,1.107772846524718,179.64042861062924,179.45386035328224,1.0,-0.002152470924896862,-0.04203213037202125,-0.06592440105193052,-0.07992950533481362,98.05527628739267,1.0326080737694936,61,2.033333333333333
0.9738981799066643,0.5829382899875838,0.1677248626947403,0.9999154806137085,0.8797639492124505,0.7434335589817753,-0.04948233813047409,0.9999845623970032,1.0882763107193316,0.7469435775823109,-0.00964200496673584,0.9999973177909851,0.9236672787559048,1.1171289050421247,-0.0021348665468394756,0.9999768733978271,1.0374520120451551,1.1184335589817753,0.0019463266944512725,0.9999873638153076,0.9201857437122102,1.3479365774062957,0.09283407777547836,0.949163556098938,1.02616669600255,1.4095711886741291,0.08911597728729248,0.8463311791419983,0.9200553972475013,1.5829382899875837,0.08322989195585251,0.9349915385246277,1.0117877921497176,1.689226793334253,0.1083221286535263,0.8155966401100159,0.8266298659905142,1.1294544952880228,-0.027092736214399338,0.6203315258026123,1.1133169845249251,1.1231746737770505,-0.007152996025979519,0.9854427576065063,0.0017591416835784912,0.98055964540053,1.11778123201195,179.1675878044195,179.27647993790015,1.0,-0.0036387283684246674,-0.012347155810161131,-0.011074160399980196,0.22794356726134224,97.35756125920344,1.031579825526,62,2.066666666666667
0.9677711932245565,0.5806062318059632,0.17261698842048645,0.9998729825019836,0.8775346897614259,0.738506601545553,-0.04713860899209976,0.9999858140945435,1.0829265976848375,0.7432119153453147,-0.00011992872168775648,0.9999927282333374,0.921482858144272,1.1135462993749985,-0.0007248761248774827,0.999978244304657,1.0323076548780663,1.1141892784220624,0.0005531632923521101,0.999987006187439,0.9170593138403696,1.3386544358184436,0.16131728887557983,0.9453279972076416,1.0220672279522918,1.402823768393525,0.13188216090202332,0.8439652323722839,0.9178503402633041,1.580606231805963,0.22809770703315735,0.9343235492706299,1.0073930751357896,1.6812950220742129,0.1815924346446991,0.8211405277252197,0.8235912812704205,1.124110879611556,-0.025986483320593834,0.6535019278526306,1.0943749633359283,1.1122558424401807,0.0004464275552891195,0.908827006816864,0.002368927001953125,0.9768952565111692,1.1138677888985304,178.68692009847396,179.01550370104002,1.0,0.006076825092183331,0.008989350629510803,0.0758324582358234,0.16638279006490148,97.0160061364098,1.0310426878638699,63,2.1
0.963207193360954,0.5818923790068194,0.16520686447620392,0.9998301863670349,0.8767001213536574,0.7347217065769249,-0.04443398863077164,0.9999868869781494,1.0769887739908683,0.7398381786175398,-0.011603386141359806,0.9999832510948181,0.9186073367971336,1.1100320320365167,0.0028730491176247597,0.9999797940254211,1.02841984050359,1.110143918387337,-0.002998571377247572,0.9999868869781494,0.9180367046180296,1.3338795996755886,0.19104991853237152,0.9388402700424194,1.0174976576374342,1.3958043915333747,0.13692113757133484,0.8410599827766418,0.919091313056477,1.5818923790068193,0.2977389693260193,0.9303801655769348,1.003607833742306,1.6737957568309918,0.2231680154800415,0.8242315649986267,0.8211579211586757,1.119316948565644,-0.030468851327896118,0.6795953512191772,1.0672699883668848,1.0843428551486762,-0.007789504714310169,0.8209500908851624,0.002586662769317627,0.9735135886503617,1.1100879752119268,179.61030831709135,179.32922659148107,1.0,0.0053355384548405375,0.006686609591314752,-0.0056807217310629425,-0.01797219953930698,96.42964289942749,1.0200717886597737,64,2.1333333333333333
0.9696213612002247,0.5920209623290075,0.1431649625301361,0.9997765421867371,0.8869886830494027,0.7361620638524917,-0.07300297915935516,0.9999878406524658,1.0827118616321156,0.7441963105005541,-0.01748012751340866,0.9999749660491943,0.9274446802550266,1.1172761926352008,0.002132310764864087,0.9999811053276062,1.0348815987494822,1.1174102410754434,-0.002262829104438424,0.9999867677688599,0.9273272988996106,1.3457490659463165,0.18296445906162262,0.9351078271865845,1.0236336297168072,1.404698943514419,0.1395285427570343,0.8410392999649048,0.9297635996442852,1.5920209623290074,0.2850242257118225,0.9300888180732727,1.0098135914086102,1.6861571319375332,0.2230728417634964,0.8310331702232361,0.8278504259033308,1.1261818727717783,-0.06792965531349182,0.7001591324806213,1.0647166296046455,1.0880391601758455,0.0053187888115644455,0.7415463924407959,0.004036843776702881,0.9811631395022544,1.1173432168553221,179.40377039883828,179.43105258684858,1.0,0.013633597962287476,0.0033512837377968714,0.06868506563783895,-0.028060297787525338,96.13085323859141,1.0068546279743407,65,2.1666666666666665
0.9718999722435695,0.5948998301924584,0.1466313898563385,0.9997308254241943,0.8899193042705081,0.7364707609481882,-0.06536033004522324,0.9999886751174927,1.0846704265634388,0.7457324339536628,-0.014246128499507904,0.9999679923057556,0.930691598716904,1.1200605292265704,0.002564171561971307,0.9999822974205017,1.0371678217977727,1.1198343172898788,-0.002700000535696745,0.9999867081642151,0.9300099316906519,1.3496435349210962,0.18418633937835693,0.933454692363739,1.0256257826927067,1.4077385165941254,0.13671450316905975,0.8441281914710999,0.9329099140382754,1.5948998301924584,0.28271913528442383,0.930901288986206,1.0119188608808476,1.6929685888737724,0.21420323848724365,0.838848888874054,0.8298707929245471,1.128354649915334,-0.04604806751012802,0.7191976308822632,1.0646213684098538,1.0903585334381778,0.02386704459786415,0.6699237823486328,0.0046440064907073975,0.9839297102573383,1.1199474232582245,179.1524300495602,179.54447999832578,1.0,0.005612308398620782,0.002281495240831821,-0.06054926464242615,-0.008099119658679531,95.94554171886118,1.0020417036989693,66,2.2
0.9786701845075719,0.603001904170671,0.15342773497104645,0.9996045231819153,0.8972931527455276,0.739530523438013,-0.0589635856449604,0.9999892115592957,1.090399517689686,0.7492075904182609,-0.012231887318193913,0.9999562501907349,0.9358131525067601,1.1239452744930667,0.0031183173414319754,0.9999831318855286,1.04192255576713,1.1247250890901168,-0.0032600872218608856,0.9999861717224121,0.9351297999725418,1.3545420141230966,0.17526790499687195,0.9275931715965271,1.0298979865932059,1.4131015299026426,0.13219144940376282,0.8371829986572266,0.9376025357106615,1.603001904170671,0.26088568568229675,0.9270090460777283,1.0164516764461848,1.6999732580419873,0.21335169672966003,0.8374224901199341,0.8335908838575274,1.132934392665063,-0.03480817750096321,0.7286964654922485,1.0709369832922455,1.094513481408967,0.0253545343875885,0.6050807237625122,0.004831463098526001,0.9888678541369451,1.1243351817915919,179.26000636798398,179.70409079683725,1.0,0.005403989714174458,-0.003424195575450911,-0.0018056304109368621,-0.04438452731808393,96.14324893266509,0.9888972076896065,67,2.2333333333333334
0.978927361586328,0.6004571592708802,0.16876977682113647,0.9995775818824768,0.8957019514632675,0.7364035480372124,-0.050209157168865204,0.9999898076057434,1.0882506904885976,0.7470397058734362,-0.00421928521245718,0.9999533891677856,0.9322211327853176,1.1177069798347963,0.0031534868758171797,0.9999839663505554,1.037798625692584,1.1190431946078698,-0.0032944143749773502,0.9999858140945435,0.933418482992598,1.3499523782518592,0.17402009665966034,0.9313328862190247,1.0256110011172177,1.4049154014000353,0.12087390571832657,0.8462511301040649,0.9363039650232498,1.6004571592708803,0.2553282678127289,0.9316231608390808,1.012263833639299,1.6916839266524022,0.17884807288646698,0.8481051921844482,0.8341851271532181,1.127073204572116,-0.027596786618232727,0.7431301474571228,1.061518786009823,1.0740695033796521,0.018712792545557022,0.5462934970855713,0.005332320928573608,0.9850098792389509,1.1183750872213332,179.63544598911975,179.77640530592996,1.0,0.0017715887528055717,-0.010413570988732048,-0.028511378889124993,-0.05531154561096464,96.19590407977125,0.9813325434773899,68,2.2666666666666666
0.9790980044917853,0.6042093710691525,0.17520548403263092,0.9995551109313965,0.8957774219969931,0.736957498421117,-0.041705422103405,0.9999903440475464,1.0889009879738374,0.7495159837214427,0.0009402938885614276,0.9999523162841797,0.9344818884154488,1.1145429044498563,0.00213053566403687,0.999984622001648,1.0391552273996048,1.117368593387776,-0.0022748878691345453,0.99998539686203,0.9368129717314504,1.3508298237790488,0.17081241309642792,0.9336321949958801,1.0262841779980574,1.403194483642201,0.1012708991765976,0.8524842262268066,0.9417080444266978,1.6042093710691525,0.2513543367385864,0.934848964214325,1.0132852236064782,1.6930067262557176,0.13412684202194214,0.8569490909576416,0.8418775453093016,1.1274883172177013,-0.02571992576122284,0.7503578662872314,1.0566885624145417,1.069850640286431,0.018622908741235733,0.4933244287967682,0.0062912702560424805,0.9868185579075267,1.115955748918816,179.45846489593262,179.98981831897655,1.0,0.007624596648750546,-0.023548205126918346,0.04213225375237667,-0.09451298348803484,97.39901526723058,0.9607098954631831,69,2.3
0.9673502933462026,0.5853176880458941,0.18199403584003448,0.9995606541633606,0.8836447435985845,0.7276670445121922,-0.029870530590415,0.9999909400939941,1.0765749832272065,0.7437273981394211,0.007818417623639107,0.9999520182609558,0.9228336957697787,1.0979324382126234,0.0021569549571722746,0.9999855160713196,1.0259175637316227,1.1018660415631645,-0.0022972982842475176,0.9999856352806091,0.9243665957614026,1.334912773837661,0.16895705461502075,0.9369406700134277,1.012547964433102,1.384078351589471,0.10029925405979156,0.8606560826301575,0.9337727525249647,1.5853176880458941,0.24755671620368958,0.9385122060775757,1.0009145592546878,1.6684960592892846,0.14319829642772675,0.8665664792060852,0.8354511126667691,1.1131746225490018,0.021543417125940323,0.7546786665916443,1.0430285738385303,1.0559052392086414,0.04207896813750267,0.4462437927722931,0.00814858078956604,0.9743756297507007,1.099899239887894,178.2193758227569,179.62991973998203,1.0,0.00025715803839153654,-0.014984314170248494,-0.05594498783588009,0.0636017378615053,98.22700587339936,0.9764218629521457,70,2.3333333333333335
0.9826518024002553,0.6122305742267613,0.17668750882148743,0.999566376209259,0.8974463521427055,0.7456938291047144,-0.02949931100010872,0.9999913573265076,1.0937873761986874,0.7614768790293911,0.000993558089248836,0.9999503493309021,0.9380172149528972,1.1162934332509409,0.005580380093306303,0.9999862909317017,1.0424943742618038,1.1197272304234906,-0.005706449504941702,0.9999858140945435,0.9410706796882718,1.357607588978299,0.17191167175769806,0.9386471509933472,1.0283293639505622,1.4030014085612705,0.08953598141670227,0.8678060173988342,0.9528689846986488,1.6122305742267613,0.2520601153373718,0.9406293034553528,1.0173739271995599,1.6919812299285988,0.13311146199703217,0.8744785189628601,0.8538270988801654,1.1312864471571629,0.007836450822651386,0.7621250152587891,1.0597082526049728,1.0722010180205699,0.009719805791974068,0.40521809458732605,0.007879257202148438,0.9902557946073505,1.1180103318372159,178.07197166531125,179.30841747101414,1.0,-0.00019945603948962065,0.0011777404236529984,-0.003491216209640917,0.12430062115668403,98.12992870640427,0.9470433277236195,71,2.3666666666666667
0.9910069053635585,0.6272520150856727,0.17313683032989502,0.9995932579040527,0.9051588566055887,0.7564936861883514,-0.02868826687335968,0.9999918937683105,1.0982049644108278,0.7683882608879729,-0.0047605205327272415,0.9999513030052185,0.9462191537070777,1.1263369991584877,0.007298068609088659,0.9999869465827942,1.0514088571325502,1.129766283847715,-0.007413762155920267,0.9999858140945435,0.9517535140351525,1.3750287344571204,0.17491164803504944,0.9433320760726929,1.036960717399949,1.4121793386651398,0.09278620779514313,0.8784247636795044,0.9651175584832399,1.6272520150856729,0.25296205282211304,0.9452986121177673,1.0265197734920786,1.7024006980222202,0.13830770552158356,0.8848445415496826,0.8645240432652846,1.1431653185385835,-0.01875927485525608,0.7795790433883667,1.0684196557478038,1.0743202994779348,-0.013998816721141338,0.3698633313179016,0.005886107683181763,0.9988140054198139,1.1280516415031014,178.24186462013589,179.13169656863855,1.0,-0.0014331831913543165,0.0014160669581186301,-0.009862981162401554,0.0018248207592627967,98.20231558568759,0.9330744884720963,72,2.4
0.999391824730722,0.6432322989347448,0.1713791936635971,0.9995920658111572,0.9088138411497516,0.7759015201159047,-0.029206642881035805,0.9999921321868896,1.102367961604087,0.7777625291432518,-0.008492675609886646,0.9999493360519409,0.9551783582514736,1.13992342293835,0.007235287688672543,0.9999869465827942,1.0597516696697424,1.1410542811325146,-0.007354234345257282,0.9999846816062927,0.9610409684057143,1.3903270945609174,0.17250727117061615,0.9472723603248596,1.0454937842626835,1.4243385759517089,0.09450812637805939,0.8864056468009949,0.9784666309577021,1.6432322989347448,0.25179076194763184,0.9490293264389038,1.0364943468947339,1.7079532871289573,0.14245153963565826,0.892856776714325,0.8719106389750112,1.158007060354251,-0.017221640795469284,0.79314124584198,1.0810753818105734,1.0846856396028266,-0.015584466978907585,0.3389991819858551,0.0009121298789978027,1.007465013960608,1.1404888520354322,177.39963873594016,178.93615140937357,1.0,-0.007957500878278782,0.012490093378546377,-0.05243181354449504,0.08907394983387948,97.87810519757934,0.9293898815198561,73,2.433333333333333
1.0005684791833853,0.652399218740018,0.17045368254184723,0.9995750784873962,0.9114933114899736,0.7843468501857751,-0.02268134616315365,0.9999922513961792,1.0998829357147797,0.7814416091671685,-0.009128517471253872,0.9999455809593201,0.9572087824929197,1.1488488067286318,0.008869554847478867,0.9999870657920837,1.0602191178834113,1.1475716084170622,-0.00897672213613987,0.999984085559845,0.965878349856358,1.4017377404214864,0.17332571744918823,0.9473770260810852,1.0500588744894677,1.431659344825143,0.09280867874622345,0.8889598846435547,0.9853550739074902,1.652399218740018,0.2509992718696594,0.9483453631401062,1.0421894206384659,1.7117153356536707,0.1439363658428192,0.8950895071029663,0.8761655000076722,1.1670244904549112,0.012614503502845764,0.8017309308052063,1.0876093118100678,1.0930912631309124,0.00864796619862318,0.31530147790908813,0.0014162957668304443,1.0087139501881655,1.148210207572847,177.52042189995296,179.56128404093354,1.0,-0.030965207632653046,0.01160918274092002,-0.1698934754852733,-0.007015418998483962,96.43829369696999,0.928831042363687,74,2.466666666666667
0.9990539164904795,0.650197038074589,0.1737026870250702,0.9996011853218079,0.9064599892621936,0.7881955772292242,-0.012389644980430603,0.9999927282333374,1.0969860604739121,0.7820787686500311,-0.009187573567032814,0.999947726726532,0.9529434554793957,1.1487947842355604,0.013233189471065998,0.9999877214431763,1.0572214559783253,1.1475819977246804,-0.013335652649402618,0.9999846816062927,0.9638133602249181,1.4011905724676312,0.1804104745388031,0.9483286738395691,1.047627850101788,1.4276867790560328,0.08120007812976837,0.8961164951324463,0.9838944518745957,1.650197038074589,0.2604566216468811,0.9488611221313477,1.0420392516153625,1.7055397141430406,0.12892475724220276,0.9006136059761047,0.8742712659883498,1.168112810662692,0.015598250553011894,0.8162320256233215,1.096742280604689,1.0944213593221745,0.03573193401098251,0.3179176151752472,0.0029821693897247314,1.0050824557288605,1.1481883909801205,177.85539567334348,179.1906468574964,1.0,-0.0291755448512373,0.0005950295432505075,0.014692593973507737,-0.09054358708300767,96.67893558982522,0.9401351053666508,75,2.5
1.0066898779316413,0.6680867629769889,0.1652417927980423,0.999602735042572,0.9139322451335227,0.8014135046664809,-0.017688164487481117,0.999993085861206,1.1080158211850266,0.792873027892262,-0.016305867582559586,0.9999485611915588,0.9622417829425408,1.1650128769518833,0.014416533522307873,0.999988317489624,1.0689236951102297,1.1632349928261632,-0.014530462212860584,0.9999851584434509,0.9746302506240107,1.4189703583694917,0.1791480928659439,0.9491441249847412,1.0606477312915354,1.439365317683655,0.07952011376619339,0.9024364352226257,0.9962075524740825,1.6680867629769889,0.2590239942073822,0.9506372213363647,1.056331093104283,1.711871312928373,0.12341126054525375,0.9072058200836182,0.8832863704538967,1.1851364423782362,0.010087366215884686,0.8290786147117615,1.114340823734381,1.112510371765613,0.00041862562648020685,0.31529325246810913,0.004105895757675171,1.0155827390263852,1.1641239348890233,177.842430871992,179.19080862099312,1.0,-0.029576719859772126,-0.002062406764837249,8.258576702987791e-05,-0.02146454717251053,96.61350064209637,0.9432493864204216,76,2.533333333333333
1.0105149412638512,0.6799014069220723,0.15785835683345795,0.999606192111969,0.9181677828098065,0.8083453337023159,-0.019796008244156837,0.9999933838844299,1.1123525082432177,0.7999198843765725,-0.02092345431447029,0.9999498724937439,0.9681151440584755,1.1743104648486922,0.014047588221728802,0.9999887943267822,1.075887090581328,1.1721248116686138,-0.014164773747324944,0.9999855756759644,0.9801558561915187,1.430252576655787,0.17894086241722107,0.9501911401748657,1.0685528432892293,1.4505320390950747,0.07962106168270111,0.9078320860862732,1.0032808541217715,1.6799014069220723,0.25556665658950806,0.9522238969802856,1.064734136034979,1.7244073790100691,0.12407734245061874,0.9129347205162048,0.8885979822134819,1.1945163223867183,-0.00047440166235901415,0.8405148386955261,1.1244467057714054,1.1317754545649379,-0.01811608485877514,0.3158782720565796,0.004018664360046387,1.0220011173199017,1.173217638258653,177.40126277109164,179.2898087453642,1.0,-0.0124781445945627,-0.0011795578209387759,0.13099469408454814,0.006795777449103641,96.60995959791444,0.9326651970564784,77,2.566666666666667
1.0188523705939239,0.6992736811913507,0.12760019302368164,0.9996188282966614,0.9284496018762707,0.8229044883786453,-0.03288430720567703,0.9999937415122986,1.1264888710647685,0.8146043637508155,-0.05410576984286308,0.9999536871910095,0.9788453777289307,1.1951504290903183,0.017815865576267242,0.9999893307685852,1.086617230114754,1.1906977127874245,-0.017946060746908188,0.9999862909317017,0.9941314506324037,1.4525119741708188,0.18174931406974792,0.9499179720878601,1.0823928289502072,1.4710402743335202,0.07253123819828033,0.9135567545890808,1.018311280214634,1.6992736811913507,0.2650842070579529,0.9538263082504272,1.0812895807580722,1.7409742545808977,0.12239114940166473,0.9187431335449219,0.8990665603988091,1.2139499407319791,-0.02495749667286873,0.8541412353515625,1.1451463678983078,1.1683106456533823,-0.046877700835466385,0.3744570016860962,0.0038981735706329346,1.0327313039218424,1.1929240709388715,177.8026423301729,179.37086426381052,1.0,-0.0394614955871865,0.010902557714429825,-0.2037758951538253,0.09204477879453021,95.344104226699,0.9362384674695365,78,2.6
1.0155773463575206,0.6996938990446625,0.1311001032590866,0.9996453523635864,0.9236255160290077,0.8259702748748858,-0.026862313970923424,0.9999940395355225,1.1249302504746967,0.815166853692024,-0.055158354341983795,0.9999577403068542,0.9758573770088927,1.194543054960308,0.01987254060804844,0.9999895691871643,1.0829543558852406,1.188830118764224,-0.02002260461449623,0.9999867677688599,0.9940460084284288,1.4526376671631078,0.13681812584400177,0.9513400793075562,1.0832501503897243,1.4611549994319704,0.02414858713746071,0.9196457862854004,1.0195806055582823,1.6996938990446624,0.16535653173923492,0.9559255242347717,1.0820945324436977,1.7246211585530302,0.03930173069238663,0.9240999817848206,0.8986240856358747,1.214711185369488,-0.021808218210935593,0.8669355511665344,1.1473953922226874,1.1783661817850912,-0.0842909961938858,0.4345555603504181,0.005070149898529053,1.0294058664470667,1.1916865868622661,178.13024895465446,179.68645663559414,1.0,-0.03127855998177751,-0.016167409526339,0.06295876730213872,-0.2076039626314692,95.0124274404269,0.9448524311068911,79,2.6333333333333333
1.010968499293608,0.6948994848125275,0.10406932979822159,0.9996770620346069,0.9216298625927819,0.8262721951441673,-0.04178782179951668,0.9999943971633911,1.1235954543035542,0.8141629648198271,-0.07305250316858292,0.9999616146087646,0.9738583952164905,1.1882272802552996,0.01997026987373829,0.9999898076057434,1.0785167883270943,1.18316795038023,-0.020122213289141655,0.9999872446060181,0.9926564171290051,1.4490469561402746,0.1292119324207306,0.9524458050727844,1.0821479209219167,1.4468672363259911,0.03143125772476196,0.9239745140075684,1.0189431505045026,1.6948994848125276,0.1563488245010376,0.9579225778579712,1.0805389472049711,1.7070965027117417,0.0583454892039299,0.9283458590507507,0.8967935905428932,1.2077304571315954,-0.03987806290388107,0.8794208765029907,1.1510156242219873,1.1813353213244076,-0.11634751409292221,0.49042972922325134,0.005689442157745361,1.0261875917717924,1.1856976153177647,178.01942202569123,178.8568383617704,1.0,-0.01607527011653839,-0.03636786934462447,0.1190072482833002,-0.1586382900588309,95.44325437601783,0.9519105595637164,80,2.6666666666666665
1.0124331836783547,0.6957634823177082,0.11617795377969742,0.9997062683105469,0.9206102408825484,0.829000830190409,-0.04117859527468681,0.9999947547912598,1.1248150534403243,0.8170262885140865,-0.06266050040721893,0.9999651908874512,0.976222811900754,1.1882101502237186,0.019149646162986755,0.9999900460243225,1.0811837089138512,1.1826742317555472,-0.01930120773613453,0.9999877214431763,0.9949137467817388,1.4527060132779535,0.1068485826253891,0.9552386403083801,1.0866704780725323,1.4412478576758234,0.01450542826205492,0.929598331451416,1.0223477835698698,1.6983929703754448,0.11322136223316193,0.9607054591178894,1.0861159567180485,1.6957634823177083,0.030189404264092445,0.9331508874893188,0.8992405413045195,1.2027608924292237,-0.033019308000802994,0.890925407409668,1.1574081761022306,1.1862896345888903,-0.1033535823225975,0.5410385727882385,0.005605429410934448,1.0287032604073025,1.1854421909896329,177.6707584902946,178.65957018638508,1.0,-0.009532854579264099,-0.03457557248076243,0.049190349043456635,0.014356495197997138,95.78149258882887,0.956418428682784,81,2.7
1.027035695197408,0.7029735511652523,0.11564310640096664,0.9997338056564331,0.9318984783745315,0.8408289763978098,-0.04006471112370491,0.9999951124191284,1.1377251984118013,0.8289437119114003,-0.06840131431818008,0.9999685287475586,0.9873085694803369,1.2049523399550486,0.01873178407549858,0.9999902844429016,1.0952465789297914,1.1981091013948868,-0.01888417825102806,0.999988317489624,1.008332191049464,1.473960255756174,0.09855449944734573,0.9581277966499329,1.1063561669957436,1.4623191665586825,0.001560725038871169,0.9349410533905029,1.0363181673778972,1.7218077343104135,0.10087700188159943,0.9633674621582031,1.103159150223485,1.7029735511652522,0.018927346915006638,0.9374957084655762,0.9124595415111556,1.2137305061882933,-0.027203857898712158,0.9012378454208374,1.1770817332207975,1.2073836281889907,-0.12928210198879242,0.5867937207221985,0.005483388900756836,1.0412775742050642,1.2015307206749677,178.02639124869066,176.8311159804905,1.0,-0.019009662445785242,-0.009657791633697985,-0.07155364485307873,0.19482781074298475,95.0248634284752,0.9747998931771955,82,2.7333333333333334
1.0526254543761937,0.7189113722283367,0.12209285795688629,0.9997586607933044,0.9541345340981986,0.8601087950728159,-0.020521415397524834,0.9999954104423523,1.1624871351816533,0.8491453846460021,-0.061175715178251266,0.9999714493751526,1.00918623734527,1.2321242332515372,0.018398866057395935,0.9999902844429016,1.1202254713551754,1.2237828457011242,-0.018549887463450432,0.9999885559082031,1.0318943690476867,1.5088295332723907,0.05087731033563614,0.9610744118690491,1.1342544210478016,1.4921917180917794,-0.009210054762661457,0.9390360116958618,1.0605274909415678,1.7615795266275789,0.022588443011045456,0.965646505355835,1.1326452526092952,1.7189113722283367,-0.0009825393790379167,0.9401149153709412,0.9337350281812747,1.2342310022187721,-0.025502854958176613,0.9105648994445801,1.2084303552984141,1.234194902047541,-0.13998045027256012,0.6280087828636169,0.004941731691360474,1.0647058543502228,1.2279535394763306,178.22825544014455,176.6013826345915,1.0,-0.008367843318407587,-0.014355407433274464,0.08528651077056258,-0.03437972146218281,94.12161891564264,0.9920129000789379,83,2.7666666666666666
1.0882384984279347,0.7449827309801927,0.12616486847400665,0.9997785091400146,0.984037518100481,0.8913924634292147,-0.004529883619397879,0.9999954700469971,1.1959859522554226,0.8788993102035181,-0.058281075209379196,0.9999740123748779,1.0428284411909876,1.2729194508847683,0.018349308520555496,0.9999904036521912,1.156378102386367,1.2641209740300285,-0.01847037300467491,0.9999889135360718,1.0673970166153406,1.560765946905894,0.009540555998682976,0.9627617597579956,1.175881244567633,1.5258264532755057,-0.0416078120470047,0.9412441849708557,1.0968980735610114,1.8173664630239308,-0.05831350013613701,0.967059314250946,1.1718684825701593,1.7449827309801926,-0.06621256470680237,0.9410229325294495,0.9663586322085531,1.2702315555303574,0.0031679212115705013,0.916547417640686,1.2512375144894465,1.2754670083106452,-0.13414812088012695,0.664975643157959,0.005444079637527466,1.0996032717886774,1.2685202124573984,178.32011243123878,174.68903948615656,1.0,-0.013226014447143865,-0.012789521050916417,-0.03535789819698525,0.01593232179799076,94.32926857345454,1.0191222889313334,84,2.8
1.1043745333403707,0.761953789915892,0.13065555691719055,0.9997971057891846,1.0040348954204832,0.9094478298849995,0.0015503917820751667,0.9999954700469971,1.2160391537756647,0.8959157900432048,-0.045482419431209564,0.999976396560669,1.0625218099864133,1.2949751813248715,0.01573566161096096,0.9999902844429016,1.1786892317564976,1.2871884627551144,-0.01594613865017891,0.9999890327453613,1.0868002772434924,1.5858797694453046,-0.009280872531235218,0.9642527103424072,1.1985335740795602,1.533587117617993,-0.033587731420993805,0.9388958811759949,1.1170751355382804,1.8526115194936046,-0.0944238156080246,0.967815637588501,1.1946228539583439,1.761953789915892,-0.059644915163517,0.9370545744895935,0.9930426274070991,1.2869258888207857,0.01453243475407362,0.9198007583618164,1.27669861316201,1.2994109098702769,-0.125736802816391,0.6981973648071289,0.005784183740615845,1.1206055208714554,1.291081822039993,178.29523421971186,174.41439746026157,1.0,-0.0030621099426563184,-0.016141739046665392,0.0788311806000626,-0.023473976962378754,94.79154445925417,1.0231385972126958,85,2.8333333333333335
1.1154687575282638,0.7809385070159875,0.14383715391159058,0.9998108148574829,1.0209505380671529,0.9258176580120565,0.007775434758514166,0.9999951720237732,1.234550089701477,0.91185058539779,-0.029580092057585716,0.9999784231185913,1.0793021990324143,1.3149298401244767,0.011205059476196766,0.9999892711639404,1.1975742339947342,1.3062075405923983,-0.011462749913334846,0.9999883770942688,1.1021149992772867,1.605438346885389,-0.009476286359131336,0.9664139151573181,1.21765574472065,1.5423140146866683,-0.009424463845789433,0.9362983703613281,1.1351784251651613,1.8824785949319374,-0.09189007431268692,0.9691776633262634,1.2134428928938858,1.7809385070159875,-0.012833659537136555,0.9331251978874207,1.0180062606812779,1.2999871045270195,0.039860643446445465,0.9217761754989624,1.2975672902785138,1.3185048620184392,-0.11504367738962173,0.7281485199928284,0.005874752998352051,1.1384382165135742,1.3105686903584375,177.68427283333656,174.12709837780372,1.0,-0.002700058506753581,-0.011018270895846638,0.0030755259366188068,0.04022504844868411,94.31078066465952,1.0148410847194993,86,2.8666666666666667
1.124846608617073,0.7857800554405378,0.16444946825504303,0.9997632503509521,1.027966365427194,0.9339817322344112,0.026884550228714943,0.9999932050704956,1.240686126573064,0.9179016657833529,-0.02323935180902481,0.9999800324440002,1.0856764681216908,1.3249201737266163,0.011564778164029121,0.9999868869781494,1.2050595338271144,1.3153107847762724,-0.011800144799053669,0.9999874234199524,1.10938937821366,1.6127047999593809,0.02291129156947136,0.964899480342865,1.2243108298452423,1.5461413545450344,0.03512901812791824,0.9177511930465698,1.14275681753742,1.8925846711876357,-0.05811803787946701,0.9682234525680542,1.2207415385861693,1.7857800554405379,0.03126536309719086,0.9205240607261658,1.044607797274069,1.3134940488992617,0.13192588090896606,0.8463606834411621,1.3059151881857687,1.3234761125902734,-0.046272654086351395,0.7543994784355164,0.006720125675201416,1.1453680009744025,1.3201154792514445,177.9116773720912,174.37923129526294,1.0,-0.003234448327233133,0.00837180431168117,-0.003984613829035873,0.15000296541822705,93.79538912943401,1.0276484327908793,87,2.9
1.1257683308158053,0.7844492687263561,0.1708056628704071,0.9997286200523376,1.0277721519835576,0.9338470758713737,0.03446287661790848,0.9999917149543762,1.2399563176979977,0.9175184665655663,-0.02255024015903473,0.9999815821647644,1.0848584107001822,1.3252136548326807,0.012537996284663677,0.9999850392341614,1.2043332421562587,1.3153298888502272,-0.012825186364352703,0.9999867677688599,1.1093772734119596,1.6111309885213125,0.02795804664492607,0.9641243815422058,1.2235664008986824,1.5451155072385971,0.038823872804641724,0.9044649600982666,1.1423396037354514,1.8908025143771419,-0.05652407556772232,0.9676328301429749,1.2201244841526901,1.784449268726356,0.03493770584464073,0.910764217376709,1.0505617869394936,1.3157654572052666,0.1461317241191864,0.7775009870529175,1.3052820183909648,1.3202672807111155,-0.03756314516067505,0.7780412435531616,0.006826281547546387,1.1445958264282203,1.320271771841454,178.17949257767717,174.391542327731,1.0,-0.0030718541799155744,0.00472892005356409,0.0012765331331865955,-0.02877005508942572,93.56973460396921,1.033743426680805,88,2.933333333333333
1.1238922888703775,0.7829166931381342,0.1661038100719452,0.9997145533561707,1.0252954836896127,0.9297136928886222,0.021012069657444954,0.9999904036521912,1.234079302246425,0.9149995794142252,-0.036280758678913116,0.9999829530715942,1.0801074286095576,1.321049483957226,0.014132531359791756,0.9999831914901733,1.1985259267172765,1.3103138634654352,-0.014427462592720985,0.9999861121177673,1.105614163483288,1.6041529029823969,0.06084180995821953,0.9630832076072693,1.2157304048732582,1.54348505536293,0.06718835234642029,0.8933266997337341,1.1373828349184862,1.882527163274947,0.01937570981681347,0.9677006006240845,1.2148547346423193,1.7829166931381342,0.115498386323452,0.9043728113174438,1.054070862136952,1.3095739164414966,0.12632250785827637,0.7188482880592346,1.299454587206597,1.313178389770502,-0.05513116717338562,0.7995758056640625,0.006177574396133423,1.1393166776634172,1.3156816737113306,178.6377194054159,175.57054594670663,1.0,-0.0031842329091082353,0.007783620176425036,-0.0009584283252388354,0.02349518547599476,92.79301334450507,1.0282385524441406,89,2.966666666666667
1.1140320057761526,0.7722456453793406,0.17200985550880432,0.9996987581253052,1.0211298820970724,0.9170001024950432,0.03656136244535446,0.9999884366989136,1.2179597377331894,0.9037937948253805,-0.02497001178562641,0.9999841451644897,1.067448814304693,1.3059565313127262,0.014605408534407616,0.9999794960021973,1.1831502352446897,1.2952311921770852,-0.01488491427153349,0.999984622001648,1.0912149838085154,1.5769179761523529,0.10554464906454086,0.9620307683944702,1.1993587439306015,1.520272475681247,0.11139126121997833,0.8805506229400635,1.1225872242976165,1.856761530744905,0.10960067808628082,0.966905415058136,1.1988110294754868,1.7722456453793407,0.19391080737113953,0.8948558568954468,1.0563540586530862,1.2798814560405205,0.17751404643058777,0.6542842984199524,1.2823267649867125,1.2918252461614976,-0.022141750901937485,0.8184858560562134,0.005617886781692505,1.1252995247746913,1.3005938617449055,178.61610133088837,175.7558643006876,1.0,0.00683811107534914,0.0166540462129779,0.07951884934487867,0.07148219519468264,91.49500134533659,1.0258934707842964,90,3.0
1.0997966438911144,0.7581062348247128,0.171511709690094,0.9996844530105591,1.0094022807642162,0.9050592405032476,0.04741371423006058,0.9999855756759644,1.2023963156332464,0.8921729199154265,-0.025599012151360512,0.9999853372573853,1.0543272857644361,1.2886048100040914,0.019025174900889397,0.9999747276306152,1.1682588528790063,1.2784198530447122,-0.019239405170083046,0.9999831914901733,1.0778762468390726,1.5578213536916286,0.13975319266319275,0.9587089419364929,1.1831517624149996,1.5061474349770847,0.11346973478794098,0.8700541257858276,1.1084218503663092,1.8332810488760087,0.175070658326149,0.962267279624939,1.1832928474585742,1.758106234824713,0.20546388626098633,0.8810319900512695,1.0499751579668373,1.2585045925948057,0.17850396037101746,0.5945348143577576,1.26574294692353,1.275187069085473,0.0023100641556084156,0.8355761170387268,0.005553007125854492,1.1112930693217211,1.2835123315244017,178.67141126919446,176.290386490514,1.0,0.0033435005889959507,-0.0030758915736761204,-0.026471451183210502,-0.1516413345450476,91.57226076204991,1.0237329504712998,91,3.033333333333333
1.089584467152223,0.7529254321417639,0.17316758632659912,0.9996830224990845,0.995782757578307,0.9044979294470823,0.05177867412567139,0.9999839067459106,1.1880180696586886,0.8824985567196039,-0.025420134887099266,0.9999865293502808,1.0437756666239966,1.2740396999671737,0.021800225600600243,0.9999707341194153,1.1547197268049787,1.26354624672259,-0.021980827674269676,0.9999822378158569,1.0667480703920331,1.5393263579735885,0.14923551678657532,0.9564181566238403,1.168063449524553,1.4914268768574097,0.11820027977228165,0.8650332093238831,1.0956873544716472,1.8111663667108426,0.2027835100889206,0.9568327069282532,1.16930459890269,1.7529254321417638,0.2249104529619217,0.8685460090637207,1.036986661539863,1.2444921433399043,0.19097425043582916,0.5399264693260193,1.2507349333452893,1.2606637182990048,0.03508579358458519,0.8510225415229797,0.009592950344085693,1.0992476967144875,1.268792973344882,178.87250905730775,176.9207695720957,1.0,0.008048087786192674,0.003024834550689348,0.036847719709620155,0.04710503077652357,91.99651762301548,1.0031634166592114,92,3.066666666666667
1.0856375617702663,0.7651162125496478,0.18185566365718842,0.9997023940086365,0.9920314313267191,0.904072002201119,0.05943502113223076,0.9999836087226868,1.184162158186365,0.8796816004968863,-0.013973641209304333,0.9999876618385315,1.0408362073192658,1.2681739428907668,0.021461710333824158,0.9999700784683228,1.150710187803403,1.25853601063511,-0.021642204374074936,0.9999825358390808,1.064289975646034,1.5348229025351008,0.1425372213125229,0.9562933444976807,1.1631590417504345,1.4975424015080934,0.11365039646625519,0.8661559820175171,1.091635066442196,1.8048897261132268,0.2055647373199463,0.9531363248825073,1.1659590668126816,1.7651162125496478,0.22937452793121338,0.8607608079910278,1.0322489825272552,1.2431898792108662,0.18269820511341095,0.4952276647090912,1.2452690922563106,1.2584891551298605,0.02697981894016266,0.864942193031311,0.01067325472831726,1.0957731975613345,1.2633549767629384,179.24498743014308,177.6179438456087,1.0,0.0030808565440453013,-0.007264286528331997,-0.03743320502930574,-0.0779042887370033,92.62146350552415,0.9534093046456231,93,3.1
1.088934215240743,0.766935234504223,0.17601868510246277,0.9997231364250183,0.9931665991338714,0.9062021964609906,0.05199596285820007,0.9999836087226868,1.185225233233552,0.8858722801234896,-0.018495647236704826,0.9999886751174927,1.0444445777527884,1.2686789985368196,0.021378077566623688,0.9999690651893616,1.15194947092645,1.2597438098421914,-0.021556491032242775,0.9999825358390808,1.0686856245674674,1.5365996846772905,0.13973790407180786,0.9543888568878174,1.1638317435404382,1.5062302412038762,0.11241672933101654,0.8597162365913391,1.092701577213435,1.8062522734374702,0.19586771726608276,0.9474186897277832,1.1673440851360408,1.7669352345042229,0.22573094069957733,0.8449660539627075,1.0370501456908714,1.2461386329217197,0.16475634276866913,0.4562492072582245,1.2463757248413978,1.2623706356135787,0.002276761457324028,0.8774526119232178,0.008887887001037598,1.0981970243396193,1.2642114041895056,179.91952495042958,178.01197116230733,1.0,0.009884929636167581,-0.002523499298866101,0.048848646368829254,0.03410026752496772,93.3007736358642,0.950337956047654,94,3.1333333333333333
1.1071741915355597,0.7946852832574675,0.19035063683986664,0.9997365474700928,1.0097080707282307,0.924890911486362,0.07737680524587631,0.9999827146530151,1.2044564720309894,0.9053833347579687,-0.00955271814018488,0.9999895691871643,1.062444610659607,1.2888876635946724,0.02437383122742176,0.9999681115150452,1.1705701446381318,1.2801273333138457,-0.024540141224861145,0.9999825954437256,1.0881172798671583,1.5617742931395422,0.1407250165939331,0.9539307355880737,1.182917092729635,1.5344260033046924,0.10588210821151733,0.8599144220352173,1.1108994169061879,1.8341513788508277,0.19718638062477112,0.9428402781486511,1.1872572203040057,1.7946852832574673,0.21468289196491241,0.8349941968917847,1.0577594534719843,1.2675565073443997,0.19748003780841827,0.4173683524131775,1.2654313299634357,1.2869407849939756,0.03934654965996742,0.8884146213531494,0.008392930030822754,1.1165073776488694,1.284507498454259,179.40673663421705,178.1756898621756,1.0,0.0047164189417290775,-0.0008476769459206652,-0.042755066688768814,0.013774512424820418,93.61177332922361,0.9227706648838164,95,3.1666666666666665
1.1159459641143998,0.7931558394148709,0.17561475932598114,0.9997396469116211,1.0185361095970682,0.923910932685959,0.06084563210606575,0.9999814629554749,1.2051325631294783,0.9102432838855692,-0.01842866837978363,0.9999902844429016,1.0663963150843014,1.2882147207073522,0.024110399186611176,0.9999671578407288,1.1706848902907085,1.2795321869006544,-0.024276847019791603,0.999982476234436,1.090328979374084,1.562307360478292,0.13999223709106445,0.9493182301521301,1.182290355965609,1.5362359436019535,0.10786374658346176,0.8475176095962524,1.111603935670299,1.8325522809841681,0.19547030329704285,0.9353769421577454,1.1872788632771965,1.7931558394148708,0.21427464485168457,0.8163479566574097,1.0691357848622451,1.2628403213120434,0.16917715966701508,0.38052618503570557,1.2641742637856703,1.2869811631510368,0.020268848165869713,0.8969128727912903,0.005883604288101196,1.118540602687505,1.2838734538040033,179.51113024876452,178.52379391766067,1.0,0.019888573027053557,0.0005536878910942894,0.11395583871873914,0.010520136993225068,92.72516107763425,0.926096690610757,96,3.2
1.119469154661895,0.7938593179781418,0.17441023886203766,0.9997255206108093,1.0317677661780251,0.9250831445924187,0.0545312836766243,0.9999788999557495,1.2118550674805626,0.9204396262964524,-0.01803356036543846,0.9999908208847046,1.0744159860379978,1.2908735657756951,0.022770116105675697,0.9999642372131348,1.176414213080954,1.2828286242654066,-0.02292979508638382,0.9999815225601196,1.0941157858149306,1.5631749978423344,0.13743078708648682,0.9463239312171936,1.1827741665834308,1.5442854829340762,0.10919634252786636,0.8331887125968933,1.1137949440385324,1.8335499772873647,0.17724286019802094,0.9311532378196716,1.1878237277841819,1.793859317978142,0.20394392311573029,0.7990992665290833,1.069773091144649,1.2646535287566623,0.1663791835308075,0.34513944387435913,1.2650465494734395,1.2946876815227204,0.008801627904176712,0.9040094017982483,0.0019978880882263184,1.125415099559476,1.2868510950205507,179.97497171290843,179.7656437423925,1.0,0.048933496037875134,0.01796483105139372,0.22576246018245885,0.1353805234938538,92.14042819328829,0.9347070929667333,97,3.2333333333333334
1.1312603160835102,0.8036069126700501,0.1753796935081482,0.9996941089630127,1.041816080619912,0.9314428061599769,0.05530330538749695,0.999975860118866,1.2219297883325448,0.9296759913138568,-0.015180992893874645,0.9999911785125732,1.0802884599646985,1.300058831145558,0.022537901997566223,0.9999616146087646,1.18365353602208,1.2921381127132874,-0.02270262874662876,0.999980628490448,1.1014398134118715,1.5718772498281626,0.13055802881717682,0.9448369741439819,1.1892338237507472,1.555263562765979,0.10798461735248566,0.8253009915351868,1.1199334923197393,1.8434799009140592,0.16514088213443756,0.928508460521698,1.1943253261360656,1.8036069126700502,0.20854119956493378,0.7866702675819397,1.0738946907868558,1.2717598452323684,0.16416509449481964,0.31356486678123474,1.272207260029415,1.305279599076225,0.009804164990782738,0.9103299975395203,0.0007560253143310547,1.1319709979933892,1.2960984719294226,179.44584721397146,179.95957588185323,1.0,0.002888655224197463,0.016794769190360024,-0.3568411988179287,-0.009775411508954501,91.57644584922606,0.9326672172286211,98,3.2666666666666666
1.1382873922272017,0.8034649408222373,0.1411774754524231,0.9996930956840515,1.0489664686131281,0.9303994311999412,0.03076464869081974,0.9999741911888123,1.2252672129472006,0.9326306731373541,-0.03761456906795502,0.9999916553497314,1.0848749988954765,1.2986906508186729,0.02233288809657097,0.9999600648880005,1.1877148037395584,1.290917448918656,-0.0224961768835783,0.9999803304672241,1.1046837155935696,1.5692456949498679,0.11048199236392975,0.9431176781654358,1.1885086691705318,1.5532264507055835,0.10062487423419952,0.8165249824523926,1.119075361763642,1.8402283549389735,0.1278892606496811,0.9276893138885498,1.1933845753407863,1.8034649408222372,0.1874256432056427,0.7803459167480469,1.0828500506480578,1.2711799087618323,0.16393600404262543,0.2839279770851135,1.2733818590825545,1.305648418638847,-0.01857554353773594,0.9161485433578491,0.000955730676651001,1.1362949013175174,1.2948040498686644,178.8526262519605,179.05713324716692,1.0,0.044426606111536635,0.00023241543934572747,0.3368080093665705,-0.1341463241377829,91.24624506845274,0.9315942878993859,99,3.3
1.1390476139981454,0.8090639021383311,0.21203812956809998,0.9997039437294006,1.0548278555381212,0.934973151217955,0.09496142715215683,0.9999738335609436,1.2326022878181622,0.9326984065415984,0.014340209774672985,0.9999921917915344,1.0912834172668797,1.2936429093849768,0.024138068780303,0.9999587535858154,1.1930678992484909,1.2889183162466455,-0.024305244907736778,0.9999797344207764,1.1112829903205976,1.5696113588918819,0.09026212990283966,0.9438135027885437,1.1930175307492015,1.5567136744755048,0.07784510403871536,0.8181764483451843,1.122373478096958,1.8431598880340352,0.07541413605213165,0.9248539805412292,1.19653983757624,1.8090639021383312,0.12443586438894272,0.7742518782615662,1.0751625674707674,1.2755049476934994,0.22539588809013367,0.26029348373413086,1.2787256016245168,1.3082630290471369,0.06765155494213104,0.9214266538619995,0.0009717643260955811,1.1421756582576852,1.2912806128158112,178.17666556457044,179.18954038512322,1.0,0.021579426710409137,-0.053095715096492274,-0.17449465921240617,-0.40518846683145004,93.14604482735831,0.9011687163280645,100,3.3333333333333335
1.14834752531143,0.8144910718309177,0.19807402789592743,0.9996799826622009,1.0612429127576102,0.9373672782050345,0.07250163704156876,0.9999715089797974,1.2411926747505384,0.9351273639418797,0.012142473831772804,0.9999924898147583,1.095443956590824,1.2948400593037437,0.02622709795832634,0.9999576807022095,1.1997365926321508,1.2912675041627097,-0.026385804638266563,0.9999794363975525,1.1161741668213077,1.5737554624631205,0.10063289105892181,0.9423509836196899,1.196937801882169,1.5615452672461012,0.07745834439992905,0.819512665271759,1.1257395824499208,1.8446391940423081,0.10319062322378159,0.9228224754333496,1.200129282608872,1.8144910718309177,0.13812240958213806,0.7718992233276367,1.0746469918632287,1.2794470600451804,0.1915285885334015,0.23715835809707642,1.2858899186154922,1.3117653331721149,0.03666435927152634,0.9257907271385193,0.0009540021419525146,1.1475902746114874,1.2930537817332266,177.77172486996875,178.68383285458756,1.0,0.014896787983757643,-0.01615219046749978,-0.0512007901333823,0.2815346390727467,93.50320688777536,0.8916225429602247,101,3.3666666666666667
1.147410769713724,0.8093028068709172,0.15376868844032288,0.9997029900550842,1.0587505851558086,0.934841221734855,0.04219847172498703,0.9999727010726929,1.2429057555328753,0.931335764269481,-0.0303896926343441,0.9999930262565613,1.0993092004111458,1.2839409382853464,0.02578120306134224,0.9999579787254333,1.2020152874200905,1.2818207362402647,-0.02594391629099846,0.999979555606842,1.118232488604071,1.55766623710468,0.07797980308532715,0.9421126842498779,1.195471729604394,1.5544562793977779,0.04251021519303322,0.8217475414276123,1.1225476223852195,1.8318041889515466,0.06029710918664932,0.9216018915176392,1.1967122006093784,1.8093028068709172,0.07888008654117584,0.7712399959564209,1.061760356603666,1.2774706448725768,0.14896602928638458,0.23122376203536987,1.2862485576506772,1.3077649870534822,-0.01742977648973465,0.9318400621414185,0.0014972388744354248,1.150662243915618,1.2828808372628056,176.94710058508193,178.34621495710815,1.0,0.04563781921462396,-0.0471353401054997,0.22252122883778297,-0.2242970580818374,95.44433675080457,0.8806869082942608,102,3.4
1.155867158226257,0.8132299957065835,0.088844433426857,0.9997284412384033,1.0698777221779907,0.9381532611477097,-0.030058642849326134,0.99997478723526,1.2542477915287011,0.9375703275871904,-0.062141191214323044,0.9999934434890747,1.1137964474311175,1.288158134129869,0.016631903126835823,0.9999603033065796,1.215473167269305,1.2861246025397184,-0.016789818182587624,0.9999803304672241,1.1261414057329144,1.5550372988368764,0.07132574170827866,0.9457654356956482,1.204454123205969,1.5553530428212694,0.055876873433589935,0.8320264220237732,1.1283157591401043,1.8218505081338106,0.07243339717388153,0.9275457262992859,1.2030419757771038,1.8132299957065834,0.10379447042942047,0.7881306409835815,1.0562177954291918,1.2860962557464528,0.03111705183982849,0.2905566394329071,1.2959694999730915,1.3141900328324627,-0.08313748240470886,0.9380641579627991,0.00024759769439697266,1.1646348073502113,1.2871413683347936,177.8184851232739,177.97004461630542,1.0,0.058724508237927305,-0.02260411681637676,0.09986055810348123,0.19295748418272954,96.00635069574437,0.8936471427818309,103,3.433333333333333
1.1646769562075983,0.8146683118218592,0.0938357338309288,0.9997528791427612,1.0793660201867525,0.9391309238680219,-0.02777053974568844,0.9999768733978271,1.2624124368776817,0.9407144373631188,-0.0507364496588707,0.9999938607215881,1.1207383459883011,1.28869559316536,0.011362498626112938,0.9999622106552124,1.2218663256968023,1.2864932458345042,-0.01152370497584343,0.9999808073043823,1.1292192064172315,1.5500442356025925,0.0625612735748291,0.9492936134338379,1.2112430232486109,1.5526757048834867,0.0601523220539093,0.8420292735099792,1.1268541081105738,1.8204776487721313,0.06496459245681763,0.9326515793800354,1.2069399775527547,1.8146683118218592,0.10957236588001251,0.8025615811347961,1.0577399915189283,1.2903323949341083,0.02163523994386196,0.35450035333633423,1.3030196500685074,1.3143454848430411,-0.07766333967447281,0.9439294338226318,0.0006704032421112061,1.1713023358425516,1.287594419499932,177.640310586216,178.65550542719393,1.0,0.021362398814017147,-0.027838384079648757,-0.2793661776305789,-0.03839042481682712,95.50219686084249,0.8924022639686714,104,3.466666666666667
1.1893732967085562,0.8319833914577134,0.0827612429857254,0.9997755289077759,1.105064648153473,0.9574624542655114,-0.0678335428237915,0.9999790191650391,1.294303930709933,0.9614242206468882,-0.029131706804037094,0.9999942183494568,1.1507356203786439,1.3185525751841345,-0.014749683439731598,0.9999646544456482,1.2540756460227054,1.3145322945677127,0.014534281566739082,0.9999812841415405,1.1534924829360471,1.5673504963093927,-0.034440625458955765,0.953656017780304,1.2414983242832995,1.5817596806691783,0.06291309744119644,0.8496609330177307,1.1495946287818783,1.8319833914577135,-0.08639071136713028,0.938576340675354,1.2355467140442442,1.8498485863198324,0.06883709132671356,0.8187609314918518,1.0763520081070646,1.319332045252448,-0.05516352504491806,0.41803693771362305,1.3345371095767218,1.3388379418391536,-0.06106124073266983,0.9492641091346741,0.0016404688358306885,1.2024056332006747,1.3165424348759236,178.52128190534702,178.57707116641345,1.0,0.03664745511337084,0.00047326174707802997,0.11242033175683246,0.2197118781442948,94.98066174112319,0.9242395890405048,105,3.5
1.2227547886559589,0.8512466824571349,0.09988458454608917,0.9997958540916443,1.1342028338648553,0.9802890456336274,-0.04451176896691322,0.9999809265136719,1.3288567378107694,0.9847623972463925,-0.024387432262301445,0.9999945759773254,1.1800888226738089,1.3491012416138481,-0.006638156715780497,0.9999667406082153,1.2877735049096206,1.3456799489290636,0.006449070759117603,0.9999817609786987,1.1815058951793953,1.5908857635783982,0.012030823156237602,0.9565556645393372,1.2730030988922858,1.6151422465505627,0.04135645180940628,0.8580329418182373,1.1773769140818788,1.851246682457135,-0.021607132628560066,0.9422187805175781,1.2656012339832876,1.8954762129623834,0.026902150362730026,0.8308827877044678,1.0970696509457214,1.3514280096423745,-0.0378461517393589,0.4750663936138153,1.367869324107064,1.3632722615706023,-0.050033312290906906,0.954038679599762,0.0018082857131958008,1.2339311637917147,1.347390595271456,178.75564017626485,178.37497916339657,1.0,0.01708842154296089,-0.009085011878050313,-0.15489552974189116,-0.0724810436821113,95.2722904128874,0.943262636141443,106,3.533333333333333
1.2529752589013898,0.8673851322240009,0.10671305656433105,0.9998124837875366,1.1561536806454618,0.999252385388869,-0.04063336178660393,0.9999826550483704,1.3584321316162447,1.0055443574523717,-0.020109649747610092,0.9999948740005493,1.204819874704661,1.3752593222424139,-0.0066591850481927395,0.9999688863754272,1.3151594644379916,1.372308844796394,0.006469055078923702,0.999982476234436,1.2033725174674503,1.6144516579751833,0.013646475970745087,0.9592025876045227,1.299150681845117,1.6458176531289153,0.0340459831058979,0.8668920993804932,1.2002471607291,1.867385132224001,-0.027891498059034348,0.946017324924469,1.2900823601053966,1.9314656545562068,0.0028682793490588665,0.844098687171936,1.1159895361009253,1.3779562359873927,-0.023142043501138687,0.5258906483650208,1.3952631985956148,1.386026986723077,-0.034109439700841904,0.9582463502883911,0.0024951398372650146,1.2599896695713262,1.373784083519404,179.6387578809495,178.46856374125704,1.0,0.0154638418347219,0.0022281314926714453,-0.013905613528301912,0.08170504989545899,95.84301395152198,0.9630974371168224,107,3.566666666666667
1.2752679656357713,0.8807752399431854,0.10407739877700806,0.9998258352279663,1.1771825174727995,1.0161287145208673,-0.049185942858457565,0.9999841451644897,1.3807960849811731,1.022518673107198,-0.014171743765473366,0.9999951124191284,1.224133407632277,1.3945096766025977,-0.010597968474030495,0.9999709725379944,1.3367947295192157,1.393319905972844,0.010394612327218056,0.9999833106994629,1.2213418523618498,1.63458969100629,0.0025968607515096664,0.9614582061767578,1.3222797110893005,1.6685564131630077,0.030342336744070053,0.8745980858802795,1.2196376750620503,1.8807752399431854,-0.04272240027785301,0.9492576122283936,1.309519188201067,1.958962610415708,-0.012084206566214561,0.8563230633735657,1.1351135657521982,1.3998414250003932,-0.043943773955106735,0.5712346434593201,1.4176608019063208,1.3977135513057468,-0.025187158957123756,0.9618363380432129,0.0024940669536590576,1.2804640685757465,1.393914791287721,179.73043128835073,179.49718872870358,1.0,0.0022472737399689205,-0.013878230162909901,-0.10025888626804755,-0.12019940597192164,96.46826012836951,0.975236091339727,108,3.6
