nose_x,nose_y,nose_z,nose_visibility,left_shoulder_x,left_shoulder_y,left_shoulder_z,left_shoulder_visibility,right_shoulder_x,right_shoulder_y,right_shoulder_z,right_shoulder_visibility,left_hip_x,left_hip_y,left_hip_z,left_hip_visibility,right_hip_x,right_hip_y,right_hip_z,right_hip_visibility,left_knee_x,left_knee_y,left_knee_z,left_knee_visibility,right_knee_x,right_knee_y,right_knee_z,right_knee_visibility,left_ankle_x,left_ankle_y,left_ankle_z,left_ankle_visibility,right_ankle_x,right_ankle_y,right_ankle_z,right_ankle_visibility,left_wrist_x,left_wrist_y,left_wrist_z,left_wrist_visibility,right_wrist_x,right_wrist_y,right_wrist_z,right_wrist_visibility,trunk_lateral_inclination,center_mass_x,center_mass_y,left_knee_angle,right_knee_angle,person_height,center_mass_velocity_x,center_mass_velocity_y,center_mass_acceleration_x,center_mass_acceleration_y,body_orientation,torso_leg_ratio,frame,timestamp
0.9550887158973365,0.4608805788921863,-0.14816825091838837,0.9999631643295288,0.890364144210464,0.582366952404997,0.0969981923699379,0.9999794363975525,0.8841066190295092,0.5859206753857712,-0.3116263747215271,0.9999744296073914,0.9020708676119168,0.9399318462829015,0.12844906747341156,0.9999788999557495,0.8969977468484908,0.942073010509219,-0.12859205901622772,0.9999871253967285,0.9135387323844947,1.2033695683810304,0.2229188233613968,0.8909329771995544,0.901647895161553,1.2219270386285783,-0.0660887062549591,0.9551947116851807,0.8983378222546206,1.4608805788921864,0.3349340856075287,0.8952372074127197,0.8899786877547334,1.4998490949699563,-0.008235006593167782,0.9678069949150085,0.9668420284551683,0.9578424714599365,0.09553014487028122,0.8733970522880554,0.9554333940980306,0.9786898446190467,-0.4512939453125,0.813629686832428,0.002077758312225342,0.8995343072302038,0.9410024283960602,174.1291394902344,176.64375665841453,1.0,0.3572606372613446,-0.2045609614284646,2.282002475192058,-1.22313769353961,111.0074885928186,0.8960574327744564,0,0.0
0.9607469811028632,0.4700482730837696,-0.15431572496891022,0.9999526739120483,0.8936573312001873,0.5860121287374667,0.08474170416593552,0.9999743700027466,0.8985466209740014,0.5906106656786616,-0.33086827397346497,0.999976634979248,0.9128014179207372,0.9454400923096594,0.1338540017604828,0.999972403049469,0.9209174376469459,0.9498825203474347,-0.13397762179374695,0.9999857544898987,0.9200590440845895,1.2105888052970215,0.24946415424346924,0.8070197105407715,0.9198784918133975,1.2321172501108553,-0.06733997166156769,0.9268220663070679,0.9006026368539742,1.4700482730837696,0.3531424403190613,0.8219594359397888,0.9070427453393918,1.5024917086401912,0.008120118640363216,0.9474796652793884,0.9747557011202611,0.9659296939931707,0.09077691286802292,0.7959704995155334,0.972303456194635,0.9860173152503764,-0.44811978936195374,0.8321608901023865,0.0026687979698181152,0.9168594277838416,0.9476613063285471,174.14361374293097,177.49289600225438,1.0,0.07972491351128928,-0.0025024774137815107,-2.0993708271630784,1.5253438222349762,121.74361358304338,0.8902255764334224,1,0.03333333333333333
0.9786982087005257,0.4832436126183962,-0.15382058918476105,0.9999503493309021,0.9020344126574893,0.59594606727613,0.07979445159435272,0.9999719858169556,0.918187749452862,0.6008732768610602,-0.3438712954521179,0.99997878074646,0.9295778624979822,0.9585926877900571,0.13833822309970856,0.9999704957008362,0.9371762214473914,0.9626375322683701,-0.1384396255016327,0.9999860525131226,0.9366931534815902,1.226451626296572,0.2626233696937561,0.7342934608459473,0.9429873648809798,1.2484854449237417,-0.1032436266541481,0.921662449836731,0.917477632222338,1.4832436126183963,0.3747352361679077,0.7622238993644714,0.9269834769107056,1.5237393288283594,-0.05890586972236633,0.9420006275177002,0.9773186569497391,0.9799066629860492,0.08352348953485489,0.7233331203460693,0.9922784948003783,1.0042171446458077,-0.4310885965824127,0.8488551378250122,0.0028081536293029785,0.9333770419726869,0.9606151100292136,174.19895918798866,175.50780530945644,1.0,-0.002081713263535835,-0.03489239078563529,-0.6618999106277503,-0.25711154991335794,122.37111623013462,0.8831024620102363,2,0.06666666666666667
0.9870564236233333,0.48983148602512566,-0.1889563500881195,0.9999498724937439,0.9104998540051449,0.6007917419382601,0.05594269186258316,0.9999715089797974,0.9246094380545438,0.606026357542534,-0.37207087874412537,0.9999807476997375,0.9416063294214517,0.969201440046634,0.13940319418907166,0.9999706745147705,0.9454237639757049,0.9724950122599292,-0.13949191570281982,0.9999867081642151,0.9457828844248617,1.2391107797992058,0.28082558512687683,0.6696518659591675,0.9475234320819647,1.2610662755470563,-0.08556699752807617,0.9174445867538452,0.9254375771930987,1.4898314860251256,0.42462244629859924,0.7131392955780029,0.9370069509582267,1.5394398891694177,-0.009927247650921345,0.939100444316864,0.9909604478659149,1.010340190424541,0.07316780835390091,0.6615929007530212,1.0011533514454494,1.012762486857958,-0.4714139997959137,0.8639068007469177,0.0029582977294921875,0.9435150466985783,0.9708482261532816,174.47424812113877,177.41961045156012,1.0,0.017852974692251642,0.01676891909758503,0.15953274299571946,0.41543118272635654,135.6129665777949,0.8879543815340297,3,0.1
0.9950089640567527,0.49664592405853897,-0.19326329231262207,0.999946653842926,0.9174070117668703,0.6081820168537408,0.05146526172757149,0.9999712109565735,0.9384176432594412,0.6140560234716672,-0.38056641817092896,0.9999825358390808,0.9533167651018621,0.9789585454643358,0.14265196025371552,0.9999695420265198,0.9588920499572617,0.9839056171710739,-0.14274178445339203,0.9999870657920837,0.9581063561655515,1.2455889794746846,0.3004786968231201,0.6090342402458191,0.9591094672629634,1.2732319606003517,-0.12491210550069809,0.9184613227844238,0.9375641067212344,1.496645924058539,0.4487856328487396,0.6654636263847351,0.9461620797402275,1.5579326039472405,-0.09003813564777374,0.938595712184906,1.005174585295186,0.9949885578133182,0.06490333378314972,0.6116463541984558,1.0140853828208598,1.025761600268294,-0.4871571660041809,0.8774551153182983,0.0032770633697509766,0.9561044075295619,0.9814320813177049,174.2931873104236,177.3530870763114,1.0,0.0024201564784247336,-0.014905152923497738,-0.11496670666111382,-0.23406079498957208,137.11519292721403,0.8906682878276561,4,0.13333333333333333
0.9966706377824014,0.5022012702693885,-0.1909390091896057,0.9999412298202515,0.921305221898839,0.6076694982378785,0.051634252071380615,0.9999707937240601,0.935544643070234,0.6141307792187615,-0.36873456835746765,0.9999840259552002,0.9540997360675425,0.9811139302657269,0.13637709617614746,0.9999663233757019,0.9605468147880556,0.9840572152474827,-0.13649092614650726,0.9999863505363464,0.9575638061908294,1.2485813623737168,0.2736678421497345,0.5544980764389038,0.9561455022642728,1.2753384209104686,-0.08474773913621902,0.9071603417396545,0.9371386065329437,1.5022012702693885,0.41570204496383667,0.6223950982093811,0.9442903522924077,1.5562779249942322,-0.019227284938097,0.9296688437461853,1.0419352704753748,0.9766419267918327,0.06504128873348236,0.5803788304328918,1.0122192297217216,1.0239871372370293,-0.48281264305114746,0.8896386027336121,0.003606557846069336,0.957323275427799,0.9825855727566049,174.6536221522229,178.44933693363285,1.0,0.013757685760757147,0.01333710579240259,0.09114080684553016,0.2269488404334731,119.55675109661556,0.881305416501177,5,0.16666666666666666
1.0103258237825623,0.5061137135419035,-0.21894486248493195,0.9999384880065918,0.921977660945764,0.6093299446078431,0.02673426643013954,0.9999695420265198,0.951214473810191,0.6228303873547651,-0.4009924530982971,0.9999854564666748,0.9616699941390568,0.9878642633465937,0.13733969628810883,0.9999659657478333,0.9756448916130991,0.9954823541063879,-0.1374581754207611,0.9999868869781494,0.9702416437499158,1.254586210981086,0.30178743600845337,0.5043195486068726,0.9695535330198811,1.2868142078863176,-0.07713432610034943,0.9032045602798462,0.9490044965614196,1.5061137135419034,0.4546307921409607,0.5818617343902588,0.9577168174575984,1.5740962207810414,-0.01148155890405178,0.9272255301475525,1.021540709550937,0.9956271341609945,0.05797104164958,0.527446985244751,1.0267892298128192,1.0370456910822894,-0.48157769441604614,0.9006076455116272,0.007442176342010498,0.9686574428760779,0.9916733087264907,173.33312679811007,178.83841290348258,1.0,-0.005247133438418629,-0.024650970700593196,-0.14514302941064536,-0.28877471817503125,124.58202671633148,0.8882658965970498,6,0.2
1.0052292548298463,0.5003218217448551,-0.2022314965724945,0.9999372363090515,0.9148489260848053,0.6043601109185829,0.049883730709552765,0.9999680519104004,0.9432731534177126,0.6189385501699832,-0.3877996504306793,0.9999867677688599,0.9528816933507402,0.9789867880431158,0.14104394614696503,0.9999642968177795,0.967851820014031,0.9871131892438401,-0.14115643501281738,0.9999870657920837,0.9624649250759085,1.242370915807528,0.2792898118495941,0.45760321617126465,0.9612113108815213,1.2732720231274124,-0.07463455200195312,0.8913164734840393,0.9409498384885938,1.500321821744855,0.42687684297561646,0.5368810892105103,0.948120962080798,1.5630082150871665,-0.008397326804697514,0.9160512089729309,1.0066599192410797,0.9903830954897985,0.07459744811058044,0.47915711998939514,1.0182831426531451,1.0285985965955313,-0.4674701690673828,0.9104811549186707,0.00810292363166809,0.9603667566823857,0.9830499886434779,173.14834020955874,178.74247120456653,1.0,-0.0025640344524764792,-0.003643861088839885,0.019831155329530833,0.15627934412376748,124.29184050450687,0.8833243636690202,7,0.23333333333333334
0.9991502486729135,0.49611874014967033,-0.20432622730731964,0.9999369382858276,0.9114149572764657,0.601224260493709,0.0441780611872673,0.9999669790267944,0.9382694455605892,0.6157031485593022,-0.3850313425064087,0.9999879598617554,0.9476915266701134,0.9741844640287491,0.13860242068767548,0.9999634623527527,0.9630039016037556,0.9818369719950012,-0.13872762024402618,0.9999873638153076,0.9572174870130961,1.2371395989184402,0.27444249391555786,0.41699308156967163,0.9552993473685838,1.2665838156900837,-0.06219913437962532,0.8848658800125122,0.9358586794485761,1.4961187401496703,0.41791048645973206,0.5006848573684692,0.9425680620950383,1.55443466473484,0.012027394957840443,0.9098350405693054,0.9975774488209467,0.987831358356959,0.07354062050580978,0.4365529716014862,1.0125941838827743,1.0231720547797645,-0.4585391879081726,0.9193707704544067,0.00809180736541748,0.9553477141369345,0.9780107180118752,173.21058891944602,179.01743506768528,1.0,0.0017775868031263506,0.002583884921615332,0.033642204032891504,0.04825878900400414,122.10952540551305,0.8837876377585744,8,0.26666666666666666
0.9918638487333259,0.4932891726496548,-0.18270555138587952,0.9999318718910217,0.9038717780996549,0.5977062005109091,0.05876653641462326,0.999965250492096,0.9308250412114761,0.6104222042575896,-0.37163180112838745,0.9999890327453613,0.9387722922152667,0.9658724424782825,0.13827502727508545,0.9999611377716064,0.9549236350844829,0.9733114089091713,-0.13841889798641205,0.9999873042106628,0.9500617550411237,1.2282503570849927,0.2665484547615051,0.3787548542022705,0.9489102571361175,1.2556841782325305,-0.07317252457141876,0.8731159567832947,0.9286509420514315,1.4932891726496549,0.39523157477378845,0.46267709136009216,0.9337110350877211,1.5405967830232317,-0.01589554361999035,0.8970596194267273,0.9869042908509518,0.9807985263874619,0.0835321694612503,0.3978675901889801,1.0042705216853798,1.015286740545542,-0.45721158385276794,0.9273803234100342,0.007162034511566162,0.9468479636498748,0.969591925693727,172.9176912351072,178.16631871842577,1.0,-0.00872385991037761,-0.006696436875383849,-0.0829232342237704,-0.07321877831893918,120.1449980120012,0.8737132351329161,9,0.3
0.9872242032558946,0.48941430304500855,-0.15119019150733948,0.9999287724494934,0.8988520249059886,0.5954548825881639,0.08956757187843323,0.9999635219573975,0.9259215941699805,0.6064444111415154,-0.35475078225135803,0.9999899864196777,0.9317427616109929,0.9594639282057067,0.13940945267677307,0.9999576807022095,0.9492517853351597,0.9661935261944388,-0.13954980671405792,0.9999869465827942,0.9439931698974859,1.2212464674262573,0.25990229845046997,0.34320443868637085,0.9417931090165543,1.248519043215842,-0.0884862020611763,0.8547362089157104,0.9225439692843032,1.4894143030450084,0.38150912523269653,0.42386001348495483,0.9265192596790405,1.5317186131910403,-0.035895295441150665,0.877314567565918,0.9766791128625345,0.976706656989777,0.10070440918207169,0.36261242628097534,0.9972590965137282,1.008541044875954,-0.42764219641685486,0.9345875382423401,0.0062306225299835205,0.9404972734730763,0.9628287272000727,172.74771014611923,178.42617684533732,1.0,-0.0009948738917568195,-0.0031477792715386686,0.06282838481301871,0.028701799121611426,116.18732703177668,0.8681369491894716,10,0.3333333333333333
0.980214399971443,0.48385273240636784,-0.17919369041919708,0.999927818775177,0.8906198799133457,0.5906261893865893,0.06568685173988342,0.999961793422699,0.9195954442993804,0.6027606789661211,-0.36705827713012695,0.9999908208847046,0.92222538304739,0.9506123763892518,0.13874776661396027,0.9999550580978394,0.9424863593520041,0.9584706713608313,-0.1388980597257614,0.9999867677688599,0.9373117562917165,1.2106704934743922,0.262850284576416,0.3122248351573944,0.9354187055685094,1.238632993388935,-0.0792527124285698,0.8428080677986145,0.9159566160828525,1.483852732406368,0.3855343461036682,0.3927253186702728,0.9194997323562156,1.51973396046053,-0.02978387475013733,0.8665163516998291,0.9679942706434196,0.9733154163080731,0.08560822159051895,0.3296167552471161,0.9904395041286344,1.0015531532936364,-0.43066906929016113,0.941075325012207,0.006929546594619751,0.932355871199697,0.9545415238750415,172.21008163043984,178.20384993788133,1.0,-0.01109733862009949,-0.010980300132260859,-0.08097264435738184,-0.06291545952664358,116.21646751855873,0.8642185441260553,11,0.36666666666666664
0.9738409711771706,0.4790948895721624,-0.16893669962882996,0.9999282956123352,0.8811081726297787,0.587644685922472,0.06724604219198227,0.9999596476554871,0.9156690140753619,0.6005320848449734,-0.3637634515762329,0.9999915957450867,0.9122461014736507,0.9414949249773042,0.13790582120418549,0.9999513626098633,0.9367673827637111,0.950558662076257,-0.1380535364151001,0.9999864101409912,0.9325934614453016,1.199454627837989,0.25685667991638184,0.2847774922847748,0.9314737530556804,1.229201491981821,-0.0787888914346695,0.833021879196167,0.9114956121985881,1.4790948895721625,0.3517155349254608,0.3655872344970703,0.9158445853481825,1.5124056427775978,-0.027769897133111954,0.8572673201560974,0.958135549437572,0.9701001602944943,0.0878184512257576,0.29985150694847107,0.9853535639228254,0.996937943502515,-0.4228978753089905,0.9469282031059265,0.007393985986709595,0.9245067421186809,0.9460267935267807,171.17537237008028,177.92959478656945,1.0,-0.02633165435540557,-0.030559439338554425,-0.11496466525836208,-0.14763745219793964,115.3146232076481,0.8539533703313428,12,0.4
0.9697869229615256,0.4749646731071567,-0.1716146618127823,0.9999311566352844,0.8772373202884854,0.5848534966961393,0.07077749818563461,0.9999597072601318,0.9119956606409694,0.5983515858847258,-0.3652876615524292,0.999992311000824,0.9074647314527409,0.9370964225592645,0.1403304934501648,0.9999485015869141,0.9320085841231808,0.9462380759608275,-0.14046350121498108,0.9999860525131226,0.9290607219959437,1.1955782792559895,0.2558082938194275,0.26065799593925476,0.928120465442001,1.2236465674451926,-0.0879838615655899,0.8288297653198242,0.90799007457523,1.4749646731071566,0.35608595609664917,0.3435227572917938,0.9130958177316034,1.5068403534929962,-0.04116501286625862,0.8522612452507019,0.9540970062220973,0.9665106696349864,0.08944572508335114,0.27695152163505554,0.9818215858790336,0.9932215109379471,-0.4262538552284241,0.9522010684013367,0.007773756980895996,0.9197366577879608,0.9416672492600461,170.9111224904498,177.76605694913607,1.0,-0.010089606688756827,-0.006194553034463358,0.12781871160495004,0.19201005143728073,115.33322217896006,0.8544816011946634,13,0.43333333333333335
0.9632224953852608,0.47196692257029227,-0.16024109721183777,0.9999343156814575,0.8730133159992597,0.5814875448476193,0.08896265178918839,0.9999601244926453,0.9064745677024698,0.5947993766031064,-0.3634064197540283,0.9999929666519165,0.9026101079059459,0.9324792796576966,0.14480245113372803,0.9999470114707947,0.9256745169926899,0.9405105233855384,-0.14493869245052338,0.9999858140945435,0.923344110362098,1.190104821992774,0.24110427498817444,0.23935623466968536,0.9240561876298904,1.2161101513560364,-0.08874326199293137,0.828482449054718,0.9027335895130776,1.4719669225702923,0.326387882232666,0.32645776867866516,0.9084906107415724,1.4987987554906226,-0.04416792094707489,0.8506601452827454,0.9482632131879591,0.961442405117119,0.09943316131830215,0.2569849491119385,0.9760126173506167,0.9870753345335402,-0.42978399991989136,0.9569467902183533,0.007710754871368408,0.9141423124493179,0.9364949015216175,171.21650730746887,177.18476521376252,1.0,-0.0024238691099683256,0.0018020284263860784,0.058678502093557634,0.06140274467769478,114.01856541397896,0.8509127139895153,14,0.4666666666666667
0.9584759378484566,0.4691512604288953,-0.1485452800989151,0.9999362230300903,0.8698006331909315,0.5792582218165385,0.09972721338272095,0.9999600052833557,0.9022839168735269,0.592022101512822,-0.34891611337661743,0.9999935626983643,0.8985050497808924,0.9281805810352531,0.1438610702753067,0.9999448657035828,0.9214045931306594,0.9362967932067037,-0.14399099349975586,0.9999854564666748,0.9189821321353999,1.185357594130502,0.2300194501876831,0.21940314769744873,0.9202876371582964,1.2111011454021965,-0.09845182299613953,0.8238538503646851,0.8985706988528055,1.4691512604288952,0.31864506006240845,0.3070448040962219,0.9059735790650129,1.4921689925914357,-0.057086002081632614,0.845025897026062,0.9435444097792537,0.9594118211856519,0.1039973646402359,0.23827902972698212,0.9705835316589064,0.9823854117725378,-0.4295901656150818,0.9612146019935608,0.007428348064422607,0.9099548214557759,0.9322386871209783,171.33374068581801,177.317473216035,1.0,0.000894798043002894,0.0011712523063971243,0.025006422103304712,-0.004705177687203372,114.2185909377917,0.8489371024491558,15,0.5
0.9584171202702632,0.4695092520490434,-0.1556035280227661,0.9999366998672485,0.8703266217255511,0.5795226885083841,0.09342082589864731,0.9999598264694214,0.9023538610326142,0.5919603862274219,-0.3491385281085968,0.9999940991401672,0.8994413908381503,0.9286008064947614,0.14302590489387512,0.9999417662620544,0.9210897422670726,0.9363591675201307,-0.1431572437286377,0.9999849200248718,0.918658041623379,1.1873575323404564,0.23039385676383972,0.20062045753002167,0.9211071503232241,1.2124976326323638,-0.09576047211885452,0.8155437707901001,0.898084893662633,1.4695092520490434,0.328771710395813,0.28787392377853394,0.9056533020752912,1.4920246270746371,-0.04639416188001633,0.8363136053085327,0.9444250367373985,0.9593646305265522,0.10416416078805923,0.2215266227722168,0.9703975493143351,0.98225376675775,-0.43156760931015015,0.9650620818138123,0.007239669561386108,0.9102655665526115,0.932479987007446,171.58235491288323,176.83197158493402,1.0,0.003665226053097069,0.003135269202143701,0.022282289925078833,0.015797089781600916,114.48442694828148,0.8488474591855085,16,0.5333333333333333
0.9573870507372628,0.46792929527736343,-0.16307292878627777,0.9999372363090515,0.8688771965712965,0.5733370267914336,0.08496136963367462,0.99996018409729,0.8997321152959744,0.5906929760501858,-0.3694320619106293,0.9999945759773254,0.8974502366636752,0.9255171803533233,0.14390376210212708,0.999939501285553,0.9190462376744375,0.9335780402594426,-0.1440310776233673,0.999984622001648,0.9166769953384567,1.1851017194505222,0.2312740981578827,0.1837390959262848,0.9192491666984276,1.2106220367227964,-0.09331727772951126,0.8095176219940186,0.8961565385907959,1.4679292952773635,0.33304429054260254,0.2705305218696594,0.9034561592075264,1.489097673949053,-0.03526126593351364,0.8287392854690552,0.9412053513998067,0.9562586795328709,0.09631426632404327,0.2071043848991394,0.9683308106851021,0.9800340728662335,-0.4389015734195709,0.9685266017913818,0.010124266147613525,0.9082482371690563,0.929547610306383,171.6141801697643,176.71213073275297,1.0,-0.0004023683291059142,-0.006555341318514732,-0.028804464811098683,-0.06870910202770068,115.10679933077945,0.8455352683098393,17,0.5666666666666667
0.9597612932386693,0.46829254705947043,-0.16830572485923767,0.9999353289604187,0.8711836276276104,0.573452259364534,0.08011510968208313,0.9999596476554871,0.902123899532462,0.5920558362795529,-0.3685914874076843,0.9999949932098389,0.8994448075094449,0.9273898784941706,0.14341968297958374,0.9999365210533142,0.9206423308213241,0.935636562627552,-0.1435425877571106,0.999984085559845,0.9194930952682788,1.1866364477347167,0.24733540415763855,0.1685938537120819,0.921872359999189,1.2134819471816543,-0.09206345677375793,0.8029693365097046,0.8983237319650504,1.4682925470594705,0.36362600326538086,0.2553776800632477,0.9056227038072946,1.4922714600257925,-0.027192428708076477,0.8222282528877258,0.9435141970475613,0.9552634742569392,0.09227629750967026,0.19233660399913788,0.9704019877074906,0.9817541575948772,-0.44104090332984924,0.9716266393661499,0.01082870364189148,0.9100435691653844,0.9315132205608614,171.27966499543936,176.41055716927912,1.0,-0.0012945497627197596,-0.00030385619824392597,-0.0071002313427201745,0.04991206118864916,115.82328755410803,0.8488626424395682,18,0.6
0.9629060236137186,0.4701475355615164,-0.17040546238422394,0.9999356865882874,0.878982195024804,0.5785665455705425,0.07746412605047226,0.9999604225158691,0.9043306054065281,0.5945928866854342,-0.36826765537261963,0.9999953508377075,0.9018424273324437,0.9300630997236824,0.14324194192886353,0.999937117099762,0.9188020790634882,0.9382223936334674,-0.1433541625738144,0.9999842047691345,0.9217938475420862,1.1900809425323267,0.2468719184398651,0.15637391805648804,0.9245110796819136,1.2194069470937983,-0.09940481185913086,0.8065638542175293,0.9006931529210015,1.4701475355615163,0.3658090829849243,0.24551960825920105,0.9082075841741608,1.496343476787126,-0.04075366631150246,0.8243581056594849,0.9488983048715776,0.9571734091740824,0.09023450314998627,0.18473680317401886,0.9728376888085426,0.9835932710260415,-0.4474964141845703,0.9744234681129456,0.009304136037826538,0.9103222531979659,0.9341427466785749,171.30361564064992,175.46769711527025,1.0,-0.01624715435083565,0.0014223524016230727,-0.11512132152182268,0.013299382661899957,119.41331931840169,0.8503638868587317,19,0.6333333333333333
0.9637440834693638,0.4701613206289856,-0.15549834072589874,0.9999371767044067,0.8816359144319094,0.5816087459819752,0.09254522621631622,0.9999610185623169,0.905328322400582,0.5961552638923087,-0.35420432686805725,0.9999957084655762,0.9012687645583771,0.9341923875358626,0.14326325058937073,0.9999355673789978,0.9155125893832762,0.9407037799055737,-0.14336898922920227,0.9999838471412659,0.9218629835311551,1.1935028181876242,0.23833605647087097,0.14554689824581146,0.9257708867983306,1.2227378569042053,-0.10029957443475723,0.8081528544425964,0.900827662287337,1.4701613206289856,0.3476770520210266,0.23689420521259308,0.908271879175763,1.4969633147891037,-0.044450320303440094,0.8250377774238586,0.9491502312603922,0.957506839857492,0.09113902598619461,0.17595045268535614,0.9729325846642212,0.9835735608884392,-0.4460735321044922,0.9769423007965088,0.00844430923461914,0.9083906769708266,0.9374480837207182,171.11111360676972,174.2656895195331,1.0,-0.015175452197873772,0.024382053546611954,0.008108647119610447,0.1734937912176548,117.75403619578478,0.8616159244047117,20,0.6666666666666666
0.9618145453935166,0.46848033470885103,-0.15393583476543427,0.9999396800994873,0.8802725506240587,0.5798446678802223,0.09864044189453125,0.9999618530273438,0.9033204200316092,0.5942013865152874,-0.35026079416275024,0.9999960660934448,0.8963588828138336,0.9370676094031869,0.14415672421455383,0.9999361634254456,0.90957461832147,0.9412854452326053,-0.14425915479660034,0.9999840259552002,0.9186036278136473,1.1947747588068405,0.23637115955352783,0.13616524636745453,0.9240902119110472,1.224004578054728,-0.10166963189840317,0.8131188154220581,0.9000504101788036,1.468480334708851,0.348417729139328,0.23198343813419342,0.9061773038352261,1.4944541639871975,-0.04267939552664757,0.8283147215843201,0.940901996308575,0.9544003808496172,0.10168325901031494,0.16829004883766174,0.9694736997223449,0.9803369602191441,-0.45662641525268555,0.9792154431343079,0.008362025022506714,0.9029667505676517,0.939176527317896,171.1886958057836,173.27147136650942,1.0,-0.01781978706082165,0.03614925507691007,-0.0200632182574335,0.08820906566034667,110.27899683242791,0.874732040887582,21,0.7
0.963348928464785,0.4677597584896743,-0.1429539918899536,0.9999417662620544,0.8839116226256536,0.5811278586993089,0.11369764804840088,0.9999627470970154,0.9044159608876986,0.5934647730239675,-0.33825093507766724,0.9999963641166687,0.8927716619380792,0.939363780166241,0.14584103226661682,0.9999368786811829,0.9037019328481466,0.9415460321949376,-0.14595355093479156,0.9999841451644897,0.9186620774403577,1.1968660444660808,0.2368994504213333,0.12802419066429138,0.9272954184716887,1.2239839831225277,-0.11552853882312775,0.8199706673622131,0.9010943915734471,1.4677597584896742,0.3499857485294342,0.22432941198349,0.9054144349670549,1.4928331198625255,-0.05957760661840439,0.8300190567970276,0.9455301165038035,0.9540066698150268,0.1100100725889206,0.16353057324886322,0.9682822223933646,0.9790984287039272,-0.4533121585845947,0.9812593460083008,0.007194489240646362,0.8982367973931129,0.9404549061805894,170.54804066042288,170.57196721023357,1.0,-0.027260990536260275,0.01840054216624817,-0.07138595618195441,-0.13355050729958712,102.70754125263802,0.8838453634314856,22,0.7333333333333333
0.9695062144877609,0.475730666631603,-0.143254354596138,0.9999451041221619,0.890261736604993,0.58591886814471,0.10819108784198761,0.9999646544456482,0.910893145655036,0.5964383288928482,-0.33883053064346313,0.9999966025352478,0.8951390452600766,0.9465126303176933,0.14633703231811523,0.9999393820762634,0.9047022847816547,0.948077962976051,-0.14646421372890472,0.9999845623970032,0.9255685245481307,1.2034186668025384,0.2468864619731903,0.12402607500553131,0.9351694643640792,1.2299592631369602,-0.09205152094364166,0.8278334140777588,0.9086731427622831,1.475730666631603,0.3676738142967224,0.22299736738204956,0.9115695937161519,1.5011632646688045,-0.01297457329928875,0.8343765139579773,0.9501456238073558,0.9607294421424779,0.1075088232755661,0.16190700232982635,0.9730743881252496,0.9846028710571861,-0.4487427771091461,0.9830746650695801,0.006103724241256714,0.8999206650208657,0.9472952966468722,169.6946990653386,168.85783850448732,1.0,-0.0216190689356544,0.015728992296936365,0.04367207509100677,-0.020889475939258124,100.07079201327144,0.8806864292937981,23,0.7666666666666667
0.975346179862792,0.4853148840903333,-0.14919577538967133,0.9999457001686096,0.8933173957144074,0.5908116556808038,0.10525567829608917,0.9999648332595825,0.9173017966641668,0.5981218410992439,-0.3425634801387787,0.9999967813491821,0.8963608009040279,0.9514993654157761,0.14599713683128357,0.9999404549598694,0.9080783440649602,0.9534851903961526,-0.14612124860286713,0.9999846816062927,0.9317076398206074,1.207903571045302,0.2527613639831543,0.11985360085964203,0.939987067487572,1.2347395399319814,-0.0751548558473587,0.8317621350288391,0.9138115963247077,1.4853148840903332,0.3724096417427063,0.22585299611091614,0.9157637982167077,1.507531906995856,0.004644001834094524,0.8383246064186096,0.9538192553754525,0.9660598128957643,0.10436175763607025,0.1546098291873932,0.9768780931500848,0.9888077918103748,-0.4546237885951996,0.9847153425216675,0.004224628210067749,0.902219572484494,0.9524922779059644,168.4598242837931,168.4529738976854,1.0,-0.009798227586876882,0.010352786314033559,0.08861709421359756,-0.040480007848766805,100.10221853132128,0.8691142390631003,24,0.8
0.9895312082149851,0.49904787755485147,-0.1510324776172638,0.9999420046806335,0.9069402149148514,0.5989153420271933,0.09031973779201508,0.9999646544456482,0.9309269641732402,0.60639254473471,-0.3438219428062439,0.9999969601631165,0.904629758185002,0.969264032958393,0.14408203959465027,0.9999430775642395,0.9079998119649924,0.9731086512814258,-0.1442032754421234,0.9999852180480957,0.9379769234401306,1.222536151838581,0.25761765241622925,0.11281642317771912,0.9492675614779988,1.248735904467388,-0.06654495745897293,0.8309592008590698,0.9222156125383534,1.4990478775548515,0.387529581785202,0.22009584307670593,0.924380618046915,1.5228480494413377,0.025079872459173203,0.8363810777664185,0.9647959630154089,0.9978386906391519,0.1107880249619484,0.144591823220253,0.9861050354598521,0.9994816543269994,-0.45547565817832947,0.9861566424369812,0.004280537366867065,0.9063147850749972,0.9711863421199094,169.23691664926946,166.2970306989813,1.0,-0.033350904496403884,0.0721398707040285,-0.1752445387671194,0.46081701233927025,138.40592251741245,0.887757288529952,25,0.8333333333333334
1.0061628516421097,0.5180132907334899,-0.07857219874858856,0.9999434947967529,0.9179291379901965,0.6147829865913008,0.13702604174613953,0.9999635219573975,0.9484061629676567,0.6203299063862693,-0.30415821075439453,0.9999971389770508,0.8979876061645286,0.9869347038941922,0.14459951221942902,0.9999462962150574,0.9152393931447101,0.993461261182683,-0.14473465085029602,0.9999860525131226,0.9446016236659578,1.241835356671209,0.2699127793312073,0.11210884898900986,0.9620782679574588,1.2666545624808807,-0.059500087052583694,0.8406074047088623,0.9331193462347501,1.51801329073349,0.3951326012611389,0.22454562783241272,0.9363906404304309,1.5435822670057175,0.018088947981595993,0.8438894152641296,0.9254146083530378,1.0077982350704948,0.17751996219158173,0.13254722952842712,0.9987963489374148,1.0176498751235095,-0.3962860703468323,0.987455427646637,0.003134816884994507,0.9066134996546193,0.9901979825384376,167.25601694498403,164.97169947553868,1.0,-0.09186405158771713,0.05138039893482773,-0.4655365464485205,-0.1738977276477158,107.65500232861162,0.8914364709007405,26,0.8666666666666667
1.0220526052930272,0.5297817390193311,-0.01426156610250473,0.9999411106109619,0.9274134198725636,0.6246869375037319,0.16172567009925842,0.9999610781669617,0.9637171048101575,0.6305574624640041,-0.24866726994514465,0.9999971985816956,0.90121482843912,0.9994258094988092,0.13923071324825287,0.9999491572380066,0.9196765498079021,1.0054546236638267,-0.1393943727016449,0.9999866485595703,0.952455761038492,1.253171433482883,0.22309568524360657,0.1284002810716629,0.9706090922871791,1.2769355507717277,-0.08537735790014267,0.8540115356445312,0.9407231120901848,1.5297817390193311,0.29020872712135315,0.25848084688186646,0.9445238608082256,1.556266814240201,-0.08371486514806747,0.856203019618988,0.9329626342301229,0.7470943668982127,0.3484252095222473,0.1356092393398285,1.0058184176641183,1.0281948857539556,-0.4004145562648773,0.9885194897651672,0.0032904446125030518,0.9104456891235111,1.002440216581318,166.15453756355942,164.03918571024832,1.0,-0.029243817019704212,0.03212431270203195,0.5039839975698187,-0.15650162515924632,104.08570689701199,0.8968017178492526,27,0.9
1.0448032919919095,0.5455474419254245,-0.07691040635108948,0.9999136924743652,0.9501905888920236,0.6432592454388537,0.1357882171869278,0.9999451637268066,0.977079945331449,0.6459518932245988,-0.28682202100753784,0.9999970197677612,0.9160578216118959,1.0139375322929438,0.13868175446987152,0.999951958656311,0.9206953089072251,1.0224325267118193,-0.1388179361820221,0.9999873042106628,0.9703997040615996,1.2716437772775173,0.24299654364585876,0.1359224021434784,0.9843902823229098,1.2944856079724325,-0.06979317218065262,0.8659346103668213,0.9530645398353703,1.5455474419254245,0.3644794225692749,0.2862018942832947,0.9525620557131154,1.5739077749034682,-0.05057935789227486,0.8680194616317749,0.9508288620854317,0.7221884184188514,0.2707933187484741,0.130637064576149,1.0142920687346633,1.0455602461246853,-0.44232258200645447,0.9894216656684875,0.0014916062355041504,0.9183765652595605,1.0181850295023815,164.47124387737384,160.32445991085294,1.0,-0.022281589626213943,0.030678484021128122,0.057536423583299134,-0.014372697476488935,146.10844175554203,0.9016220099686446,28,0.9333333333333333
1.05097715887932,0.5550658942963229,-0.03572962060570717,0.9999091625213623,0.9582522420793536,0.6524819050981934,0.14404593408107758,0.9999403357505798,0.9904662185998478,0.6612107331597045,-0.24915513396263123,0.999997079372406,0.9134384344710145,1.0232527124854904,0.13476310670375824,0.9999544024467468,0.9224058837770216,1.0353611943259144,-0.13488949835300446,0.9999879002571106,0.9805057620139936,1.283738238897086,0.2432958334684372,0.1328224241733551,0.9961786961687454,1.3076239107819148,-0.06251928955316544,0.8726569414138794,0.9604553922053215,1.555065894296323,0.3559987246990204,0.28777170181274414,0.9606461589846866,1.587602590044253,-0.04419778659939766,0.8744866251945496,0.942504759131983,0.6561718533057723,0.4084691107273102,0.12409726530313492,1.020991941677018,1.070445462132523,-0.39943501353263855,0.9900529384613037,0.004794597625732422,0.9179221591240181,1.0293069534057024,161.33530317074556,157.60623987310706,1.0,-0.06867120828028085,0.020448693689116577,-0.3838168792489608,-0.0871539698201904,136.58491786223345,0.9059227435476623,29,0.9666666666666667
1.064237233124366,0.57352401910881,-0.035492442548274994,0.9999123215675354,0.96737834965418,0.6649932157097083,0.15462423861026764,0.9999399781227112,1.006140863504205,0.6785541704128575,-0.26220282912254333,0.9999972581863403,0.9088722124115974,1.0383247115167908,0.13506552577018738,0.9999566674232483,0.927174160401558,1.0530452937785326,-0.13521327078342438,0.9999884963035583,0.992099368621006,1.3011000359678209,0.25866401195526123,0.128392294049263,1.0085657836958022,1.326094928273933,-0.020823407918214798,0.8759182095527649,0.9710883678224282,1.57352401910881,0.3783789873123169,0.29092204570770264,0.9715717059873145,1.607377441132045,0.06054619699716568,0.8798956871032715,0.9356268177300509,0.7724420877487546,0.3540959060192108,0.11441335082054138,1.031793007934646,1.106438305751055,-0.3948020040988922,0.9908303022384644,0.007366567850112915,0.9180231864065777,1.0456850026476616,158.015505239471,155.909045315284,1.0,-0.07402985165683065,0.03566200877821581,-0.033505618759433094,0.10933754648642906,119.90375014695398,0.903013182723647,30,1.0
1.0877221905250543,0.5980146854550547,-0.03726249188184738,0.9999176263809204,0.983464549211691,0.6886777877312579,0.1589379459619522,0.9999428987503052,1.0242923331890437,0.7059204653327419,-0.26176032423973083,0.9999974370002747,0.9173498142763796,1.0592920959244174,0.13540783524513245,0.9999598264694214,0.9325650489377785,1.0730112267383198,-0.1355423629283905,0.9999893307685852,1.0072996188839474,1.3251058946558427,0.250090092420578,0.1358274519443512,1.024844391164488,1.3514551896234488,-0.05409608408808708,0.8850545883178711,0.9855885688799261,1.5980146854550545,0.3569607138633728,0.3077668845653534,0.9867369073926088,1.6327862063034861,-0.015813488513231277,0.8889108896255493,0.9092820929368883,1.0388639457797975,0.20774328708648682,0.10668344050645828,1.0465555525603527,1.1326460753646022,-0.3987256586551666,0.9916582107543945,0.009226381778717041,0.9249574316070791,1.0661516613313686,156.75594495658572,153.95023759536974,1.0,-0.05377646935721231,0.03512701504601351,0.16394276263071814,-0.008257497748123746,121.92532920920956,0.8968156450048247,31,1.0333333333333334
1.106716096952584,0.6250531381984608,0.03290262073278427,0.9999227523803711,0.9986823706648069,0.7171648359219709,0.18631282448768616,0.9999451041221619,1.0452610456601867,0.7386345065474463,-0.21987219154834747,0.999997615814209,0.9171963893347203,1.0845592430031947,0.13549424707889557,0.9999622106552124,0.9443108286074395,1.1027465215021122,-0.1356334388256073,0.9999899864196777,1.0239231775655575,1.3514912720986318,0.2317115068435669,0.13898564875125885,1.0426852961153155,1.378782315449163,-0.05623409152030945,0.8877002596855164,1.0009541258745847,1.6250531381984608,0.31230565905570984,0.30577680468559265,1.0025868933640028,1.6616036204627898,-0.013385157100856304,0.8906351327896118,0.9368911946349469,1.1211290713900772,0.2139502763748169,0.09737496823072433,1.061366296712613,1.166369130467026,-0.3077150285243988,0.9920466542243958,0.011311173439025879,0.9307536089710798,1.0936528822526534,153.40764374566302,152.31518484452437,1.0,-0.06400896882413296,0.07975175128739592,-0.0692495224630726,0.32501528355413645,111.34668363036916,0.9031155734805689,32,1.0666666666666667
1.123302053602562,0.6500884837547626,-0.04993724450469017,0.9999285340309143,1.0211464241752624,0.753471834936693,0.16609326004981995,0.9999487400054932,1.054869542330991,0.7622460995812652,-0.24918636679649353,0.9999977946281433,0.9244276111434993,1.1078383564357874,0.13833557069301605,0.9999650716781616,0.9444334724804735,1.123915428038125,-0.13843990862369537,0.999990701675415,1.0360959810239645,1.3688719284136293,0.22044344246387482,0.15816117823123932,1.0568393452860274,1.3948838574533378,-0.10525234788656235,0.8976148962974548,1.0111535370982514,1.6500884837547627,0.31145474314689636,0.32923951745033264,1.0134679697277569,1.681974568939641,-0.056257396936416626,0.8999582529067993,0.9689748022599969,1.1733463798918944,0.1608421802520752,0.09359677881002426,1.0737893795343882,1.1967018791359352,-0.35996538400650024,0.9926735162734985,0.004569292068481445,0.9344305418119864,1.1158768922369562,151.77051955579424,148.87902547192581,1.0,-0.055087787699230596,0.0723231881879677,0.0740161595903681,-0.06399794359393372,113.51982384124794,0.9045838287595914,33,1.1
1.1147683565896622,0.6409265508908417,0.006156758405268192,0.9999313354492188,1.0158691627312078,0.7442416185986324,0.18108639121055603,0.9999520182609558,1.0492496199527426,0.7566583346718216,-0.2346603125333786,0.9999979138374329,0.9149804368370786,1.1016283449505018,0.13814547657966614,0.9999675750732422,0.9355297774590684,1.1151861696924086,-0.13823750615119934,0.9999912977218628,1.0245149250165966,1.3626086507446469,0.19798322021961212,0.17333383858203888,1.0506972348576022,1.3863548360530051,-0.1124572902917862,0.9063423871994019,0.998031739690493,1.6409265508908417,0.2740454375743866,0.3454177677631378,1.005579107388319,1.6715733069184753,-0.05761166661977768,0.9072200655937195,0.9603909083504835,1.152306128122678,0.18927724659442902,0.08810558915138245,1.0647127998460246,1.193675085416787,-0.3081185221672058,0.9930108785629272,0.006506174802780151,0.9252551071480735,1.1084072573214552,151.79642815482637,147.99967068020476,1.0,-0.025864563226697272,-0.004552132204838171,0.21811203274728136,-0.5771440167761542,107.6514606350476,0.9119016236107337,34,1.1333333333333333
1.122669789098551,0.6503923939463142,-0.029532739892601967,0.9999350905418396,1.030015574021452,0.7626572676402222,0.15896756947040558,0.9999560117721558,1.0553714127234675,0.7730111544409302,-0.26347678899765015,0.9999980330467224,0.9175282796861763,1.118065544525546,0.1386064887046814,0.9999700784683228,0.9328015069684936,1.1305261346541886,-0.13867861032485962,0.9999918341636658,1.0321634663570474,1.3704073684388771,0.2047666311264038,0.2049226015806198,1.0590271659811747,1.3937879653957417,-0.10539717972278595,0.915118396282196,0.9992489870936533,1.6503923939463143,0.2918306887149811,0.38566625118255615,1.0144063130849696,1.6810224850792819,-0.04517780989408493,0.9157382845878601,0.9991518496839201,1.2043383237629912,0.15778681635856628,0.09987083077430725,1.0699570124056714,1.2117764864769622,-0.3415856659412384,0.9934411644935608,0.005393922328948975,0.925164893327335,1.1242958395898672,148.86359514960472,145.55365213575158,1.0,-0.041858323847618,0.07227453341016508,-0.12124566964880162,0.5881388907834442,111.64645908878089,0.9376757930339457,35,1.1666666666666667
1.1484501853287632,0.6903896494168064,-0.07629422098398209,0.9999298453330994,1.0555979268361397,0.7979391350255594,0.12149796634912491,0.9999587535858154,1.0794583505134492,0.8058344112411583,-0.294247031211853,0.9999977946281433,0.9393238971272506,1.1596618309577233,0.13863131403923035,0.9999716877937317,0.9479575745777934,1.1712093262767451,-0.138704314827919,0.9999918937683105,1.0574780999964952,1.4068509475086244,0.23078075051307678,0.23348453640937805,1.089582053784046,1.4252949465329048,-0.09794577956199646,0.9229116439819336,1.0189705341045705,1.6903896494168065,0.34064003825187683,0.4177210330963135,1.0374235437302919,1.7173572093207767,-0.0021812524646520615,0.9227151274681091,1.033866111473193,1.261338510801517,0.11872012913227081,0.11046302318572998,1.09395699333549,1.2639306384964841,-0.38064977526664734,0.99294513463974,0.00402146577835083,0.943640735852522,1.1654355786172343,146.7185580684274,140.7396603421425,1.0,-0.019892655568600672,0.11859466529553186,0.17510282007560382,0.34130191306815544,125.3960063403311,0.9491356742479112,36,1.2
1.217175030346858,0.7789825101248433,-0.024004189297556877,0.9999235272407532,1.1058144211221512,0.8792032704504618,0.18332871794700623,0.9999594688415527,1.13360353413299,0.8910121030772391,-0.24669352173805237,0.999997615814209,0.969324645584363,1.2496873074496464,0.14036311209201813,0.9999732375144958,0.9838108274638143,1.2570490186311876,-0.14045760035514832,0.9999921917915344,1.1112978862352554,1.489944520900899,0.2643914520740509,0.24130286276340485,1.1496630791576425,1.4996631406507694,-0.09663984179496765,0.9302228093147278,1.0724022536001152,1.7789825101248433,0.39466798305511475,0.43733417987823486,1.0947129439342564,1.804974425008517,0.007801377680152655,0.9296295642852783,1.0790722900901366,1.3475504212894125,0.17802372574806213,0.10475831478834152,1.1502737059078907,1.3581958654481188,-0.28540825843811035,0.9924962520599365,0.005723088979721069,0.9765677365240887,1.253368163040417,141.7560212718092,135.44038723242267,1.0,-0.11391636934455023,0.21406736521420097,-0.6980859402812015,0.6711965080331018,96.71488614433252,0.9686402175577804,37,1.2333333333333334
1.2461719222531789,0.8188972820427758,-0.01377597264945507,0.9999063611030579,1.1290102787678769,0.9267629923077252,0.1835150569677353,0.9999599456787109,1.1595987814587005,0.9359776886024405,-0.23563244938850403,0.9999973177909851,0.9826899905787819,1.290579386032585,0.13858124613761902,0.9999744296073914,0.9942728282053599,1.294789610835483,-0.13869217038154602,0.999992311000824,1.1373012275270724,1.521314656349556,0.23914246261119843,0.25570327043533325,1.176460571963331,1.531720911454394,-0.09420560300350189,0.9368169903755188,1.094537757488333,1.8188972820427758,0.3538420498371124,0.46435123682022095,1.1205368458225091,1.8410288382905686,0.010078975930809975,0.9360603094100952,1.0972693569785854,1.3828428871565617,0.17565256357192993,0.103598453104496,1.1771290933405354,1.4027160442865207,-0.27415862679481506,0.9925253391265869,0.004364192485809326,0.988481409392071,1.292684498434034,137.9971433575707,132.19308544986166,1.0,-0.08236669066220832,0.07692877083360249,0.2600097423026621,-1.0804199055700094,88.06652061152029,0.9800446468447905,38,1.2666666666666666
1.2658495175783677,0.8468975276434523,-0.00986543856561184,0.9998874068260193,1.1451554111843703,0.9614522161539292,0.19777780771255493,0.9999594688415527,1.1757242459238402,0.9710669715638865,-0.2290758639574051,0.9999968409538269,0.989336968685665,1.3235075040808888,0.1390276402235031,0.9999761581420898,0.9984521890587704,1.3325203507647225,-0.13914264738559723,0.9999927282333374,1.1721309422111388,1.5430083243484765,0.2208755910396576,0.2703331410884857,1.2006395224299347,1.5571257966871312,-0.12120884656906128,0.9430095553398132,1.112377170743977,1.8468975276434523,0.3435301184654236,0.48540249466896057,1.1399348642609233,1.8720027258752119,-0.04778943955898285,0.94221031665802,1.126221007541145,1.4214019290730542,0.17474691569805145,0.09912503510713577,1.200665850744529,1.4480063075484555,-0.2700720429420471,0.991460919380188,0.004483968019485474,0.9938945788722177,1.3280139274228056,129.089281075334,127.09471608358152,1.0,-0.07682736951626588,0.11762787994075957,0.05264874626774232,0.3049740982673091,111.39075166427695,1.0091482892617714,39,1.3
1.2806904554050345,0.8714652397040865,-0.002035031095147133,0.9998407959938049,1.1599648732664463,0.9936183067181787,0.20340240001678467,0.9999555349349976,1.1896349589602144,1.0060294676854706,-0.22768115997314453,0.9999958872795105,0.9873249288248543,1.343858231269384,0.1391545981168747,0.9999768137931824,1.0042576563905927,1.3595287739499646,-0.1392812281847,0.9999926090240479,1.1864359217792417,1.562120260825644,0.22326555848121643,0.27698761224746704,1.2181395923131166,1.576994281578595,-0.08450104296207428,0.948464572429657,1.1263530982611645,1.8714652397040865,0.3377434015274048,0.510822594165802,1.161686893847428,1.8967801594947427,0.0222519151866436,0.9476395845413208,1.158020251288359,1.4458815407046857,0.1873420774936676,0.09641245752573013,1.2215388283073094,1.4670934207819706,-0.2696669101715088,0.9910246133804321,0.005712687969207764,0.9957912926077236,1.3516935026096744,126.63567921344125,125.46455709804074,1.0,-0.08990640664677069,0.04923211476647399,-0.09663236526078388,-0.5602533979120158,106.54342244325275,1.0103112425231675,40,1.3333333333333333
1.3397373994738417,0.9553057067439121,0.04681017994880676,0.999582827091217,1.2038891905819107,1.0615893442221134,0.24490828812122345,0.9999469518661499,1.244202388959989,1.077467447579808,-0.21609750390052795,0.9999935626983643,1.0240508075374468,1.4261108386543981,0.14947916567325592,0.9999768137931824,1.0458954296102208,1.4407427273491866,-0.1496458649635315,0.9999921321868896,1.2460357094996042,1.6339252416703887,0.25095051527023315,0.2585417926311493,1.2812294262224806,1.6459276303448136,-0.11072878539562225,0.9530004858970642,1.1840730924039378,1.9553057067439121,0.3790551722049713,0.4990500807762146,1.2193485348087834,1.9895479515920156,0.010005293413996696,0.9515020847320557,1.2278235288238388,1.5306793246739012,0.23162925243377686,0.09078074246644974,1.2905415305506849,1.5550167160295678,-0.29568952322006226,0.9846335053443909,0.006959766149520874,1.0349731185738338,1.4334267830017924,122.19883464686546,120.87608968038161,1.0,-0.082735445388325,0.10821171580690538,0.09018853237096151,0.4365364328471876,97.55518599142583,1.0049448879714435,41,1.3666666666666667
1.3498994812867444,0.9821070758469665,0.0515238419175148,0.9995043873786926,1.217136285110332,1.0992958378920716,0.24952098727226257,0.9999374151229858,1.2571829183990562,1.1047302493799402,-0.2083655595779419,0.999990701675415,1.0336445576079898,1.4628668436406687,0.1490468531847,0.9999769330024719,1.054777766940883,1.4738948632061228,-0.14921487867832184,0.9999915361404419,1.267698446343369,1.6566642741194215,0.2354511022567749,0.24330675601959229,1.3002596670197777,1.6642226633313555,-0.10706981271505356,0.9567789435386658,1.2037880511233499,1.9821070758469665,0.3630548417568207,0.49390730261802673,1.238835304506243,2.016053748300259,0.02764916978776455,0.9548429250717163,1.2699674805787748,1.5737600979128004,0.23235781490802765,0.08676652610301971,1.311445779559075,1.5861601879126748,-0.264232337474823,0.9787404537200928,0.0023480355739593506,1.0442111622744363,1.4683808534233957,118.51452391277284,117.8840879189049,1.0,-0.0409650779694517,0.10115551249914204,0.3061607371145175,-0.06144244964498683,90.77731118361508,1.026638539722312,42,1.4
1.3497265297713836,1.001953129631151,0.06462123245000839,0.999417781829834,1.2119380672538842,1.1253796105429108,0.24805879592895508,0.9999265074729919,1.2638992936625177,1.1354988389039766,-0.20456674695014954,0.999986469745636,1.0342633864280155,1.502228252690313,0.14931108057498932,0.99997478723526,1.0615295112545207,1.5162778702448518,-0.1494797170162201,0.99998939037323,1.2865630176864027,1.672154436022835,0.22832119464874268,0.23036891222000122,1.3161945731645317,1.6774889640434736,-0.10328562557697296,0.9601529836654663,1.2204656965132528,2.001953129631151,0.3613525331020355,0.4895400106906891,1.253302906373496,2.035389821827657,0.04640417546033859,0.9574838876724243,1.2835025613294282,1.5869736867982358,0.25926950573921204,0.0824127048254013,1.3277875405588575,1.6042005049432186,-0.22744600474834442,0.9681420922279358,0.00432431697845459,1.047896448841268,1.5092530614675823,112.62772509244171,112.3686390175821,1.0,-0.06500679897187901,0.20316038520683713,-0.19468944148338732,0.8326729383658347,92.01832588384462,1.0864150128931316,43,1.4333333333333333
1.3506788097047746,1.0195474976955836,0.08360166102647781,0.9992534518241882,1.2060573632695362,1.1520543582121243,0.26834869384765625,0.9999043345451355,1.264777900664361,1.1566214267483859,-0.17300835251808167,0.9999843239784241,1.0313319772841847,1.544355814547037,0.14654724299907684,0.9999743103981018,1.068117704878613,1.5449278582321628,-0.1467369794845581,0.9999889135360718,1.2882345041620116,1.6895275085092905,0.23806610703468323,0.22442762553691864,1.3268488591117433,1.6904532124373097,-0.07479558885097504,0.963472843170166,1.226298400654166,2.0195474976955836,0.35751235485076904,0.49992120265960693,1.2672193516135133,2.0488031448340642,0.06883781403303146,0.9606909155845642,1.2527247658494982,1.6045410537669034,0.33786049485206604,0.07559492439031601,1.3381207071236172,1.6147233751139904,-0.20441046357154846,0.9670107960700989,0.0019358396530151367,1.0497248410813989,1.5446418363896,108.84085344368593,109.90844862684189,1.0,-0.04955153406794934,0.16930727409836419,0.1174670645469298,-0.2609517862512577,66.88341878973105,1.1469098844724162,44,1.4666666666666666
1.3590524397823736,1.0340299477503712,0.08186165988445282,0.9990905523300171,1.2231104564534394,1.156928539195736,0.2696760594844818,0.9998980760574341,1.269150439765345,1.1651388404044876,-0.18457187712192535,0.9999811053276062,1.0452260129928734,1.5568455244403954,0.14883603155612946,0.9999731183052063,1.071772783647938,1.558690722497992,-0.14900672435760498,0.9999874830245972,1.304569359182851,1.70168839240862,0.22547629475593567,0.21157433092594147,1.3392735002710396,1.7066383423159557,-0.10163464397192001,0.9662249088287354,1.2406607690713984,2.034029947750371,0.34571975469589233,0.4827488660812378,1.2783137077937374,2.0673079379134776,0.02866218611598015,0.9628564715385437,1.293464539218441,1.627030739583422,0.27384454011917114,0.0753668025135994,1.3523327855778537,1.6339716245632856,-0.21068806946277618,0.9631631970405579,0.003448575735092163,1.0584993983204056,1.5577681234691938,108.29830546122643,109.3524550969969,1.0,-0.006237455833639552,-0.007543283889740318,0.3331933874887622,-1.35812546354105,69.99642602747866,1.1344019430719352,45,1.5
1.3644671659128509,1.053677427930795,0.1050032377243042,0.9984973669052124,1.2242265488378636,1.1843253619673302,0.2723325490951538,0.9998804926872253,1.277677513302222,1.1848388796948286,-0.16820338368415833,0.9999776482582092,1.0496978445934928,1.587511048330326,0.14831216633319855,0.9999722242355347,1.0818762118606553,1.5864072358873405,-0.1484786719083786,0.9999867677688599,1.3034903377378162,1.719492552811216,0.2610318064689636,0.2016390860080719,1.3511818821778336,1.7228380814146904,-0.1051504984498024,0.968813419342041,1.2503411813213907,2.053677427930795,0.3790743052959442,0.48385781049728394,1.2892675439535723,2.0876724447318487,0.013379248790442944,0.9653147459030151,1.2073818782100678,1.6446036198201226,0.34626513719558716,0.0689498707652092,1.3643962617914807,1.6513882131710207,-0.24005477130413055,0.9550120830535889,0.0002136826515197754,1.065787028227074,1.5869591421088332,108.4393996996536,107.23523820662238,1.0,-0.019791540264807235,0.10770187488930749,-0.09999772748974058,0.8544652279900016,64.62881269670267,1.1642820335591542,46,1.5333333333333334
1.3426025785656612,1.0514986465473422,0.09241491556167603,0.9982503652572632,1.2186618330927919,1.1940987075272738,0.26127058267593384,0.9998659491539001,1.264404935354907,1.1909539425571334,-0.17835111916065216,0.9999752640724182,1.0427809337796994,1.5951928130937918,0.14967206120491028,0.9999715089797974,1.072607530056004,1.5929656079908743,-0.1497901976108551,0.9999862313270569,1.286791994277642,1.7194383867024554,0.25619572401046753,0.1929597407579422,1.3479369994197394,1.7207792871928054,-0.14830945432186127,0.9714998006820679,1.2484139746320337,2.0514986465473424,0.3858494162559509,0.483921617269516,1.285740616146207,2.0849061509125284,-0.059463709592819214,0.9680140614509583,1.1790752292522864,1.661063870220172,0.30304843187332153,0.06371521204710007,1.362020316773794,1.6517694014489994,-0.24855251610279083,0.9474549293518066,0.0013103783130645752,1.0576942319178517,1.594079210542333,110.3915527690546,105.20858517493032,1.0,-0.05075546568616035,0.07108391610845691,-0.23709159966956667,-0.27901219224360124,62.05196061152269,1.1823902306431024,47,1.5666666666666667
1.3404102241460791,1.0783642931903779,0.127531498670578,0.9979705214500427,1.2187217497948735,1.2124029091731443,0.2692564129829407,0.9998586177825928,1.2616449556259768,1.2165059479456901,-0.15376833081245422,0.9999715089797974,1.0487295199603375,1.6143964060085414,0.149107426404953,0.9999715089797974,1.081581736052118,1.6197405692515996,-0.14922311902046204,0.9999857544898987,1.2938372150335307,1.7383708456433435,0.2541596591472626,0.18929727375507355,1.3636498322746,1.7434672623793523,-0.14865615963935852,0.973939836025238,1.26520966399833,2.078364293190378,0.3787108063697815,0.4909556210041046,1.3008897999182394,2.113106790486766,-0.07021231949329376,0.9705086350440979,1.2010628890518948,1.693504373617389,0.2433842420578003,0.060489099472761154,1.3786292906244835,1.674396145070149,-0.20529517531394958,0.9315877556800842,0.0016870200634002686,1.0651556280062278,1.6170684876300705,112.01712493565091,104.04804629256604,1.0,-0.052516879060861485,0.012306941327442932,-0.00840858433329804,-0.4651605959947025,76.31734040576497,1.150252151245956,48,1.6
1.299920732869771,1.0552166515442756,0.10395260155200958,0.998114824295044,1.1786268295584692,1.197415432865901,0.2760007977485657,0.9998608231544495,1.2185902204715606,1.203512408244355,-0.15875473618507385,0.999970018863678,1.0264456217452815,1.601824864077656,0.1488710641860962,0.9999717473983765,1.0563984914877422,1.6097548739251277,-0.14897897839546204,0.9999853372573853,1.2822205116958436,1.7186337958921565,0.20866072177886963,0.1837340146303177,1.3450700288543822,1.724080723466654,-0.15308550000190735,0.9758713245391846,1.2530006120626511,2.0552166515442756,0.32139304280281067,0.48072680830955505,1.280178343876005,2.0897711000356916,-0.06546096503734589,0.9723102450370789,1.232733454599142,1.6585709555487709,0.23168523609638214,0.06576434522867203,1.3571774021308953,1.6512190367251924,-0.18271639943122864,0.9295220971107483,0.0025352835655212402,1.041422056616512,1.6057898690013919,109.58393711305787,101.5432299516145,1.0,-0.08740563641591557,0.0508176506148802,-0.26302740624577187,0.28653727614369656,84.20726057991409,1.173784234766076,49,1.6333333333333333
1.3145032334876294,1.0814175417139051,0.034681446850299835,0.9982235431671143,1.1693468795945057,1.2206669641189052,0.25468915700912476,0.9998471140861511,1.2086109376940064,1.223905528550193,-0.1932114064693451,0.9999682307243347,1.0328007816534244,1.6411055011644733,0.14634940028190613,0.9999701380729675,1.0660384583696445,1.6501176947722285,-0.14648576080799103,0.999984622001648,1.2995903456054623,1.7394978375725112,0.20617762207984924,0.1738148033618927,1.3596565993202308,1.7443596731351891,-0.13958778977394104,0.9770146608352661,1.2692732804727054,2.081417541713905,0.3224237859249115,0.465120792388916,1.2939713413084573,2.1135225114097493,-0.033916495740413666,0.9735572934150696,1.203137492558859,1.6981686090027073,0.22648009657859802,0.06069902703166008,1.3660506136838086,1.6679314672363514,-0.2550315260887146,0.9318827390670776,0.0013307929039001465,1.0494196200115344,1.645611597968351,105.17703383109583,97.70588987730724,1.0,-0.03287903754033338,0.15307621003064897,0.4119184825202765,0.7535038204185305,87.17836986624522,1.2270194773528007,50,1.6666666666666667
1.2820646535437763,1.0759849545227567,0.04789742827415466,0.9982771873474121,1.152826784328679,1.2174294811966253,0.2572064995765686,0.9998463988304138,1.1809004256963929,1.2212989092289381,-0.18589583039283752,0.9999679923057556,1.0367835793561841,1.6394468145677623,0.14354069530963898,0.9999687075614929,1.056230315809208,1.6472001363246842,-0.14370951056480408,0.9999836087226868,1.2966475179475845,1.7313119167794508,0.17097371816635132,0.16593079268932343,1.3506942375046798,1.739755396715825,-0.15167012810707092,0.9773227572441101,1.266170329476394,2.0759849545227564,0.2536095082759857,0.4455815851688385,1.2904055717217704,2.1078904854512746,-0.054334115236997604,0.9726592898368835,1.214798316424868,1.6942599265027105,0.24811387062072754,0.059028152376413345,1.3581702519402834,1.6615020769840998,-0.2566298246383667,0.936180055141449,0.0015943646430969238,1.046506947582696,1.6433234754462231,104.41597889478216,98.14822137797464,1.0,-0.0004400742930302815,0.016569468061039337,0.2449620684328509,-1.030524303602004,96.36214396830341,1.216537330937355,51,1.7
1.2590033009588615,1.058234336466696,-0.039574481546878815,0.9984196424484253,1.1376582066379173,1.19891501111562,0.1948562115430832,0.9998556971549988,1.1460143658268716,1.2127364009190127,-0.23957566916942596,0.999968409538269,1.027922990864138,1.6197346143482356,0.13702549040317535,0.9999679327011108,1.0426667337625317,1.6385859718459728,-0.13718117773532867,0.9999827146530151,1.2949357173583813,1.7098096663779967,0.12558488547801971,0.1922655701637268,1.3350048519055906,1.7235260396830465,-0.14736361801624298,0.9792819023132324,1.2552305922163491,2.058234336466696,0.22345907986164093,0.4761691093444824,1.2798695415524477,2.088605537889128,-0.017278986051678658,0.974971354007721,1.2665011205224532,1.6728323895826789,0.1590857207775116,0.0810093954205513,1.3413422570833986,1.645614837189661,-0.2848544418811798,0.942214846611023,0.005746215581893921,1.035294862313335,1.6291602930971043,102.14033661813725,97.61337779469913,1.0,-0.014911257169315099,0.0038656185382657,-0.11469088546664041,-0.09948617859647046,127.35556698562397,1.2231756488092986,52,1.7333333333333334
1.2438836448391268,1.0644998565769286,-0.06433986872434616,0.9985488653182983,1.1258248986051071,1.2033833448563664,0.16504636406898499,0.999864935874939,1.1312219249787565,1.2196791570106529,-0.26177117228507996,0.9999695420265198,1.0346024985486737,1.630273821096544,0.13376694917678833,0.9999672174453735,1.0438216687967181,1.6558178840112248,-0.13390889763832092,0.9999820590019226,1.2994475782375554,1.7166246594826764,0.1677628457546234,0.20269760489463806,1.3339508863257887,1.7310942298576963,-0.14571966230869293,0.9808788895606995,1.2602660506972665,2.0644998565769286,0.27571287751197815,0.49432119727134705,1.288918705211782,2.0968864776697296,0.003864406142383814,0.9769269824028015,1.2880546396913723,1.6459963008724514,0.17861071228981018,0.10098912566900253,1.3366183755006762,1.6478501115532773,-0.3362709879875183,0.9476932883262634,0.006746917963027954,1.039212083672696,1.6430458525538845,101.63198851730579,97.52683317980296,1.0,-0.0029185262045051453,0.054017458795467974,0.0915030676065505,0.3805637673184543,148.0927137993334,1.2349420199470014,53,1.7666666666666666
1.2525637345450944,1.099685738134896,-0.05486080050468445,0.9986525774002075,1.1224339516813568,1.2305001041565362,0.1725917011499405,0.9998729228973389,1.134060920849553,1.242525336187624,-0.257840633392334,0.9999704360961914,1.056000959004046,1.6811273351116824,0.13488900661468506,0.9999672174453735,1.062954546322628,1.7000654614281463,-0.13503696024417877,0.9999819993972778,1.3266614877314178,1.7444938800322372,0.19154636561870575,0.1972227245569229,1.3618641933920979,1.7665693363744888,-0.14842793345451355,0.9823222756385803,1.2861581105034743,2.099685738134896,0.32079198956489563,0.4917231798171997,1.315295791341404,2.140691094043216,-0.002991227898746729,0.9785696268081665,1.3165018917118723,1.6730344163164665,0.16580457985401154,0.10882386565208435,1.3586534102377796,1.6801191174694752,-0.33098387718200684,0.9521718621253967,0.004879027605056763,1.059477752663337,1.6905963982699144,96.67118615175542,95.44799413129356,1.0,-0.007434392148180167,0.10577810786934512,-0.033769381185876995,0.38387682091646896,151.45174750331634,1.261736625757855,54,1.8
1.2242006891703516,1.0920826219743394,-0.0611676350235939,0.9987682104110718,1.0983189870853025,1.229577348084901,0.16235144436359406,0.9998826384544373,1.111988571799997,1.2412074271588398,-0.25718608498573303,0.9999715089797974,1.0497984722775677,1.6876482801045027,0.13158711791038513,0.9999668598175049,1.0570044864293053,1.7019364580133987,-0.13177666068077087,0.9999813437461853,1.3174041132970526,1.7359063082012678,0.19307948648929596,0.2076108604669571,1.3574145249283323,1.7546384607884673,-0.13123095035552979,0.9836785197257996,1.2821912209101627,2.092082621974339,0.3183917701244354,0.5129001140594482,1.31122755065203,2.1301452445986735,0.032834433019161224,0.9802270531654358,1.3197875746140069,1.657522037611286,0.1671609729528427,0.15061956644058228,1.351750199317154,1.6718485710797324,-0.3103422224521637,0.9567314982414246,0.004735171794891357,1.0534014793534365,1.6947923690589508,94.57630983932995,92.93824081110301,1.0,-0.018173566171263596,0.07658818302803624,-0.08182183108374179,-0.21906742067497412,147.1902084111242,1.2991140692120384,55,1.8333333333333333
1.2362305841108483,1.1003504313339254,-0.0485498420894146,0.9988691210746765,1.1022062078082726,1.2349075629266806,0.16512618958950043,0.9998899102210999,1.1131651380180623,1.2463974896746601,-0.2460702359676361,0.9999722242355347,1.0516197373010778,1.6979576492520907,0.12629812955856323,0.9999675750732422,1.06189810377223,1.698123851315107,-0.1265304684638977,0.9999813437461853,1.299613514250288,1.749448631251264,0.19400854408740997,0.22733815014362335,1.3588484278222839,1.7539769779364562,-0.09950427711009979,0.9844595193862915,1.2809075746516938,2.1003504313339256,0.30540281534194946,0.5355417728424072,1.3208494185859048,2.132521815852804,0.05354529619216919,0.9813804030418396,1.3140519887088122,1.6605355106682964,0.16991573572158813,0.1730184257030487,1.3516017833745175,1.6703053779704589,-0.30006083846092224,0.9606773853302002,0.0046727657318115234,1.0567589205366539,1.6980407502835988,98.67822336902728,94.92000898365366,1.0,0.016308434767359294,0.009926559576217945,0.2613625857224373,-0.5056329555099406,84.69177412094845,1.2882815420911293,56,1.8666666666666667
1.2131383386126129,1.0998182901830953,-0.05625365301966667,0.9989742636680603,1.0828084831984688,1.2380771610651526,0.16365459561347961,0.9998975396156311,1.1005901548920707,1.2494816971066895,-0.24229566752910614,0.9999738931655884,1.0536016424740584,1.6995360955056282,0.12639445066452026,0.9999679923057556,1.0645138504263942,1.7029165281037835,-0.12659300863742828,0.9999817609786987,1.3036673045760372,1.7415561694216601,0.1916106939315796,0.2289394736289978,1.3618726001759165,1.7569429458196058,-0.10100863873958588,0.9853841662406921,1.2860198574532122,2.0998182901830953,0.3053707182407379,0.5413732528686523,1.3233300293627264,2.136855901038603,0.02645963989198208,0.9824924468994141,1.310051929782927,1.663604001683828,0.1686086654663086,0.1864936500787735,1.3529639949931591,1.6714608384027951,-0.2978498935699463,0.9643397927284241,0.0046288371086120605,1.0590577464502264,1.701226311804706,96.71862717265239,94.50471016191818,1.0,0.0014875791264093586,-0.0014263777613124577,-0.1115332917417748,-0.0853974189059019,103.59061311716906,1.2825586590737161,57,1.9
1.1914766215428783,1.0992036317430527,-0.051073767244815826,0.9990642070770264,1.0659037904525863,1.2399662146354915,0.1766963005065918,0.9999049305915833,1.0910237040367987,1.249108007173991,-0.22310729324817657,0.9999750256538391,1.0499910424271637,1.7014574290524607,0.1266976147890091,0.9999680519104004,1.0627049930811105,1.7075999955634489,-0.1269248127937317,0.9999816417694092,1.3123384083608713,1.7339194673435687,0.18358449637889862,0.23067981004714966,1.3625902817937094,1.756767117576462,-0.1099095344543457,0.9858280420303345,1.2864404089295431,2.0992036317430527,0.2820377051830292,0.5333506464958191,1.3232924291652108,2.137362084044877,0.020561082288622856,0.9826341271400452,1.3060264596197833,1.6722728561156717,0.17986808717250824,0.19663231074810028,1.350784942668963,1.6701585898055256,-0.2635050415992737,0.9671061635017395,0.003709137439727783,1.0563480177541371,1.7045287123079549,92.99836255984015,93.41586929940195,1.0,-0.02304623285803742,0.020219106000400118,-0.18344872228827874,0.16185188392955688,113.81201579467914,1.2850250193997352,58,1.9333333333333333
1.1799492276441468,1.0942154859202256,-0.051565807312726974,0.9991499781608582,1.050609332746792,1.2390134149332976,0.16005435585975647,0.9999118447303772,1.0693041631631963,1.2492178554336004,-0.23122525215148926,0.9999762773513794,1.048128304240242,1.6978335584639692,0.12559561431407928,0.9999682903289795,1.0592110912568913,1.707802513003016,-0.1257951557636261,0.9999818205833435,1.3088224734788882,1.7262060266235417,0.19935201108455658,0.23429085314273834,1.3587132589879585,1.7512454965324802,-0.12036613374948502,0.9866150617599487,1.2830213010020535,2.0942154859202256,0.2876342236995697,0.5400896072387695,1.3196159952263904,2.1352107049837152,-0.005857586860656738,0.9835741519927979,1.2950158451132487,1.6634033714790306,0.15702010691165924,0.19681823253631592,1.3439233631674166,1.6628605961209146,-0.2726820111274719,0.9698591828346252,0.004150688648223877,1.0536696977485667,1.7028180357334926,92.2008498865661,92.43912460229818,1.0,-0.00024295620282929482,0.019511896427221644,0.1733867177873255,-0.0050048460845923725,131.66152687627527,1.2932734166569049,59,1.9666666666666666
1.1629952094136133,1.0883236528351439,-0.08827587217092514,0.9992299675941467,1.0427739365509436,1.2418656556361647,0.1222369521856308,0.9999191761016846,1.050270963208775,1.2542952494837512,-0.26821258664131165,0.9999781250953674,1.0492211123913433,1.6965587742191919,0.12335656583309174,0.9999692440032959,1.0534594778349622,1.7166645766994606,-0.12353938817977905,0.999982476234436,1.312166184604541,1.7169880141053342,0.19888855516910553,0.24149061739444733,1.3597088417646328,1.7539888717867855,-0.12008695304393768,0.9873630404472351,1.2876649206085173,2.0883236528351437,0.30146172642707825,0.5431812405586243,1.319911365823775,2.135199477158444,0.03207577019929886,0.984276533126831,1.302454991168207,1.6559166042183486,0.12093396484851837,0.20528694987297058,1.3453186654567604,1.665154675060973,-0.31743642687797546,0.9727433323860168,0.0050484538078308105,1.0513402951131527,1.7066116754593263,90.66762364251048,90.98872997209043,1.0,-0.028578055269944724,0.009805132312240885,-0.20989963069080622,-0.07211594381835046,168.9085101789415,1.3161563916068266,60,2.0
1.1433973913942164,1.0986733171582417,-0.0939980074763298,0.9993033409118652,1.0326567403676652,1.2496642638935187,0.11123421043157578,0.9999262094497681,1.033516702475078,1.261097351750155,-0.27043667435646057,0.9999799132347107,1.0545809826154378,1.7015955076157436,0.12151525169610977,0.9999707937240601,1.0539734215242929,1.7275724668823182,-0.12170161306858063,0.9999833703041077,1.3222743749425943,1.7247581660648308,0.19543440639972687,0.2526174783706665,1.3641352014350294,1.7621890008885637,-0.12891700863838196,0.9881584048271179,1.2943128537134132,2.0986733171582417,0.3004133701324463,0.5530819296836853,1.3258339369383727,2.1471452221386946,0.019989263266324997,0.9852094054222107,1.308098047769546,1.654755658272023,0.11353316158056259,0.21802270412445068,1.3415801040770874,1.6726988347240699,-0.3321099877357483,0.9753230214118958,0.004622280597686768,1.0542772020698652,1.714583987249031,90.66866375323488,90.68636181565289,1.0,-0.014889092147196525,0.0004663377100124727,0.10624215862529503,-0.0721344834984607,175.88280926605546,1.2915765368151497,61,2.033333333333333
1.1251665447964094,1.0960391003367438,-0.1043161153793335,0.9993698000907898,1.020601202934729,1.2478996753758298,0.1050582155585289,0.9999324083328247,1.0216236644005288,1.264524223044974,-0.2815288305282593,0.9999815821647644,1.0509142472880348,1.7009078385407006,0.12140987068414688,0.9999722838401794,1.0519430256853044,1.7256732949151272,-0.12160056829452515,0.9999842643737793,1.3176247896957627,1.7252084862832608,0.19492092728614807,0.2731822431087494,1.3587497764283702,1.7565091755265916,-0.12032029777765274,0.9887106418609619,1.289676922009034,2.096039100336744,0.3031744062900543,0.5644786357879639,1.3208893211171713,2.1413262103809956,0.03726926073431969,0.985680103302002,1.3028021834547079,1.6443316374331076,0.10806043446063995,0.22790537774562836,1.33066793103233,1.6634142059708958,-0.3281705677509308,0.9777101874351501,0.00674515962600708,1.0514286364866696,1.713290566727914,90.89600181625903,90.12029300561659,1.0,0.006624688783265726,0.03517547642470854,0.1568256515350252,0.2536511549122321,178.5505079024586,1.2996406628179171,62,2.066666666666667
1.1139283500889623,1.096680700039091,-0.14994493126869202,0.9994314312934875,1.0152183114479199,1.2494242964121216,0.07121331244707108,0.999938428401947,1.0152165466138274,1.2686359862025272,-0.32260793447494507,0.9999831318855286,1.0522650469019368,1.7006825201713183,0.12244854867458344,0.999974250793457,1.0513096833799396,1.7286602879679789,-0.12263934314250946,0.9999853372573853,1.322992876247186,1.7282599647680288,0.19188480079174042,0.297561377286911,1.3603269119844883,1.758484072225247,-0.1298687607049942,0.9892795085906982,1.2907005303032308,2.0966807000390912,0.30596572160720825,0.5696487426757812,1.3218251443560753,2.145655287310578,0.03605633229017258,0.9858236908912659,1.298709053275341,1.64753615924451,0.05659376457333565,0.24518108367919922,1.3222785596483038,1.6631162616813633,-0.37131622433662415,0.9797916412353516,0.007786154747009277,1.0517873651409382,1.7146714040696487,90.80710566365546,89.83360302805436,1.0,-0.006035219161821316,-0.003944431269063463,-0.09369541170935722,-0.2896461994043953,173.35100747014647,1.295098899166192,63,2.1
1.109771092049824,1.0960683865735643,-0.17451387643814087,0.9994871020317078,1.0130988110888977,1.249841730418017,0.0625067949295044,0.9999437928199768,1.0083736591192243,1.2726481345948637,-0.3379859924316406,0.9999845027923584,1.0520891437799393,1.699150328315656,0.12264673411846161,0.999975860118866,1.0508488630613058,1.7269475538859043,-0.12279699742794037,0.9999861121177673,1.3246056933530892,1.7284640896389514,0.17802640795707703,0.30269917845726013,1.3596890535670128,1.758000148786639,-0.14404255151748657,0.9883237481117249,1.2902349505696087,2.096068386573564,0.2794179916381836,0.5529647469520569,1.3211339070930355,2.1488967588330303,0.0003272174799349159,0.982180655002594,1.2899589895799366,1.6455127449282427,0.043785613030195236,0.24888227880001068,1.3123491734255301,1.657838365369998,-0.4026007056236267,0.9814942479133606,0.009245991706848145,1.0514690034206224,1.71304894110078,90.79793724508777,90.10854409664255,1.0,0.00014458760994052604,-0.008275514380713637,0.04765148166675903,-0.033416483098260806,172.48560365481183,1.2859117169849077,64,2.1333333333333333
1.105606198254017,1.0986957398782906,-0.14536432921886444,0.9995352625846863,1.0078204072978492,1.2557591079555745,0.07190138846635818,0.9999485015869141,1.0009594954936916,1.2799186935607125,-0.31837916374206543,0.9999856352806091,1.0557499790181681,1.7019410771262693,0.12280533462762833,0.999977171421051,1.052831737487098,1.734969130939883,-0.12295131385326385,0.9999867081642151,1.3290903897320068,1.730827538175891,0.1815670132637024,0.30587270855903625,1.3618014338321365,1.7596978027236627,-0.14394555985927582,0.9876891374588013,1.2919703633464328,2.098695739878291,0.283969908952713,0.5427994132041931,1.3226715688078934,2.1523886159205725,-0.0037193067837506533,0.980392575263977,1.2882423703433217,1.6478025028012586,0.05478572100400925,0.25153598189353943,1.309060470375862,1.6567045419408415,-0.378235787153244,0.9829627275466919,0.009780049324035645,1.0542908582526331,1.7184551040330762,90.27062282902394,88.88548472911344,1.0,0.00967337793764519,0.021975203627917776,0.07322334653731788,0.23255938105567722,168.81936955263689,1.2974249934074065,65,2.1666666666666665
1.1019546786790018,1.0962260738140295,-0.1681561917066574,0.999579131603241,1.006773542241463,1.2526830932614874,0.05667697265744209,0.9999529123306274,0.9982089201784806,1.2771653228608906,-0.33953553438186646,0.9999866485595703,1.0537733164003962,1.6983928550175287,0.12290390580892563,0.9999787211418152,1.050097558345092,1.7329823907150375,-0.12306704372167587,0.9999874830245972,1.3271765561397253,1.7272731814394202,0.18218643963336945,0.3136124014854431,1.3590492399647294,1.755946915447426,-0.14739257097244263,0.9870502948760986,1.2892574442696392,2.0962260738140297,0.28780660033226013,0.5333973169326782,1.319494874201236,2.1499788926029484,-0.009206297807395458,0.9782808423042297,1.2847899935215792,1.6446982229966745,0.03441052511334419,0.25594764947891235,1.304762160850855,1.6518230164226275,-0.40228065848350525,0.9841537475585938,0.009931206703186035,1.051935437372744,1.7156876228662832,90.16197940379433,88.5186490886015,1.0,-0.001387092955151595,0.00627894451865626,-0.08797045399783265,-0.12470564828461267,167.91450922095277,1.2966726630800676,66,2.2
1.0916279827640005,1.092312004515775,-0.16005046665668488,0.9996176958084106,0.9904371091035951,1.2509804959245658,0.05881687253713608,0.9999566078186035,0.990061234313293,1.2762182011796517,-0.3335437476634979,0.9999874830245972,1.0508909397976565,1.696373358012455,0.12308819591999054,0.9999799132347107,1.0478483916949557,1.7290831139936322,-0.12324784696102142,0.9999880790710449,1.3183503348019667,1.7234892644427946,0.2038894146680832,0.32399943470954895,1.3561758874123067,1.750468982230314,-0.14394018054008484,0.987026035785675,1.2834596547742512,2.092312004515775,0.31204500794410706,0.54181969165802,1.3164281545170833,2.145308297589923,0.0014029142912477255,0.9781937003135681,1.2783686330435133,1.6384162213720734,0.042360201478004456,0.2554989457130432,1.3013390686001545,1.646265612858788,-0.38771703839302063,0.9853835701942444,0.010261356830596924,1.049369665746306,1.7127282360030436,90.38494698575856,88.21923908033679,1.0,-0.0010144002596466722,0.007416326691014023,0.0027352154825298902,0.008526987597630221,166.95623207671454,1.3032089582744204,67,2.2333333333333334
1.0943389775292183,1.1125480273708186,-0.16367045044898987,0.9996488094329834,0.9828689272115347,1.26651513611958,0.060450006276369095,0.9999593496322632,0.9913371822082426,1.292205713781625,-0.33910229802131653,0.9999879598617554,1.0572463836223271,1.7145280534906333,0.12369336932897568,0.999980628490448,1.058112702404697,1.746170372918931,-0.12385736405849457,0.9999883770942688,1.3280194772973193,1.7397753328862855,0.2067684382200241,0.32294899225234985,1.3699168619633584,1.7642042496392374,-0.14633038640022278,0.9853680729866028,1.2924050869919192,2.112548027370819,0.3186849355697632,0.5332981944084167,1.3290798408300202,2.165988780483509,0.001273146946914494,0.9741654992103577,1.2757579419770673,1.647029342866935,0.04607163369655609,0.24689801037311554,1.3060076091888404,1.655600614756267,-0.4056944251060486,0.9861553311347961,0.01034557819366455,1.057679543013512,1.7303492132047822,89.86951425031735,87.50657719683527,1.0,-0.014079423292848448,0.008338961890249177,-0.10075679308970664,0.006567892515135663,172.14221647012252,1.2869553360190724,68,2.2666666666666666
1.087760466164676,1.1144894838728123,-0.18906839191913605,0.9996778964996338,0.9875168535513975,1.2670743271801543,0.0350947231054306,0.9999625086784363,0.9843010307610554,1.2955005888094937,-0.35706236958503723,0.9999886751174927,1.058547693124551,1.7163025637842384,0.12384649366140366,0.9999815821647644,1.0567078578993583,1.7510056575785018,-0.12400633096694946,0.999988853931427,1.3297056130307563,1.7405380484709694,0.19592198729515076,0.3340539038181305,1.3711807937735674,1.7644578323069968,-0.15121178328990936,0.984687328338623,1.293641642645896,2.1144894838728123,0.3133184313774109,0.5316821336746216,1.3294254674142945,2.167879519903598,-0.0017400139477103949,0.9720510244369507,1.2743538169506912,1.6470677820541177,0.010086240246891975,0.24875980615615845,1.2984193772471093,1.6547563051652423,-0.42927414178848267,0.9871431589126587,0.011436879634857178,1.0576277755119545,1.73365411068137,89.59881315518183,86.5402026929515,1.0,-0.0075550832775037055,0.013006450872409526,0.04892123308423915,0.03487330145802771,167.98014337790266,1.2910284294148848,69,2.3
1.088112683163967,1.1130567587109546,-0.18644097447395325,0.9997073411941528,0.9993610537770606,1.2659335641042233,0.04402584582567215,0.9999656081199646,0.9759253503505764,1.2954845677828655,-0.3472488522529602,0.9999894499778748,1.0661291571669997,1.7152026407210572,0.12382920831441879,0.9999826550483704,1.053395025577839,1.7536470650601255,-0.1239795908331871,0.99998939037323,1.335703530137161,1.7384380718957393,0.1845347285270691,0.33868208527565,1.3704248896133406,1.7626542077829426,-0.15232224762439728,0.9834383726119995,1.2935353005571937,2.1130567587109543,0.30059200525283813,0.5215710997581482,1.3283647552228857,2.1667162473140937,-0.001581817865371704,0.9688230752944946,1.2761075425713655,1.6454350438977525,0.017731904983520508,0.25128570199012756,1.296132398541929,1.6513731716920317,-0.41721034049987793,0.9877803921699524,0.01189512014389038,1.0597620913724195,1.7344248528905912,88.50396593155332,85.68469172665456,1.0,0.020210404853397337,0.012267175288185616,0.21231509638723553,-0.005605967220650559,153.22019322526012,1.3041056694446838,70,2.3333333333333335
1.0857207773299378,1.1155111854132358,-0.17918497323989868,0.9997336268424988,1.0012501927098987,1.268973435390467,0.04799454286694527,0.9999679923057556,0.9756007928254096,1.297673608330204,-0.341688871383667,0.9999901056289673,1.0719942655769166,1.7193000791326039,0.12374410778284073,0.999983549118042,1.0581030457776286,1.7569721272270566,-0.12388445436954498,0.9999898672103882,1.3390923005631619,1.7427189060119772,0.18589040637016296,0.3473322093486786,1.3740890861954542,1.7653398007158825,-0.15042664110660553,0.9825767278671265,1.296413098171711,2.1155111854132356,0.31045001745224,0.5181276202201843,1.3315788227464558,2.168732741933221,-0.0007326999912038445,0.966876745223999,1.2650406318197687,1.6467096283246772,0.017566364258527756,0.250097393989563,1.2933433974229982,1.6516547294776112,-0.40764689445495605,0.9885161519050598,0.011523306369781494,1.0650486556772727,1.7381361031798301,88.47972492616579,85.5011760231756,1.0,0.02087172252029547,-0.005669985740563037,0.004916331320432779,-0.1448466433320204,150.83109812647916,1.3128018798663288,71,2.3666666666666667
1.0713013921015504,1.0904103623266053,-0.15465523302555084,0.9997550249099731,0.9868212733939999,1.2533179492290822,0.05402132868766785,0.9999702572822571,0.9625431238605946,1.2813984866576853,-0.31773123145103455,0.999990701675415,1.0590158177722928,1.6990348190772573,0.12160307168960571,0.9999842643737793,1.0456293148154954,1.7352687264028441,-0.12172422558069229,0.9999902248382568,1.3221307189743814,1.7215769029559762,0.1868095099925995,0.34120285511016846,1.3590983342468013,1.7418816323138944,-0.13843204081058502,0.9807210564613342,1.2810496746829614,2.090410362326605,0.2930587828159332,0.5124590992927551,1.3157541192413296,2.140081598239453,0.006456832401454449,0.9652537107467651,1.243397783606468,1.6299074144767092,0.019026411697268486,0.2454083114862442,1.271383857237038,1.6304719970211634,-0.3581297993659973,0.9892266988754272,0.011410534381866455,1.052322566293894,1.7171517727400507,88.54132934968884,84.99631671114187,1.0,-0.00023309364365604215,-0.002027802635555809,-0.15933787553006679,0.027309547394440515,150.52288650561815,1.3397671789231942,72,2.4
1.0481616033200165,1.065512985784652,-0.15506896376609802,0.9997742772102356,0.9707735720355118,1.2362327757276612,0.05555760860443115,0.999972403049469,0.9499985743982478,1.2638050714660671,-0.31785911321640015,0.999991238117218,1.047832846530136,1.6761695687431677,0.12086770683526993,0.9999846816062927,1.034211547432086,1.7112891593624477,-0.1209687739610672,0.9999904632568359,1.302444089274221,1.7066081200249574,0.1908603012561798,0.3297745883464813,1.3437785798777688,1.7194572061129225,-0.13861580193042755,0.9784144759178162,1.262984735351146,2.065512985784652,0.293873131275177,0.5012379884719849,1.298274385062704,2.111347022873165,-0.0005267781671136618,0.9631046056747437,1.2175200521379468,1.6129404403850254,0.021267885342240334,0.24108344316482544,1.24528744545626,1.6098424702827163,-0.38464614748954773,0.9897794127464294,0.011355102062225342,1.041022196981111,1.6937293640528077,90.54319030711744,84.8881946061991,1.0,0.021408080830785072,-0.004546859174227325,0.17144503067147548,-0.020173038195280806,148.86584850840973,1.3606333918886062,73,2.433333333333333
1.0368341094271838,1.0522511778739805,-0.16894960403442383,0.9997900128364563,0.9680040771081351,1.225764326554906,0.05299702286720276,0.9999743700027466,0.9398876048621873,1.2555916972925525,-0.33362457156181335,0.9999917149543762,1.0536641880508606,1.6613869084592732,0.12150555849075317,0.9999851584434509,1.030522227767433,1.6998269400470827,-0.12157342582941055,0.999990701675415,1.2990974839689997,1.695569358904513,0.19161328673362732,0.3134659230709076,1.3357097769705946,1.7108183933199965,-0.1482863575220108,0.9738062024116516,1.2547272962979235,2.0522511778739805,0.29878681898117065,0.4739437401294708,1.2896727664865508,2.0977390039630004,-0.010364697314798832,0.9545884132385254,1.2072677846262452,1.5986576547122833,0.020926589146256447,0.23591704666614532,1.2298581158603634,1.599526945015483,-0.4169783592224121,0.9902061820030212,0.012363076210021973,1.042093207909147,1.6806069242531778,90.83780093328298,85.27731014046401,1.0,0.05816875230406036,-0.01699523608852207,0.2771014076129116,-0.09370555225245958,137.82628462202086,1.3761781793918557,74,2.466666666666667
1.0333680306927189,1.0478473742466836,-0.17754139006137848,0.9998043179512024,0.9652287584885294,1.2178830491344572,0.044681720435619354,0.9999760985374451,0.9351623412767849,1.2514842673006574,-0.34127941727638245,0.9999921917915344,1.050628348127321,1.65450060784297,0.12154972553253174,0.9999855756759644,1.0296837689690626,1.692949946269391,-0.12163426727056503,0.9999909996986389,1.2850697150259829,1.6973435910971273,0.20266816020011902,0.293576180934906,1.3317963843970413,1.7088038271132444,-0.14771787822246552,0.9683650732040405,1.2505162489662296,2.047847374246684,0.3182651102542877,0.4465946555137634,1.2857109984990125,2.0914360126189333,-0.012338679283857346,0.9474554657936096,1.1846406801819822,1.59241295558922,0.008732078596949577,0.2225370854139328,1.2286718944722383,1.5950454722741672,-0.42578014731407166,0.9902542233467102,0.013969600200653076,1.040156058548192,1.6737252770561806,94.72608310590049,86.13614309098158,1.0,0.009178615361104873,-0.013487550801985763,-0.3675126677789513,0.026021269133668968,140.35449393612146,1.3700505881800131,75,2.5
1.0283681902803865,1.0446658765493726,-0.1762547791004181,0.9998167753219604,0.9605932033682956,1.2127523246432568,0.05056699365377426,0.9999777674674988,0.9282406344792747,1.2454649225830454,-0.33259516954421997,0.9999926090240479,1.0468900893347515,1.6484217441554891,0.12161403894424438,0.9999861717224121,1.0265834656640587,1.6854354149076014,-0.12170115858316422,0.9999912977218628,1.2802091895148517,1.6937131560098044,0.2012898474931717,0.283188134431839,1.3275075687844318,1.702438523950856,-0.14707836508750916,0.9665104150772095,1.2454362230632339,2.0446658765493724,0.3138672411441803,0.43678659200668335,1.280459203739676,2.0828382368699874,-0.010999312624335289,0.945566713809967,1.18929175225061,1.5862094666579758,0.02083701267838478,0.22220760583877563,1.2208254567310832,1.5871786822822516,-0.4176269471645355,0.9905055165290833,0.013655781745910645,1.0367367774994052,1.6669285795315454,95.32702081448306,86.18332793050105,1.0,0.0064859765815488005,0.0001642664694685081,-0.021067266058543862,0.10788016693727367,140.04567625568362,1.3624221864997286,76,2.533333333333333
1.0285555934448736,1.0456648215433348,-0.1645200550556183,0.9998283386230469,0.9616001240377455,1.2128485857905253,0.053225498646497726,0.9999792575836182,0.9276180219934285,1.2451763515356489,-0.32306647300720215,0.9999929070472717,1.0492601029978714,1.648888946313771,0.12130492925643921,0.9999868273735046,1.0272159915035286,1.6850924633006819,-0.12139181792736053,0.9999915957450867,1.2825013193644292,1.6928372556391809,0.2011287659406662,0.27086836099624634,1.327510973764118,1.7023144075595067,-0.1465267837047577,0.963312566280365,1.2453349679437096,2.0456648215433346,0.31337499618530273,0.4233517348766327,1.2803936199655084,2.082629011997525,-0.011812186799943447,0.9427151679992676,1.1934355650109907,1.5863299782370008,0.02527082897722721,0.22120298445224762,1.219441517480749,1.5860250235586768,-0.39472946524620056,0.9900974035263062,0.0134965181350708,1.0382380472507,1.6669907048072266,94.65752634797296,86.21990843842696,1.0,0.01216074877753595,0.0017625917098460153,0.042933552834741213,0.012091140004432606,137.29598951638346,1.3618834829946964,77,2.566666666666667
1.0262065214753613,1.045651754985747,-0.16315656900405884,0.999840497970581,0.9618979169134976,1.2124242913037955,0.05213744565844536,0.9999806880950928,0.9257845654895389,1.244541336983814,-0.32229143381118774,0.9999931454658508,1.0482301687110216,1.6498666042392587,0.12092415988445282,0.9999873042106628,1.0270009007247194,1.6846428576526629,-0.12101133167743683,0.999991774559021,1.2821383861468252,1.6938342466672471,0.1989148110151291,0.2605717182159424,1.3278639406064119,1.7017207981762823,-0.14514747262001038,0.9606949687004089,1.245582523371023,2.0456517549857467,0.3085229992866516,0.41252222657203674,1.2809351835066027,2.081755256963487,-0.010356983169913292,0.940386950969696,1.1960643611349417,1.587763561902342,0.025163238868117332,0.21862326562404633,1.2212840822956919,1.5860808768005572,-0.3934638500213623,0.989624559879303,0.013410747051239014,1.0376155347178704,1.6672547309459609,94.71357352978232,86.20924112058658,1.0,-0.0034298050830475196,0.004080780246449243,-0.11828594184611635,0.01759260715875863,137.4336528541681,1.3628935977158334,78,2.6
1.0245373823192143,1.044462658698525,-0.2025340497493744,0.9998489022254944,0.9649142818418035,1.2082657521494187,0.02614659070968628,0.9999819993972778,0.9257202982524659,1.2438150777642836,-0.3599853813648224,0.9999933242797852,1.0520853240312233,1.6452975658646807,0.12214114516973495,0.9999876618385315,1.0287357441063751,1.6826853422216992,-0.12220887094736099,0.9999918341636658,1.281696065685451,1.6948358666245789,0.2057599276304245,0.24678827822208405,1.3280057353499795,1.7013834391769345,-0.15053631365299225,0.9563588500022888,1.245252624689469,2.044462658698525,0.32692939043045044,0.3937428891658783,1.2802519559219807,2.0793074778905467,-0.011242867447435856,0.9327182173728943,1.1968943507872731,1.5853879832290947,-0.014307962730526924,0.21799957752227783,1.2185908088163173,1.585466594618116,-0.4487432837486267,0.9888280034065247,0.014851748943328857,1.0404105340687992,1.66399145404319,96.22414419880522,86.37351506335284,1.0,0.024706623094766903,-0.017633347492258172,0.2080159402770256,-0.16052952891047675,136.73394996226207,1.3596457855451498,79,2.6333333333333333
1.0201526232457863,1.0397281702177485,-0.19309888780117035,0.9998564720153809,0.9629906675924139,1.2022564947014422,0.02490810491144657,0.9999831914901733,0.9223038771965774,1.238736781315518,-0.34907394647598267,0.9999934434890747,1.0474016789068603,1.6376833506745156,0.12154150009155273,0.9999879002571106,1.024538459767652,1.6737573676341067,-0.12160342931747437,0.9999918341636658,1.263765066721158,1.7030070775328476,0.21453174948692322,0.23353508114814758,1.3228620254823014,1.6962427375213829,-0.15041907131671906,0.9529057145118713,1.2404708521772445,2.0397281702177485,0.3333079516887665,0.3800213038921356,1.2763271688532851,2.0706148953035,-0.010579463094472885,0.9284288883209229,1.192830441888945,1.5792238615426197,-0.006788605358451605,0.21781978011131287,1.2129775231562334,1.5798761097811942,-0.4258531928062439,0.9878329038619995,0.015301644802093506,1.0359700693372562,1.655720359154311,102.84255255158111,87.22478879374769,1.0,-0.00217724232797813,-0.012094685807030436,-0.19730674662315978,0.04028138977906179,136.66287082432635,1.3477385758441234,80,2.6666666666666665
1.0192648518877288,1.0398405066656757,-0.1957899034023285,0.9998651146888733,0.9620483909944261,1.2023613778692732,0.025770261883735657,0.9999841451644897,0.9233312469531186,1.2382596704220326,-0.3482048213481903,0.9999935626983643,1.0478767771387107,1.6367161801237007,0.1215239018201828,0.999988317489624,1.0246427106448805,1.672986511050982,-0.12158860266208649,0.9999920129776001,1.2653457125383967,1.700544351258795,0.20512893795967102,0.22872377932071686,1.3230662300071119,1.6972537016787983,-0.14987729489803314,0.9512490034103394,1.2429380032438961,2.0398405066656755,0.30786603689193726,0.37608346343040466,1.2767157623265954,2.0702412145901854,-0.017811138182878494,0.926949679851532,1.1924047328453966,1.5827248570874555,-0.0028790668584406376,0.21597667038440704,1.2111594175197815,1.5804620736506663,-0.4261210858821869,0.9872159361839294,0.015056908130645752,1.0362597438917958,1.6548513455873415,102.57878954598232,87.56522071549102,1.0,0.0018846871572376315,-0.007149018957954305,0.030987635352441294,0.03773245213637146,136.17953287460855,1.3421411406682173,81,2.7
1.01985676255108,1.0410315905011165,-0.21147537231445312,0.9998740553855896,0.9605026700312183,1.2024766211472386,0.019523482769727707,0.9999851584434509,0.9236536949112839,1.238487395937436,-0.36403560638427734,0.9999938011169434,1.0494542458748448,1.6332793248230248,0.12283682823181152,0.9999886751174927,1.0253219793694976,1.6723583363976375,-0.12290059030056,0.9999921917915344,1.2699057653599108,1.7001087798392993,0.20422856509685516,0.22824124991893768,1.324256312194301,1.6997171837890321,-0.15503256022930145,0.9511750340461731,1.2436581694824862,2.0410315905011163,0.32179513573646545,0.37317752838134766,1.2773058646590036,2.0712490179893965,-0.016235236078500748,0.9251004457473755,1.1930342525014175,1.5821485361485796,-0.019127342849969864,0.22098283469676971,1.2095321727781472,1.5808891746221312,-0.4544141888618469,0.9874013662338257,0.015100657939910889,1.0373881126221711,1.6528188306103313,102.4620705621818,88.02692803973565,1.0,0.0065414856470329226,-0.017640043182823306,0.03410673650601646,-0.07683220869448291,136.6372249132591,1.327881071861073,82,2.7333333333333334
1.0248205828722388,1.049931699567183,-0.2048654854297638,0.9998819231987,0.9637674341708893,1.208423681975824,0.024309158325195312,0.9999861121177673,0.9269429502931608,1.2436700746450633,-0.3616959750652313,0.9999940395355225,1.0548615659872982,1.6402798661631317,0.12438727915287018,0.9999892115592957,1.029806271761483,1.6793690147890996,-0.12446681410074234,0.9999924898147583,1.2801943878288171,1.7065919625923784,0.2067810297012329,0.2262287139892578,1.3306166398357135,1.709207195302118,-0.15741416811943054,0.9513493180274963,1.2491849348433288,2.0499316995671832,0.33563733100891113,0.36921632289886475,1.28349633684677,2.081242679547047,-0.01575572043657303,0.9242891073226929,1.1984638684428586,1.5886432256078653,-0.00746927410364151,0.2311137318611145,1.2131840108458347,1.587948371497247,-0.44909101724624634,0.9875128269195557,0.014715075492858887,1.0423339188743905,1.6598244404761158,101.23758427692228,88.4464048207268,1.0,0.0028469644078153162,-0.0023783979873341124,-0.029446584146426095,0.12131248154697359,135.42986381798053,1.3164076593655378,83,2.7666666666666666
