nose_x,nose_y,nose_z,nose_visibility,left_shoulder_x,left_shoulder_y,left_shoulder_z,left_shoulder_visibility,right_shoulder_x,right_shoulder_y,right_shoulder_z,right_shoulder_visibility,left_hip_x,left_hip_y,left_hip_z,left_hip_visibility,right_hip_x,right_hip_y,right_hip_z,right_hip_visibility,left_knee_x,left_knee_y,left_knee_z,left_knee_visibility,right_knee_x,right_knee_y,right_knee_z,right_knee_visibility,left_ankle_x,left_ankle_y,left_ankle_z,left_ankle_visibility,right_ankle_x,right_ankle_y,right_ankle_z,right_ankle_visibility,left_wrist_x,left_wrist_y,left_wrist_z,left_wrist_visibility,right_wrist_x,right_wrist_y,right_wrist_z,right_wrist_visibility,trunk_lateral_inclination,center_mass_x,center_mass_y,left_knee_angle,right_knee_angle,person_height,center_mass_velocity_x,center_mass_velocity_y,center_mass_acceleration_x,center_mass_acceleration_y,body_orientation,torso_leg_ratio,frame,timestamp
1.1188379251485825,1.0749841499034603,-0.14208045601844788,0.9999947547912598,1.002714833320661,1.2270636636700376,0.10745380073785782,0.9999279379844666,1.016429437376454,1.2312696636057796,-0.2463342398405075,0.9999978542327881,1.1030891587374994,1.6505972880452109,0.12138529866933823,0.999984622001648,1.082480689486832,1.680224938347813,-0.12155745923519135,0.9999955296516418,1.3173335434564506,1.7315232796884557,0.2140335738658905,0.21951887011528015,1.3414326684555238,1.7451810400134797,-0.14234524965286255,0.9643010497093201,1.312398751647705,2.07498414990346,0.3024733364582062,0.4879583418369293,1.3294210502366284,2.12215645052044,-0.07552143931388855,0.9579625129699707,1.1427556881166219,1.6170490195037963,0.0021614758297801018,0.01916186325252056,1.1758654894150722,1.6061568302540072,-0.28971004486083984,0.986973762512207,0.0017244219779968262,1.0927849241121657,1.665411113196512,109.86976866871211,102.2566484426454,1.0,0.05610020005674438,0.003723595544262191,0.28264173388458996,0.004468125991315562,131.84551417453196,1.2072062829760322,0,0.0
1.1245357391211257,1.0702016085280899,-0.1570984423160553,0.999994695186615,1.0198939012202395,1.2138363295777945,0.1241634264588356,0.99992835521698,1.025104668837072,1.2154139352927589,-0.24556119740009308,0.999997615814209,1.0962613097030025,1.653511893641507,0.1292995810508728,0.9999845027923584,1.0777918499998445,1.679496677545716,-0.12948502600193024,0.9999952912330627,1.29867691756907,1.7417602402680112,0.22378146648406982,0.21382756531238556,1.3327847603649854,1.751599809456789,-0.12777337431907654,0.9648731350898743,1.2966429317654222,2.07020160852809,0.3018951416015625,0.4890390634536743,1.3238310245664227,2.1123664961568887,-0.06807775050401688,0.9592652916908264,1.1504005830083721,1.6070178735235778,0.03142109513282776,0.017840033397078514,1.190960069529018,1.5921489306120582,-0.32695305347442627,0.9796737432479858,0.0006495416164398193,1.0870265798514236,1.6665042855936114,113.20122689624634,104.36734797551973,1.0,-0.008783380805280598,0.061810446782116855,-0.49257955296640343,0.442712913646707,134.74213141659902,1.2451226323182054,1,0.03333333333333333
1.1121492909293766,1.0493729953436561,-0.20066113770008087,0.9999950528144836,1.0204079494590523,1.1899286564165572,0.10620031505823135,0.9999243021011353,1.0122532364030803,1.195239960103753,-0.2557373642921448,0.9999971389770508,1.0712213575343008,1.6403582109975523,0.12813535332679749,0.9999825954437256,1.0519693872205864,1.6636285985819657,-0.12830868363380432,0.9999943971633911,1.279037330215563,1.725408628293908,0.20981407165527344,0.2211941033601761,1.3101702289758075,1.7250783689005975,-0.1288381665945053,0.9657750129699707,1.2811332016524373,2.0493729953436564,0.2573811411857605,0.5048388838768005,1.3034447394574808,2.087342990486691,-0.06566552072763443,0.960915207862854,1.1310202584988878,1.5854080082557722,0.019826261326670647,0.016752874478697777,1.1831445127159488,1.5738151481018103,-0.34355032444000244,0.9773428440093994,0.002221018075942993,1.0615953723774436,1.6519934047897589,112.627907366339,102.32332595423169,1.0,-0.06435729459902041,0.08270790041860686,-0.4127965407773753,0.16190248306382574,133.96210987119713,1.2704414485241895,2,0.06666666666666667
1.1043239211247928,1.0408504838976727,-0.1962265819311142,0.999995231628418,1.0180808841707512,1.184609386163271,0.11133180558681488,0.9999192357063293,1.004160958632249,1.1888411518284232,-0.24916037917137146,0.9999963641166687,1.0525806363815748,1.6376363974515706,0.12671402096748352,0.9999789595603943,1.0408874821671177,1.6613819151324907,-0.1268845498561859,0.9999925494194031,1.2702288392579706,1.7139473836411514,0.20002849400043488,0.23211261630058289,1.300287594210919,1.7148449815037003,-0.1321963369846344,0.9664798974990845,1.2660362690774984,2.040850483897673,0.2384178191423416,0.5220600962638855,1.2960798561575326,2.0789745780779727,-0.03821129724383354,0.9617977142333984,1.132891688345857,1.5743608513514433,0.013627903535962105,0.016304459422826767,1.1764696960074756,1.567135131855595,-0.3086942732334137,0.9768361449241638,0.0017793476581573486,1.0467340592743464,1.6495091562920305,108.58670822824915,100.98368769180134,1.0,-0.06867110850664035,0.04995153318405019,-0.03545235173972157,-0.2453976769870657,149.4278036634806,1.2936745318074494,3,0.1
1.0990710312949572,1.0329405926428292,-0.1902083456516266,0.9999954104423523,1.0108926537569383,1.177256179511993,0.11650083214044571,0.9999182224273682,0.9978604344500259,1.1813121091510064,-0.25069791078567505,0.999995768070221,1.0340023134092116,1.629779186865108,0.12689462304115295,0.9999762177467346,1.028460721049151,1.6516188513278305,-0.12706556916236877,0.9999909400939941,1.262927518810884,1.7011143737797851,0.198190376162529,0.2470218539237976,1.2906473095845101,1.7023145921088356,-0.1318567544221878,0.9672971963882446,1.2564091912249296,2.032940592642829,0.2494053840637207,0.5353078842163086,1.287312102391593,2.0659299093900643,-0.005796455312520266,0.9619166851043701,1.131894390362879,1.5576144227855317,0.01787499152123928,0.016981368884444237,1.1652639241098135,1.5586370656936115,-0.3056268095970154,0.9771018624305725,0.0017167329788208008,1.0312315172291813,1.6406990190964692,106.18214955588184,100.41799738840406,1.0,-0.06288307629810196,0.015108535667068056,0.03900848529018841,-0.2523461543807286,162.83879528861956,1.2893107486465671,4,0.13333333333333333
1.096976409528327,1.031035505450743,-0.193189337849617,0.9999957084655762,1.008694849381575,1.1728602910766048,0.1237955093383789,0.9999172687530518,0.9963212881812514,1.1796540847911468,-0.24802739918231964,0.9999951124191284,1.0302991865194573,1.6252181640149013,0.12810790538787842,0.99997478723526,1.0208253381463128,1.6493094056868403,-0.1282787173986435,0.9999898672103882,1.2621083049772264,1.6971671830696147,0.17732007801532745,0.2617586851119995,1.2875222769523877,1.7012489999717342,-0.13316422700881958,0.9682301878929138,1.252529408811555,2.0310355054507427,0.2168852984905243,0.5468985438346863,1.2850113956464089,2.069350246356058,-0.021064545959234238,0.9626824259757996,1.12914121390529,1.549437220865726,0.016430310904979706,0.016864851117134094,1.1623121286324984,1.557474291064511,-0.3022029995918274,0.9748979210853577,0.0028795599937438965,1.025562262332885,1.6372637848508709,105.59991939691115,100.6296665583123,1.0,-0.03162251261479699,-0.00868188190266355,0.23237983360662354,-0.17718727397253117,155.7984995791782,1.2737477016833771,5,0.16666666666666666
1.0955340141103156,1.0296682896393294,-0.19365689158439636,0.9999960064888,1.0030584315819413,1.1712267185167458,0.12251962721347809,0.9999150037765503,0.9966704134291686,1.1785046308144043,-0.24765077233314514,0.9999940395355225,1.0266600849529985,1.6229301865117813,0.12844830751419067,0.9999725818634033,1.0199789946205238,1.6471158065726423,-0.12861588597297668,0.999988317489624,1.2592344957476085,1.6940024380064882,0.1857684701681137,0.2745892405509949,1.2861436077564656,1.6979371357364643,-0.13297531008720398,0.9692665934562683,1.2487614504150604,2.0296682896393294,0.2413194477558136,0.5591849684715271,1.283824600374798,2.065020718418821,-0.015197701752185822,0.963584840297699,1.128458481780738,1.549755851626519,0.01511671207845211,0.016752922907471657,1.1629814291848892,1.5552659176935022,-0.2934316098690033,0.971146285533905,0.003087639808654785,1.0233195397867612,1.6350229965422118,105.20549683322065,100.44795557261754,1.0,-0.009770725704847822,-0.005407219968366803,0.16601537412708628,0.02485067591009663,161.566594603842,1.2738422135023486,6,0.2
1.0954763853922194,1.0289941748014637,-0.20528718829154968,0.9999963045120239,1.0055094536313929,1.1705873648805285,0.115972600877285,0.9999144673347473,0.9961030505410257,1.1780042098852455,-0.2466984987258911,0.9999933242797852,1.0274913667013992,1.6216022045399145,0.12774550914764404,0.9999694228172302,1.0201092845365127,1.6459774864612784,-0.12791477143764496,0.9999863505363464,1.2594529115563828,1.6925324433859061,0.18621625006198883,0.2893839180469513,1.2857854467021408,1.696542038491523,-0.13179531693458557,0.9703626036643982,1.2488024201678407,2.028994174801464,0.24510736763477325,0.571345329284668,1.2834731209157613,2.0629706019442047,-0.009719336405396461,0.9644261002540588,1.1316630970965444,1.5490945052731717,0.007427160628139973,0.018069984391331673,1.1638074874662405,1.5538910748901829,-0.2908019423484802,0.9709815382957458,0.0031474530696868896,1.0238003256189558,1.6337898455005966,105.18976091296291,100.41432666695646,1.0,0.005942974441166535,-0.006070792089993095,0.12219927111591383,-0.005172871089319267,160.36068474301175,1.2737039026982004,7,0.23333333333333334
1.0958901059380668,1.0287134165272376,-0.19126278162002563,0.9999964833259583,1.0061792756988668,1.1712666349175578,0.12294445186853409,0.9999125599861145,0.99628893655938,1.1781176290439725,-0.23880264163017273,0.9999922513961792,1.027217977300792,1.62129409930166,0.1272948980331421,0.9999668002128601,1.0188600243597146,1.6460613544507052,-0.12746554613113403,0.999984622001648,1.2601145496613662,1.6919367096965432,0.1863095462322235,0.29228124022483826,1.2860235083889293,1.6969641670565063,-0.13246916234493256,0.9707999229431152,1.2506937742245,2.0287134165272374,0.24897411465644836,0.5697757005691528,1.2837190288144236,2.0642748068010524,-0.011226906441152096,0.9643468260765076,1.13330179494852,1.550023671348958,0.014839413575828075,0.01902961917221546,1.1617742132612938,1.5548354876368127,-0.27158322930336,0.968811571598053,0.0029067695140838623,1.0230390008302532,1.6336777268761826,105.27135754672297,100.42784009104545,1.0,-0.007445500413742744,-0.0033029794885755612,-0.10415603586382537,0.02153948437028899,158.6759107041268,1.2704480881534805,8,0.26666666666666666
1.096886195590157,1.0297531701393978,-0.18640068173408508,0.9999966621398926,1.0076991033157314,1.1726694628507226,0.12511000037193298,0.9999116063117981,0.9973093495690594,1.1784733903749256,-0.2330787181854248,0.999991238117218,1.0289796318697486,1.6224220634882132,0.12723156809806824,0.9999627470970154,1.0204165730679735,1.6472997348300686,-0.12740446627140045,0.9999819993972778,1.261694915015902,1.6929071349800375,0.183399498462677,0.29307761788368225,1.2873316409986533,1.6983799780003523,-0.13464772701263428,0.9709180593490601,1.2534157634612497,2.029753170139398,0.23783054947853088,0.5649977326393127,1.284882501561736,2.0668363219879415,-0.01412984449416399,0.9634712338447571,1.1356411519265863,1.552956048866076,0.01245490275323391,0.020122800022363663,1.1623278003762227,1.5567040745049112,-0.2596161663532257,0.9666944742202759,0.0024601519107818604,1.024698102468861,1.634860899159141,105.44261343807233,100.45301360059871,1.0,0.005253217367122832,-0.0030019945567670483,0.09870916108968718,0.0023629402437456014,158.29720752352875,1.2687925584048003,9,0.3
1.0966588029858249,1.02858033978658,-0.18636028468608856,0.9999966621398926,1.0092343645872683,1.171618566321127,0.12041280418634415,0.9999083280563354,0.9960712497100369,1.17661881950117,-0.23490843176841736,0.9999896883964539,1.0281928795096862,1.620335280607413,0.12627103924751282,0.9999585151672363,1.01871636102814,1.6452682827068057,-0.1264365166425705,0.9999791979789734,1.2604111601763033,1.6905512013972448,0.1842220276594162,0.29107505083084106,1.285876928935206,1.696198556080152,-0.1339525729417801,0.9702368974685669,1.2530510302110158,2.02858033978658,0.24335041642189026,0.5571839809417725,1.2835083435992398,2.06431377076805,-0.01624820940196514,0.9621170163154602,1.1483231229087627,1.5517005236156582,0.012243175879120827,0.02101368084549904,1.161594462597793,1.5564062311365945,-0.2744333744049072,0.9630572199821472,0.002121865749359131,1.023454620268913,1.6328017816571094,105.57641818051279,100.42444617262817,1.0,-0.0007504647528065622,-0.0017760368582804202,-0.04615860937197617,0.009409027947678929,156.76990021982752,1.2662311916233313,10,0.3333333333333333
1.0975618186342413,1.0290815346586335,-0.1879749894142151,0.9999968409538269,1.0102393051454983,1.1720727485169442,0.11881212890148163,0.9999091029167175,0.9972456985026902,1.1769010307519876,-0.23552563786506653,0.9999892115592957,1.0287103931290131,1.6206469903815122,0.1260608732700348,0.9999561905860901,1.019096190639309,1.645526750501705,-0.12622135877609253,0.9999778270721436,1.2610540531844476,1.6907371701157374,0.18475918471813202,0.30483055114746094,1.2858750825988365,1.6964660835091625,-0.133846253156662,0.971519410610199,1.254014658228741,2.0290815346586335,0.2589745819568634,0.5644742846488953,1.283585849609209,2.0648163590587405,-0.003159942105412483,0.9631606340408325,1.1433273698717943,1.5520410957576056,0.012045899406075478,0.02370564639568329,1.1602432181841507,1.5563417851689794,-0.27252477407455444,0.9636451601982117,0.0020482540130615234,1.023903291884161,1.6330868704416086,105.59488605316241,100.45397927859916,1.0,0.0009877084491111997,-0.0016694707655395091,0.013098133647167205,0.000807081532415989,156.5141842619953,1.2653114023433958,11,0.36666666666666664
1.100362328084992,1.0296411912397703,-0.1803223192691803,0.9999969601631165,1.0094901575936337,1.1726149721648613,0.12397556006908417,0.9999074935913086,0.999407963401834,1.1776312927083625,-0.2367514669895172,0.9999889731407166,1.0264595304713287,1.6219366604482792,0.1259092092514038,0.9999552369117737,1.0185713790685296,1.64683157799367,-0.12607106566429138,0.9999773502349854,1.2611260953608383,1.6887432425907039,0.18330517411231995,0.31534406542778015,1.28657460191812,1.6970573398304833,-0.1332242786884308,0.9722166061401367,1.2545722930948768,2.02964119123977,0.2443578690290451,0.5712953805923462,1.2842677467416022,2.0654969744139398,-0.0063699716702103615,0.963528037071228,1.1352587490926687,1.5537227701296132,0.01827460527420044,0.02364954724907875,1.1638622772315572,1.5581163381787835,-0.2715424597263336,0.9647713303565979,0.002126932144165039,1.022515454769929,1.6343841192209745,104.78959589264774,100.25579187289837,1.0,-0.014843791489409414,0.0035625535827891372,-0.12282957833086915,0.04059830089773873,160.25594179440512,1.2667465892954726,12,0.4
1.1011261710865115,1.0298153621124408,-0.1829988956451416,0.9999968409538269,1.0181029324915416,1.1731169255158778,0.12163563072681427,0.9999064803123474,0.9999058482973484,1.1774531774582402,-0.23733744025230408,0.9999880194664001,1.0285867491920286,1.622015438488527,0.12572865188121796,0.999954342842102,1.018290814007214,1.6474075690796808,-0.12588530778884888,0.9999765157699585,1.2634002518259206,1.688646014841093,0.18181577324867249,0.31803110241889954,1.28684803373767,1.6975158224432487,-0.13509123027324677,0.9723926782608032,1.255345253731104,2.0298153621124406,0.2502709627151489,0.5659549236297607,1.2844151368655667,2.066143996978145,-0.008396128192543983,0.9629836082458496,1.1385908844135617,1.5538888415044332,0.009160247631371021,0.02418605424463749,1.1634448947803744,1.559052629958003,-0.2695959210395813,0.9617960453033447,0.0018378794193267822,1.0234387815996213,1.6347115037841038,104.48929729767404,100.19076057068237,1.0,0.004217572045971975,-0.0023500843576737067,0.1509387478342438,-0.04681648929306016,156.5906844529713,1.2674570074101872,13,0.43333333333333335
1.1040691597648065,1.0311649469034971,-0.17643633484840393,0.9999962449073792,1.0204263995238012,1.174497136105791,0.12009445577859879,0.9999028444290161,1.0013016485060502,1.178623187997718,-0.2379404604434967,0.9999868869781494,1.0301511379270147,1.6237873290350047,0.12542210519313812,0.9999536871910095,1.0183915310275387,1.649759056702909,-0.12557360529899597,0.999975860118866,1.2654315495213515,1.6901848480257968,0.1819704920053482,0.31957027316093445,1.2878091195221792,1.6993094103886348,-0.13525429368019104,0.9720858931541443,1.2570275362963605,2.031164946903497,0.24406611919403076,0.5624891519546509,1.2858793487069253,2.0684334433914184,-0.010347471572458744,0.9622573852539062,1.1389071051945427,1.555506358233717,0.004358109552413225,0.02371814288198948,1.1640890163983355,1.5613633893460095,-0.26838716864585876,0.9584605693817139,0.001746833324432373,1.0242713344772767,1.6367731928689568,104.34751664070886,100.12164565030517,1.0,-0.0024908291268535376,0.0018508107929642154,-0.05346968652401454,0.03348087571853634,154.39974420463264,1.2690368802916183,14,0.4666666666666667
1.105840666563204,1.0315480745641818,-0.17607995867729187,0.9999954700469971,1.0239076484815335,1.1741298352772975,0.11738413572311401,0.9998989701271057,1.00256999862832,1.1788086861418925,-0.2381085455417633,0.9999856352806091,1.0320029540408366,1.6242606800208765,0.12469587475061417,0.9999526143074036,1.0189332667866722,1.6501938800543376,-0.12484429776668549,0.9999749660491943,1.2657136918159155,1.6939873664618912,0.1835545003414154,0.31830447912216187,1.287747039692248,1.6996577278389902,-0.1353110671043396,0.9712727665901184,1.2574177041345587,2.031548074564182,0.24550768733024597,0.5552661418914795,1.286202702744571,2.0690256368946405,-0.01354161836206913,0.9605389833450317,1.1382609690031322,1.5560635434238088,-0.01086736936122179,0.023031961172819138,1.164131499882689,1.561836287890545,-0.2590605914592743,0.9541863203048706,0.0019802749156951904,1.0254681104137544,1.637227280037607,105.20443347533423,100.18669049954107,1.0,0.006462151814205818,-0.000274876274246784,0.06508832802067223,-0.015456533578587018,152.2227175863622,1.2704005300412329,15,0.5
1.1085095054379135,1.0312741268168848,-0.1530441790819168,0.9999937415122986,1.0248438285749362,1.1736293152334223,0.12039937824010849,0.9998941421508789,1.0041873313762513,1.1783252279429859,-0.2350732833147049,0.9999843835830688,1.0326909041865149,1.6237731399227266,0.12442413717508316,0.999951958656311,1.0188871269019182,1.6495972458191446,-0.12456910312175751,0.9999743700027466,1.2645467635784529,1.6970282800785912,0.1875942051410675,0.30977141857147217,1.2872225222480576,1.699039094523906,-0.13523374497890472,0.9698430895805359,1.2562177147642182,2.031274126816885,0.24643738567829132,0.5445899963378906,1.285545787665428,2.068348966900612,-0.018324222415685654,0.9586708545684814,1.1375055398409595,1.5553292847678166,-0.010430129244923592,0.02226678468286991,1.1642683214577538,1.561459291249501,-0.2471812516450882,0.9492112398147583,0.001988142728805542,1.0257890155442164,1.6366851928709356,106.1065405634298,100.17974849301402,1.0,0.00504272406329097,-7.43132573195141e-05,-0.010921768799126286,0.0015448289801075225,150.8754280461612,1.272037027714169,16,0.5333333333333333
1.1140199499040853,1.0341012557698588,-0.14956024289131165,0.9999855756759644,1.0299687343194546,1.1761003250160647,0.116275355219841,0.9998869299888611,1.0087566620603972,1.1819136210534054,-0.2428305596113205,0.9999821782112122,1.0349459462300274,1.6266980313435608,0.12440519034862518,0.999951183795929,1.0210837532389265,1.6531207446707572,-0.12455268949270248,0.9999736547470093,1.2659531263811137,1.7000486822186873,0.19487054646015167,0.2919708490371704,1.2898905845795527,1.7022976158975063,-0.13538096845149994,0.9648992419242859,1.2590231938568839,2.034101255769859,0.265982449054718,0.5189543962478638,1.2876807321196193,2.0727506060234315,-0.018012041226029396,0.9518790245056152,1.1394819283576358,1.5580582898495987,-0.01785612851381302,0.02120058424770832,1.1668487987851244,1.563646621975341,-0.2558349668979645,0.9374804496765137,0.0024559199810028076,1.028014849734477,1.6399093880071591,106.42753362192185,100.02555032925838,1.0,0.00010129005491902118,-0.0023507959269976043,-0.03802548795608389,-0.017478358051097667,151.68422028664656,1.2725797698621544,17,0.5666666666666667
1.1198331988173893,1.036431054454638,-0.15758703649044037,0.9999837279319763,1.0318435348375823,1.176073499709543,0.11009341478347778,0.999883770942688,1.0130257743279196,1.1846872499004102,-0.2496940642595291,0.9999808073043823,1.0331877059698182,1.627843268558841,0.12438283860683441,0.9999495148658752,1.0218741067714219,1.6542576678853225,-0.1245311051607132,0.9999724626541138,1.2615236325559505,1.7022687414665676,0.21277323365211487,0.2808409631252289,1.2908246007389588,1.7033245380872137,-0.13294845819473267,0.9634481072425842,1.2590630249730914,2.036431054454638,0.28971150517463684,0.5092791318893433,1.2885866451045833,2.0714135299673355,-0.005831027403473854,0.9494838118553162,1.1399889182299072,1.5586503282210216,-0.017562735825777054,0.02059805579483509,1.1678977822835266,1.5645238499133853,-0.2569512724876404,0.9315454959869385,0.0036364495754241943,1.02753090637062,1.641050468222082,107.63134722043657,99.99088566852147,1.0,-0.008780513356872603,-0.00012041788327536761,-0.06447078647026934,0.016201671139007136,156.6435032607287,1.2722142472141353,18,0.6
1.1283203386201628,1.0454120062205665,-0.1595083773136139,0.9999847412109375,1.039197392992146,1.1807641816930994,0.11670754104852676,0.9998799562454224,1.0228282570996434,1.1904038910361887,-0.24266394972801208,0.9999803304672241,1.0372998693335187,1.6341525626314275,0.1243620365858078,0.9999489188194275,1.0262087039312418,1.6600619037504618,-0.12450994551181793,0.9999721050262451,1.2660645817152398,1.7095063780792148,0.2112678736448288,0.28180617094039917,1.295443526488258,1.709855492949701,-0.13163790106773376,0.9636634588241577,1.2623406897633864,2.0454120062205665,0.27786099910736084,0.5111796259880066,1.293660390040545,2.0793161203968626,-0.008198686875402927,0.949969470500946,1.144459070037645,1.5648266838856981,-0.002941677113994956,0.019941555336117744,1.1724134191931959,1.569515567326902,-0.2614852786064148,0.9294335246086121,0.004053592681884766,1.0317542866323803,1.6471072331909447,107.59643142352908,100.20163604696087,1.0,0.0012830458423086736,-0.0030958381100131657,0.07548093983485148,-0.02223684115025093,157.06519145002204,1.2622588109909691,19,0.6333333333333333
1.1382374478528303,1.0503378629004634,-0.1767977625131607,0.9999856948852539,1.054884467819344,1.1827698262181043,0.12201322615146637,0.9998772144317627,1.0296250231163748,1.192184340355387,-0.24307671189308167,0.9999808669090271,1.045816530701563,1.6367233918545883,0.1255454272031784,0.9999474883079529,1.029299033424947,1.6625590687712595,-0.12569431960582733,0.9999716877937317,1.268480694233099,1.7141450916792764,0.20236511528491974,0.2860226631164551,1.2975159258955578,1.7126278765910365,-0.1376485526561737,0.9647791385650635,1.2641255514653031,2.0503378629004634,0.25014054775238037,0.519443690776825,1.2964614287534693,2.0826065829046376,-0.03675176203250885,0.9517400860786438,1.148165438348584,1.5694414480416659,0.010714732110500336,0.019518721848726273,1.174317663182084,1.5717947926128408,-0.30163151025772095,0.933376133441925,0.0039522647857666016,1.0375577820632549,1.6496412303129238,108.43069241853918,100.41056347478626,1.0,0.031820058754800665,-0.0017933121816121284,0.23858555320099223,0.010217932046966667,148.552397693269,1.259850663033572,20,0.6666666666666666
1.1551229567031707,1.0566103320976952,-0.18339665234088898,0.999984622001648,1.069614919307582,1.1891890120410786,0.12169955670833588,0.999868631362915,1.038860372546674,1.1957443470637106,-0.2494441568851471,0.9999797940254211,1.0537268595683404,1.6425428789456635,0.12691640853881836,0.9999447464942932,1.0330887966052922,1.6684699798756089,-0.12705615162849426,0.9999701380729675,1.2731184171557532,1.7192250239220712,0.20614008605480194,0.27473095059394836,1.3021214216011867,1.7186577764168525,-0.1424015313386917,0.9637234807014465,1.2688705441023536,2.056610332097695,0.26947811245918274,0.5098963379859924,1.30097908971238,2.090455244976899,-0.034984439611434937,0.9505342841148376,1.1573925879231852,1.5791643337110945,0.008694151416420937,0.01889737881720066,1.1809064290259166,1.5782324576286704,-0.307981938123703,0.9290621876716614,0.002742171287536621,1.0434078280868164,1.655506429410636,108.54428844760936,100.39097623964403,1.0,0.01712051756531358,-0.00021503399643430193,-0.11828063388712168,0.01265340573441966,143.48723159187963,1.2619069326019985,21,0.7
1.1738913581199681,1.070397053266035,-0.17840130627155304,0.9999852776527405,1.0777832534468206,1.1988871856219052,0.12157245725393295,0.9998690485954285,1.054083823065426,1.2037562595539806,-0.24775159358978271,0.9999803900718689,1.0607787548950198,1.6534689973173367,0.1267981082201004,0.9999435544013977,1.040068461243679,1.6797301657874955,-0.1269400417804718,0.9999697208404541,1.2835110407490429,1.7305275593945326,0.2055816948413849,0.2634435296058655,1.3108361513982405,1.7302715075151227,-0.14158895611763,0.963483989238739,1.287033080970418,2.070397053266035,0.2729344069957733,0.4946047365665436,1.309755999772494,2.1072157356144565,-0.027911091223359108,0.9495831727981567,1.166837666766338,1.5897842328990517,0.013967853970825672,0.01904691569507122,1.188729672116603,1.587871231294675,-0.28133317828178406,0.9314927458763123,0.0020231902599334717,1.0504236080693494,1.666599581552416,109.67778612284691,100.40893921476903,1.0,1.9727036401322223e-05,-0.00026562037746005697,-0.13338365191233847,-0.00038073083780274555,143.88195656941537,1.2434620110879009,22,0.7333333333333333
1.191963497046081,1.0829500969039139,-0.16289374232292175,0.9999852776527405,1.0877322404095315,1.2133269929654562,0.13284450769424438,0.9998646378517151,1.0723573298056852,1.2124376176992178,-0.24533191323280334,0.9999805092811584,1.0680484026996446,1.664996012472921,0.1283760964870453,0.9999433159828186,1.0466772509593971,1.6923625386528673,-0.12851698696613312,0.9999698400497437,1.2938579949231797,1.7381335137603269,0.20359620451927185,0.2483803629875183,1.3200221238778265,1.7424242402356145,-0.14909912645816803,0.9628978967666626,1.300174191592262,2.0829500969039136,0.27066901326179504,0.4741039276123047,1.3177629344732513,2.1299429699124794,-0.04387155920267105,0.9486973285675049,1.175894362383514,1.6013772966198685,0.029449572786688805,0.018400968983769417,1.198783316724054,1.5990799725603824,-0.27488210797309875,0.9276426434516907,0.0003669857978820801,1.057362826829521,1.6786792755628943,108.99602902791642,100.04438450684859,1.0,-0.0031162568125643587,0.0032752183681238156,-0.024092091226860055,0.027215446983914655,144.50828534853596,1.2306507834560745,23,0.7666666666666667
1.1960396887558074,1.0873374258902786,-0.14936381578445435,0.9999858736991882,1.0884978066907722,1.2174830803719583,0.1432424783706665,0.9998639822006226,1.0766451699890602,1.2156131037821094,-0.23144881427288055,0.9999790191650391,1.066775857135293,1.6682934083831544,0.1284700334072113,0.999941885471344,1.0469055113530987,1.695775814602946,-0.1286160796880722,0.9999682903289795,1.2957687837455836,1.7405043641949394,0.20011809468269348,0.2383914440870285,1.321662881673564,1.7449472584430326,-0.14811548590660095,0.962197482585907,1.3014062004060538,2.087337425890279,0.24430787563323975,0.46098315715789795,1.3197599208146074,2.1352347800021585,-0.05120319873094559,0.9478899240493774,1.183409751712361,1.6017178438819824,0.05866742879152298,0.018752507865428925,1.203780358909355,1.6015477144939534,-0.2539371848106384,0.9148048758506775,0.0007704496383666992,1.0568406842441957,1.6820346114930502,108.43342424464932,99.86706036193657,1.0,-0.016386154470635114,0.006314812986705305,-0.10249243474384626,0.023446932453573988,146.89091528034533,1.2248670550343561,24,0.8
1.2392383372037423,1.1240074011597632,-0.15609601140022278,0.9999871253967285,1.1220482097905486,1.245855391906245,0.14050757884979248,0.9998683929443359,1.1197188717752913,1.2416623175051436,-0.2206527292728424,0.9999796152114868,1.085941032462378,1.7055528498484245,0.12842708826065063,0.99993896484375,1.069516790915759,1.7326591098630708,-0.12858378887176514,0.9999668598175049,1.3237024771602526,1.7770976897529813,0.22878065705299377,0.22967660427093506,1.3502818138456418,1.7830934743663474,-0.1337687373161316,0.9639087915420532,1.328321848197615,2.1240074011597634,0.28743594884872437,0.45445480942726135,1.3480015331902593,2.180387606337738,-0.04700295254588127,0.9502505660057068,1.2084541789482457,1.639854258267495,0.06620887666940689,0.020295126363635063,1.2366696229143972,1.6367909807748344,-0.25817158818244934,0.9168655276298523,0.0016914010047912598,1.0777289116890685,1.7191059798557478,107.50996848454331,99.85469859781232,1.0,-0.012781650379129124,0.008029687951947863,0.029327487241315245,0.01171412420621151,153.27857039903537,1.220154359001583,25,0.8333333333333334
1.266868151321635,1.1482456483102357,-0.1269218623638153,0.9999877214431763,1.1467923020838369,1.266033035703546,0.14161980152130127,0.9998681545257568,1.1449000308032,1.25650488798147,-0.2088053673505783,0.9999788403511047,1.0989551491811003,1.7277476764428288,0.12603560090065002,0.9999384880065918,1.0843312123229536,1.7521160483476508,-0.12622401118278503,0.999966025352478,1.3333592828315755,1.7995924235334655,0.22176626324653625,0.24812106788158417,1.3650890442588117,1.8043894447900641,-0.11559750884771347,0.9660848379135132,1.3339899901180226,2.1482456483102355,0.25416260957717896,0.48066312074661255,1.3686354092757602,2.200563721719872,-0.0469236820936203,0.9538015723228455,1.226345021390779,1.6602711114919695,0.10173038393259048,0.022736765444278717,1.2547018212139838,1.6551960172052644,-0.24428288638591766,0.9178680777549744,0.003800809383392334,1.0916431807520268,1.7399318623952398,107.14392224488593,101.05982245619442,1.0,0.014235312432359728,0.012000454853399954,0.21240855338627956,0.03034879598730675,154.94638014015183,1.2191552493283142,26,0.8666666666666667
1.2990804719167277,1.1701911972282817,-0.07968571782112122,0.9999868869781494,1.1683530468520014,1.2844261441263276,0.14747999608516693,0.9998735189437866,1.1730685909677614,1.2748330704025483,-0.2070377767086029,0.9999778270721436,1.110613823869083,1.748430491919596,0.12524233758449554,0.9999417066574097,1.095503355198104,1.7733229670669757,-0.12543100118637085,0.9999673962593079,1.3474280840271435,1.8168727591126275,0.2161978781223297,0.2658930718898773,1.3786010069368437,1.8230374166861663,-0.11979328095912933,0.9686604738235474,1.3476501536069323,2.1701911972282817,0.2535327672958374,0.509934663772583,1.3824898664714185,2.218214989319223,-0.04297205060720444,0.957636296749115,1.2440762071542335,1.6784536650538568,0.12561549246311188,0.025880906730890274,1.2854635759089983,1.6777371849548237,-0.2265193909406662,0.9094278812408447,0.0037875771522521973,1.1030585895335936,1.7608767294932859,106.15596354644107,100.52390680904529,1.0,0.0010631179548811138,0.0230244653994902,-0.10329981113163096,0.08453699472004896,155.83425329912436,1.2290320795785452,27,0.9
1.3325404927217568,1.1969639839338966,-0.056716788560152054,0.9999840259552002,1.1930874610387516,1.309344478954392,0.15970267355442047,0.9998764395713806,1.205721505080686,1.2961799215280374,-0.20302002131938934,0.999976634979248,1.12341749660959,1.7723935568683296,0.1250268667936325,0.9999451637268066,1.1092387583816452,1.7960332699600885,-0.125220388174057,0.9999690651893616,1.3640656124770145,1.8367149804232765,0.21401894092559814,0.2692551016807556,1.3953218837611703,1.8470762690557243,-0.11839522421360016,0.9708467125892639,1.3644238733162772,2.196963983933897,0.257303923368454,0.5292258262634277,1.399443564670896,2.245736978769836,-0.03466501086950302,0.9609798789024353,1.2630547024868408,1.7029659993039592,0.1425357162952423,0.02701580710709095,1.3063651365739535,1.7020280100673741,-0.22326643764972687,0.8917362093925476,0.005133867263793945,1.1163281274956176,1.784213413414209,105.02142122638875,100.70862221046966,1.0,-0.0034250884718139965,0.011209649433581987,-0.034856296811881654,-0.0937030635095125,157.6018063381197,1.223422574038487,28,0.9333333333333333
1.372246952487659,1.2318611603468448,-0.05406948924064636,0.9999518394470215,1.2345253161073637,1.3422791728892831,0.16673068702220917,0.9998674988746643,1.2371169166643023,1.3234687712636743,-0.2050774097442627,0.999972403049469,1.1416437257345091,1.798161965849134,0.12494923919439316,0.9999480843544006,1.1251329984941694,1.8216665961268854,-0.12514296174049377,0.9999702572822571,1.3827913320096659,1.8648457791087834,0.18758615851402283,0.2539879381656647,1.414737481165491,1.8749931204334211,-0.12830159068107605,0.9689479470252991,1.3840069417346057,2.231861160346845,0.2193625271320343,0.5128567814826965,1.4164578766657658,2.2779867357305386,-0.0552525520324707,0.9595628380775452,1.292402508983745,1.7320060382052758,0.09296150505542755,0.02598603442311287,1.3246733736820882,1.7278128745487973,-0.21336403489112854,0.8541421294212341,0.007231950759887695,1.1333883621143392,1.8099142809880095,105.64732790028367,100.67792523891337,1.0,0.00796018111199438,0.0009470162022835396,0.08596533713569414,-0.07836408676822887,156.42987230371955,1.205389305908416,29,0.9666666666666667
1.377200442989343,1.2320259334690167,-0.023134741932153702,0.9999448657035828,1.234347144724846,1.3275882816508588,0.18189764022827148,0.9998692274093628,1.2497378948963724,1.317477156776106,-0.191648930311203,0.9999712109565735,1.1309204516104576,1.7849179552395609,0.12386657297611237,0.9999510645866394,1.116852933335763,1.7958452102411644,-0.1240747943520546,0.9999715089797974,1.3699638431440033,1.8665292763038763,0.15781910717487335,0.2561088502407074,1.4024941717897785,1.8590842995371342,-0.12100628763437271,0.9696056246757507,1.3726742809592936,2.232025933469017,0.19624601304531097,0.5188472867012024,1.3983240190387303,2.255136856348872,-0.016664886847138405,0.9597447514533997,1.2803664573439755,1.72597665917048,0.13608646392822266,0.026234552264213562,1.3196827226851495,1.715547048240949,-0.16708257794380188,0.8383955955505371,0.003918945789337158,1.1238866924731103,1.7903815827403626,109.2751984536207,101.88028565699607,1.0,-0.0028475842080611124,-0.037893485030001714,-0.08218035604349813,-0.29704061551266336,140.58233438922713,1.1716807236473825,30,1.0
1.3851114017938952,1.230558277892351,-0.032742809504270554,0.9999446868896484,1.2440808131444352,1.3219902307849176,0.2000582218170166,0.9998664855957031,1.2607218630402872,1.3125048506956825,-0.18675442039966583,0.9999684691429138,1.124438246428875,1.775560996575858,0.12474951893091202,0.9999536275863647,1.110643881058151,1.77737120929841,-0.12497296184301376,0.9999722242355347,1.3625209808120051,1.8643089806936386,0.14470729231834412,0.25472477078437805,1.3943075943982657,1.848549256802692,-0.11483839899301529,0.9689285755157471,1.3647938017533388,2.2305582778923507,0.17224283516407013,0.512647271156311,1.387097176247079,2.2386024613357023,-0.014265003614127636,0.9570844769477844,1.288313117099292,1.7200639148690768,0.08415316790342331,0.027168529108166695,1.3187677248721348,1.7107450737386032,-0.09776470065116882,0.8136181235313416,0.0036969780921936035,1.1175410637435128,1.776466102937134,110.79905266680065,103.02702869315125,1.0,-0.0006920722637072278,-0.029012095357726,0.015687358974063655,0.06357004845469993,112.2529688205736,1.1558742885200197,31,1.0333333333333334
1.4235945927010056,1.2557897218275007,-0.024490270763635635,0.9998721480369568,1.2675426966896688,1.341751500059805,0.19216512143611908,0.999854564666748,1.3008325085149515,1.3418512137313776,-0.19171062111854553,0.999955952167511,1.1313609948451593,1.7975391316162401,0.1300487518310547,0.9999563694000244,1.1251366321165504,1.7940133862507388,-0.1302713304758072,0.9999731183052063,1.3765029532820545,1.8852904141330193,0.16189701855182648,0.23348741233348846,1.4102132966787528,1.8708796209022462,-0.11746808141469955,0.963127613067627,1.3777441097903265,2.255789721827501,0.19133035838603973,0.4785062074661255,1.3981911413538066,2.26678005742052,-0.05524380877614021,0.9518507122993469,1.3078206717744119,1.7500122513109677,-0.0007302268058992922,0.025064503774046898,1.3389034670242321,1.7413464519777642,-0.07612784951925278,0.743013322353363,3.838539123535156e-05,1.1282488134808548,1.7957762589334896,109.88732886938621,103.35065992665754,1.0,-0.025617766922450397,-0.022538591600506988,-0.19795125757298132,0.05430157367951471,77.10619176105031,1.154611188098753,32,1.0666666666666667
1.4603611630881719,1.2806526352356806,-0.016817405819892883,0.9998592734336853,1.3040058194817317,1.3586090379890492,0.20951183140277863,0.9998327493667603,1.335800979864399,1.3617382075852174,-0.18334446847438812,0.999946117401123,1.144304070269819,1.816638398837482,0.13043291866779327,0.9999580383300781,1.1396348273647205,1.8016173197399246,-0.1306518316268921,0.999973475933075,1.3888372642296243,1.9093043576729027,0.12942731380462646,0.2183389514684677,1.422876752943454,1.892408502056694,-0.12441183626651764,0.9592612981796265,1.393777151564483,2.280652635235681,0.12643425166606903,0.44949766993522644,1.4114310621807145,2.2930509066823332,-0.10103632509708405,0.9485068917274475,1.3238446983371812,1.7717612295902696,0.035877909511327744,0.023084446787834167,1.356981099214207,1.7683863186108297,-0.062042154371738434,0.678450345993042,0.0011908411979675293,1.1419694488172698,1.8091278592887032,111.51636097342669,106.13648204435621,1.0,0.005499141750802064,-0.05873202949953553,0.24978453274640783,-0.28572951029551263,36.4898535733228,1.1337306087035433,33,1.1
1.4619787634327472,1.2755533968953134,-0.0047733960673213005,0.9998409748077393,1.3168537242023464,1.370759696027139,0.22381198406219482,0.9998211860656738,1.33520925147848,1.3640856411963698,-0.18597939610481262,0.9999367594718933,1.1411950404954687,1.8137149012035034,0.13490203022956848,0.9999598264694214,1.137820483249733,1.7939570092665842,-0.13506025075912476,0.9999739527702332,1.3871527259244965,1.907931507434112,0.13102705776691437,0.2054208219051361,1.4204019663754612,1.8882754151620202,-0.15028177201747894,0.9595377445220947,1.3920918079729936,2.2755533968953134,0.13851328194141388,0.42881524562835693,1.4028491083459618,2.287294604320653,-0.12150362879037857,0.9493730664253235,1.3280621644109936,1.7823642010454246,0.041929587721824646,0.02147628366947174,1.3609515876134672,1.7834269207415332,-0.06717859208583832,0.621791660785675,0.002543926239013672,1.1395077618726008,1.8038359552350438,111.7295842512613,105.93886116699116,1.0,-0.0051961833444100925,-0.019380799531151162,-0.08558842386175085,0.3144153614468581,31.32367067096983,1.1402359759366005,34,1.1333333333333333
1.4824772507755315,1.2871424262065805,-0.012874823994934559,0.9998505115509033,1.3358010148554909,1.378878782993901,0.2205619066953659,0.9998130798339844,1.355590955286184,1.3696742614981947,-0.1821267455816269,0.999934196472168,1.13985959127534,1.814115609096887,0.13439415395259857,0.999961256980896,1.145017561855601,1.787302179082465,-0.13456639647483826,0.9999741911888123,1.3850722309260115,1.9242051873610382,0.1112901121377945,0.22009408473968506,1.4221577591161505,1.890107245421207,-0.1447383463382721,0.9609037637710571,1.390215169625768,2.2871424262065805,0.09767764061689377,0.44414374232292175,1.4041069759434326,2.287663844561587,-0.09611804783344269,0.9516422152519226,1.3277433005766213,1.7824251167691354,0.18763235211372375,0.021046128123998642,1.364488575888253,1.7857534256442158,-0.08242978900671005,0.5931704044342041,0.0035037994384765625,1.1424385765654705,1.800708894089676,114.98980676437708,107.75262938331724,1.0,0.010603279879357238,-0.04134775183639262,0.11831114142595936,-0.16423053148021305,13.34832977897344,1.1212596629591909,35,1.1666666666666667
1.5272788575616574,1.312843883486232,-0.015056801959872246,0.9998601078987122,1.3761425847643756,1.4028119318734946,0.24777276813983917,0.9997818470001221,1.394875553335924,1.3937475513920756,-0.17218723893165588,0.9999346137046814,1.1517960415458026,1.8305524534358866,0.1356048882007599,0.9999620914459229,1.1576389839751224,1.797845462467342,-0.135782852768898,0.9999748468399048,1.4068773927104101,1.9478048205224805,0.10272417217493057,0.21486599743366241,1.4371085096396994,1.9082327837634836,-0.1664498746395111,0.9612835645675659,1.4121612412770197,2.3202260752703063,0.0808386355638504,0.43682488799095154,1.4132692981963209,2.312843883486232,-0.1616910994052887,0.9528340697288513,1.3515658822942793,1.8139787712123647,0.2548474371433258,0.019375301897525787,1.3869345842768306,1.8072876903582427,-0.1299467384815216,0.5656329989433289,0.0034131407737731934,1.1547175127604625,1.8141989579516142,115.49950815291159,108.18156085209361,1.0,-0.001512462944263886,-0.04457437854864456,-0.08800512564024328,-0.01996296297758504,17.54789714163239,1.1060849829511192,36,1.2
1.5776198050999806,1.3456376113108466,-0.009750251658260822,0.9998723268508911,1.3979474410460844,1.4148157914931543,0.25563257932662964,0.9997653961181641,1.4567902520191476,1.4207973351562921,-0.16037453711032867,0.9999343752861023,1.1556752170464382,1.833477227246271,0.13696706295013428,0.9999639391899109,1.1812110863624616,1.8102436338358379,-0.13719597458839417,0.9999762177467346,1.4228657867910355,1.9740342112384004,0.14623616635799408,0.21562965214252472,1.4550330854534388,1.9333221935039628,-0.12571081519126892,0.9634355306625366,1.429681696197628,2.349895952605206,0.2021886110305786,0.43466916680336,1.4268106000976952,2.3456376113108464,-0.15305538475513458,0.9556846618652344,1.3637269105541658,1.8374098647087482,0.2832322120666504,0.01792329177260399,1.4139394511289651,1.854261393265829,-0.13222186267375946,0.5210715532302856,0.0022253990173339844,1.16844315170445,1.8218604305410544,118.78573941729168,110.28742808882629,1.0,-0.0018828915304687512,-0.11151183512435311,-0.0027494132117809,-0.5184277108946436,17.645540375120476,1.0703782016362526,37,1.2333333333333334
1.610993228440324,1.3697917973189861,0.046543966978788376,0.9998794794082642,1.4345510574563787,1.4255719961915743,0.287656307220459,0.9997533559799194,1.4912933968675164,1.4402860300592448,-0.13484442234039307,0.9999358654022217,1.1676863684025602,1.8341784363670675,0.13841362297534943,0.9999661445617676,1.1974314812707894,1.809737477243232,-0.13864080607891083,0.999977707862854,1.4375795748487885,1.9942634089942095,0.13617941737174988,0.21837979555130005,1.4702161263817317,1.9548135429898796,-0.13920901715755463,0.9657142758369446,1.447420273830538,2.377723913732003,0.16974468529224396,0.434213250875473,1.437320144860009,2.369791797318986,-0.13400967419147491,0.9583814740180969,1.3750656869286937,1.867391463021678,0.2566668391227722,0.01655803620815277,1.4381740142429167,1.9099128959362064,-0.10859076678752899,0.48306986689567566,0.0054190754890441895,1.1825589248366748,1.8219579568051496,122.14400784963387,113.47310142525329,1.0,0.01683015119777584,-0.1402892869249569,0.1423643913761322,-0.21007573524640688,17.441815586011348,1.021308388213717,38,1.2666666666666666
1.6308802775991253,1.3727925893193238,0.00692224595695734,0.9998911023139954,1.4527548203339997,1.4215059596989306,0.2724533677101135,0.9997339844703674,1.5157307305336514,1.4415978348460858,-0.14637258648872375,0.9999346137046814,1.1693218224459063,1.8180908383959622,0.13859258592128754,0.999965488910675,1.2053574336664776,1.7978926630326901,-0.13884520530700684,0.9999774098396301,1.4391407766494724,2.0027453327156253,0.14149713516235352,0.20945829153060913,1.473072421397391,1.9586333357153656,-0.12145254760980606,0.9643277525901794,1.4499654119190089,2.3915527949907966,0.17585736513137817,0.4160955250263214,1.437156397919951,2.3727925893193236,-0.12222782522439957,0.957518994808197,1.3782727219547701,1.871506372908612,0.25218743085861206,0.015246966853737831,1.4419791220541998,1.8997786654493996,-0.06113358214497566,0.4419102966785431,0.007390439510345459,1.187339628056192,1.8079917507143262,125.9810877352502,116.02501922430471,1.0,0.024906994770974366,-0.12265668932422176,0.060811804877371395,0.1344324998580064,25.176311150982468,0.988283184061895,39,1.3
1.6308996833653049,1.3504970256743927,0.025526821613311768,0.9998990297317505,1.4578815537911622,1.3970627632272548,0.29043474793434143,0.9996927976608276,1.5145308984320984,1.4238066683542727,-0.12797734141349792,0.9999342560768127,1.158373012932004,1.7781319290910251,0.13821300864219666,0.9999658465385437,1.2021798673721245,1.7577171886535117,-0.13845869898796082,0.9999780058860779,1.4210846815734264,1.9881290062598638,0.1396772265434265,0.20268329977989197,1.459459754283263,1.9428331441995277,-0.12283758819103241,0.9646544456481934,1.4361549081265295,2.367818570148429,0.16102313995361328,0.40145522356033325,1.4228521762900321,2.3504970256743927,-0.11424630880355835,0.9582971334457397,1.3471811683688708,1.8514752597261137,0.3142338693141937,0.013936610892415047,1.4275989695977434,1.8776065253248402,-0.06328152120113373,0.40958425402641296,0.009936869144439697,1.1802764401520642,1.7679245588722685,130.90982230127415,120.60415887343798,1.0,0.035452420441333864,-0.1608252472533256,0.07911068237558286,-0.2887243112019932,26.84743096492176,0.9573495997529103,40,1.3333333333333333
1.63505851456052,1.337131649009444,0.006005343049764633,0.9999014735221863,1.461491885853885,1.3818313204628598,0.26783496141433716,0.9996407628059387,1.5157085712613403,1.4144087943725483,-0.14484158158302307,0.9999291300773621,1.1519480704855665,1.7468334101119558,0.13810718059539795,0.999965250492096,1.1966739771823556,1.7262345177176805,-0.13832876086235046,0.9999776482582092,1.4082665577279418,1.9786175589692914,0.13071522116661072,0.19513268768787384,1.4512304767725197,1.9327854659622437,-0.13132978975772858,0.9627256393432617,1.4289006962546518,2.358909931219804,0.15122821927070618,0.3870227038860321,1.4155704813800345,2.3371316490094443,-0.11623691022396088,0.9573741555213928,1.336902070694332,1.837986606948129,0.2693364918231964,0.01282730046659708,1.4224091879809413,1.8614970531601787,-0.087236687541008,0.3798225224018097,0.012175261974334717,1.1743110238339611,1.7365339639148183,135.22821035191066,124.01641614441212,1.0,0.007018025907958958,-0.16323851750991789,-0.2184198579949822,-0.02591908140392026,24.971211282275984,0.9241095148409681,41,1.3666666666666667
1.6143102738344888,1.3081744231518861,0.021542061120271683,0.999901533126831,1.4397292231347008,1.3408621432027774,0.258491575717926,0.9996285438537598,1.4980685227538932,1.3807185007546843,-0.1492360234260559,0.9999278783798218,1.1338548384618303,1.6988008784630722,0.13511689007282257,0.999965488910675,1.1784799910686032,1.6860211098326585,-0.13530762493610382,0.9999778270721436,1.3840961555166897,1.942212797424446,0.1311786025762558,0.19588327407836914,1.4354043322918597,1.9018571848350656,-0.12225252389907837,0.9648224711418152,1.4015526768944957,2.318078928081873,0.16990569233894348,0.3913821280002594,1.3939349607416822,2.308174423151886,-0.08610935509204865,0.9603725075721741,1.3446612796044595,1.8059099001458565,0.20163381099700928,0.012153438292443752,1.4097552615428424,1.8267040919783326,-0.09293874353170395,0.3711260259151459,0.01515054702758789,1.1561674147652168,1.6924109941478653,136.866500738859,124.20530722298854,1.0,0.012976067379048014,-0.11968202815225595,0.04879470924253305,0.3277252086111945,33.50398115652028,0.8977125364477165,42,1.4
1.5694988712299973,1.2471289251485203,0.01794913411140442,0.9999010562896729,1.4110595837853976,1.2951837571726388,0.2648976445198059,0.9996016621589661,1.459716710962488,1.3199223600094308,-0.14091672003269196,0.9999251365661621,1.1094842131460365,1.6426852000444405,0.13457636535167694,0.9999653100967407,1.1483273736288908,1.623052084966899,-0.13474734127521515,0.9999778270721436,1.357987962326682,1.8759185115384784,0.1324758231639862,0.19074726104736328,1.3958595561090819,1.8483900263458408,-0.134325310587883,0.966417670249939,1.3622816013309016,2.250103976687276,0.1697319746017456,0.3873254954814911,1.3557872684985157,2.24712892514852,-0.10380728542804718,0.9626925587654114,1.317932286601661,1.7588284932547362,0.2011823207139969,0.011644966900348663,1.3755125871609633,1.7625576329556645,-0.07370419800281525,0.3618112802505493,0.009675264358520508,1.1289057933874638,1.6328686425056698,133.84182522462805,126.57396700050364,1.0,0.03908900544617984,-0.09121363144955656,0.2001397543775247,0.18981515501181734,22.233147101453564,0.890837813000464,43,1.4333333333333333
1.5438729814207814,1.1957680365770769,0.00030559528386220336,0.9999039769172668,1.3941260196329803,1.2604428133191734,0.25372588634490967,0.9995865225791931,1.4320014723202228,1.2765352853192518,-0.1464792788028717,0.9999227523803711,1.099611422028163,1.5907130754644132,0.13247866928577423,0.9999648928642273,1.1306240736770337,1.577172186459096,-0.13260190188884735,0.9999776482582092,1.338338783366042,1.8291371184955292,0.12166009098291397,0.19601665437221527,1.3709876787407445,1.8140522675174735,-0.14232966303825378,0.968611478805542,1.3366676909392854,2.1957680365770766,0.16676683723926544,0.39199990034103394,1.3321150745982808,2.214429590704999,-0.10505448281764984,0.9654018878936768,1.3103531826099597,1.713250979222322,0.1795775145292282,0.011736677959561348,1.3530582464627259,1.7168635780297936,-0.06697259843349457,0.3661353886127472,0.006413161754608154,1.1151177478525984,1.5839426309617546,134.70242731036188,129.0363290222581,1.0,0.056229055355154565,-0.14408804491463148,0.1389701089470361,-0.424448544100541,24.688124770468214,0.8780120341499223,44,1.4666666666666666
1.5398507070404088,1.177793748821352,-0.03806252405047417,0.9999099373817444,1.3899345302706547,1.2498637594087678,0.24108824133872986,0.9995670914649963,1.420711391198338,1.2609707457668897,-0.15078024566173553,0.9999176263809204,1.0983186351885317,1.5769234424396494,0.13172271847724915,0.9999622702598572,1.1226290053620138,1.5622865254714222,-0.13183331489562988,0.9999759793281555,1.339243378410284,1.8158073238784096,0.12460680305957794,0.19298338890075684,1.3651360698264585,1.8057878863924235,-0.14660124480724335,0.9699022173881531,1.3268559532312407,2.177793748821352,0.18722334504127502,0.3851289451122284,1.3240292765067765,2.203313727557425,-0.09985648095607758,0.9672296047210693,1.3095500570948309,1.6992614052307478,0.18351319432258606,0.011768495664000511,1.3431483975582121,1.7005941129215476,-0.07691585272550583,0.3628331422805786,0.004458367824554443,1.1104738202752729,1.5696049839555357,132.79635809874222,129.21343974557686,1.0,0.024342623721243264,-0.021432209401318823,-0.22778027732530554,0.8799420559302973,17.22734991538186,0.8845944226758926,45,1.5
1.513389368799802,1.1288694334785205,-0.05706421658396721,0.9999147057533264,1.3794588255859688,1.2206746106894693,0.22574016451835632,0.999566912651062,1.3937775867845645,1.2180075604177896,-0.1635388284921646,0.9999141693115234,1.0891863446326862,1.535962969976838,0.1313360184431076,0.9999610185623169,1.1051167567410083,1.5206993750637319,-0.13142327964305878,0.9999752044677734,1.321052194560578,1.780575698865209,0.1271429806947708,0.20347647368907928,1.3420143633370722,1.7746809037539877,-0.1582219898700714,0.9721736311912537,1.3024155462001252,2.1288694334785205,0.19443920254707336,0.3978284001350403,1.2991067344530716,2.163508092123472,-0.10286426544189453,0.9698405265808105,1.2938093434527365,1.6602696403338821,0.1563442200422287,0.01304143387824297,1.318963538100718,1.6546321033694116,-0.08809579908847809,0.37154439091682434,0.0010912716388702393,1.0971515506868472,1.5283311725202848,133.46954025252134,130.69605227121144,1.0,0.058322680761641675,-0.0863698637601565,0.25905371003270294,-0.49148369869486613,3.590152744481855,0.8868090164290864,46,1.5333333333333334
1.485971019875456,1.0829959284458746,0.01897399127483368,0.9999140501022339,1.3518563150840057,1.1753021406615645,0.25332555174827576,0.9995952844619751,1.3653332884181775,1.172503531537398,-0.15448041260242462,0.99991774559021,1.0723080007333923,1.4895774594812599,0.13272900879383087,0.9999629855155945,1.0896085194534844,1.4729069900139191,-0.13280995190143585,0.999976396560669,1.2977310304895164,1.7439811847366786,0.11830588430166245,0.2021128237247467,1.3196982529407948,1.7406410958118068,-0.166611909866333,0.9744088649749756,1.278414325612851,2.0829959284458743,0.19194111227989197,0.39932525157928467,1.2729961018735687,2.118902169865932,-0.13359355926513672,0.9723337292671204,1.2691798361686382,1.6160714801868137,0.16386015713214874,0.015437871217727661,1.29460847556129,1.6082308355439416,-0.057723380625247955,0.3876284062862396,0.0011686384677886963,1.0809582600934382,1.4812422247475896,135.1952385786064,132.28592822679826,1.0,0.04517891872243872,-0.1247864503294325,-0.09158954748486349,-0.3072813060435496,4.409389450045231,0.8744143842115064,47,1.5666666666666667
1.4377705200211859,1.015426660913359,-0.003627520753070712,0.9999172687530518,1.3110172178306367,1.1082347567931572,0.24346402287483215,0.9996136426925659,1.3234247054522819,1.1128860613542846,-0.16386207938194275,0.9999192357063293,1.048281959627456,1.4245347330376088,0.13251857459545135,0.9999637007713318,1.0672450662311184,1.41386457291609,-0.13259375095367432,0.9999769330024719,1.2563728215239505,1.6865857319214368,0.12071230262517929,0.2036578506231308,1.2812009290168043,1.6860915446352376,-0.16126923263072968,0.9760119318962097,1.2380454540333596,2.015426660913359,0.1874311864376068,0.39920493960380554,1.2329592646603769,2.0512188144495385,-0.12500008940696716,0.9742919206619263,1.2237592253189218,1.5376197134142267,0.16336019337177277,0.01660148613154888,1.2563194631204617,1.5489101304177528,-0.09123352915048599,0.4046253561973572,0.0020055770874023438,1.0577635129292873,1.4191996529768494,138.3574465129779,134.30805461098225,1.0,0.08128939875725728,-0.1138823439529191,0.2794544668008328,0.05186147187979856,20.919623780346328,0.8672703903719938,48,1.6
1.3538519095315185,0.8988265264867888,-0.099583700299263,0.9999225735664368,1.2390495900425678,1.0086036392792608,0.21038062870502472,0.9996098875999451,1.2483917366083424,1.0093757180476237,-0.19476279616355896,0.9999129176139832,1.0041919285536165,1.3204090965914235,0.13251134753227234,0.9999580979347229,1.021030900524303,1.3236734986591654,-0.13258454203605652,0.9999737739562988,1.1874133852502584,1.5877795625962485,0.13702133297920227,0.19758352637290955,1.2115523257264535,1.593189926935654,-0.1602783501148224,0.9761213660240173,1.169965228043761,1.8988265264867887,0.2238253802061081,0.38960179686546326,1.1667760678964278,1.9372677020007165,-0.09578518569469452,0.9749231338500977,1.1601153291435602,1.433519126012843,0.160349041223526,0.018862152472138405,1.1915289615426266,1.441697766007294,-0.15015670657157898,0.4156396985054016,0.0003522932529449463,1.0126114145389598,1.3220412976252944,142.367618234902,137.3290037058027,1.0,0.09823469031807555,-0.1435876414477072,0.16125253566524514,-0.2708222361895686,63.98352943248509,0.8825138901027609,49,1.6333333333333333
1.3153437974321796,0.8474044310407657,-0.10983376204967499,0.9999285340309143,1.2086422539673238,0.9639011536179858,0.21010279655456543,0.9996136426925659,1.2125961499284499,0.9608018671867506,-0.20023126900196075,0.9999105334281921,0.9895969008025575,1.2723445750029032,0.13338397443294525,0.9999544024467468,0.9987815537316117,1.2709413500135485,-0.1334410458803177,0.9999715685844421,1.1600387761991533,1.5395695653746415,0.13593170046806335,0.19303052127361298,1.178251843290101,1.5500067981025825,-0.1649518460035324,0.9761481285095215,1.1359173666000288,1.8474044310407656,0.20878717303276062,0.37916165590286255,1.135813376924246,1.8850728477553644,-0.0992991030216217,0.9753336906433105,1.145378393068389,1.3895306423441003,0.15211626887321472,0.020605692639946938,1.1626015242115106,1.3967318638286976,-0.17065930366516113,0.4245132505893707,0.0014531314373016357,0.9941892272670846,1.271642962508226,142.98894539452178,140.03597308414174,1.0,0.06514560944853424,-0.11174289368871579,-0.22748779202268682,0.2091125863231588,45.93256818996555,0.8705021694896942,50,1.6666666666666667
1.2895991112183771,0.8075972075246531,-0.1196519136428833,0.9999346733093262,1.1862894846798353,0.9194561007066091,0.2069512903690338,0.9995888471603394,1.1891915344749044,0.9221044412049618,-0.19244453310966492,0.9999098777770996,0.9756454682269372,1.2330354225998423,0.1327938437461853,0.9999521970748901,0.9896012275434654,1.2379961135781108,-0.13285939395427704,0.9999709725379944,1.138150642766635,1.5034266050031548,0.15808407962322235,0.19249138236045837,1.156793656368612,1.5186750081921758,-0.16194717586040497,0.9767167568206787,1.1155692667894967,1.8075972075246531,0.2447841614484787,0.37602701783180237,1.1142395404066079,1.851422741679799,-0.10022421926259995,0.9762296676635742,1.2214846576107514,1.1882298863433542,0.16996774077415466,0.024619504809379578,1.1483208645993312,1.3466518644605527,-0.16007262468338013,0.441790908575058,0.0012642741203308105,0.9826233478852013,1.2355157680889766,144.74831838826853,141.9311193260096,1.0,0.0472662327902925,-0.10257460464982578,-0.1277458437370474,0.05481746397784218,75.6773129813727,0.8654030631665903,51,1.7
1.2541333409952335,0.7587918025849072,-0.16532368957996368,0.9999410510063171,1.1517412791773063,0.8673657664561729,0.197171151638031,0.9996150135993958,1.1561871655600344,0.8742053486825653,-0.19435423612594604,0.9999147057533264,0.9532292631048105,1.1905770291577618,0.1310587078332901,0.9999435544013977,0.9698329691602243,1.1934391862090172,-0.13114066421985626,0.9999650120735168,1.1052580457696075,1.4574158617976263,0.13705608248710632,0.1907372921705246,1.1252820896382782,1.4739648371025165,-0.17619267106056213,0.977096676826477,1.0825365838013137,1.7587918025849072,0.22519700229167938,0.38264939188957214,1.084416017121188,1.7989514171346368,-0.12887176871299744,0.977269172668457,1.2480320468286263,1.043381196518687,0.5032869577407837,0.06791917979717255,1.1228167153422077,1.2935245382373868,-0.2047961950302124,0.4773147404193878,0.0033556222915649414,0.9615311161325174,1.1920081076833895,146.01658962709365,143.84047161814448,1.0,0.03999529875054437,-0.07519684254008138,-0.044292667130508556,0.18180325661278612,68.2228736073213,0.8721600030935279,52,1.7333333333333334
1.2304358325380838,0.7248104304753817,-0.15247555077075958,0.9999461770057678,1.1291590833784884,0.8329583980228763,0.1868971437215805,0.9996166229248047,1.1356204894464677,0.8433671416563303,-0.22058343887329102,0.999919056892395,0.9421299416530604,1.1601310611782127,0.13109852373600006,0.9999397397041321,0.9582148365306511,1.1667996408592907,-0.13118179142475128,0.9999644160270691,1.0850883868150942,1.428941927004597,0.14066597819328308,0.18533262610435486,1.105656692916017,1.4446651631065563,-0.1607271134853363,0.9764772057533264,1.0589475162765842,1.7248104304753817,0.21824495494365692,0.38126569986343384,1.0664557696568346,1.76704604141169,-0.10595206916332245,0.9778013229370117,1.2153992767182507,1.151465690659364,0.13863520324230194,0.06657124310731888,1.1066960218310389,1.2507932654971023,-0.26842138171195984,0.5236988663673401,0.005198687314987183,0.9501723890918558,1.1634653510187518,146.94600963083812,145.11552248902254,1.0,0.04250625273483974,-0.05606766675126891,0.024206125635099156,0.13386360152537047,82.7636726308946,0.877465686878307,53,1.7666666666666666
1.202339514654255,0.6933050968282453,-0.1479310691356659,0.9999499320983887,1.1079781448559902,0.7974122566270065,0.17653298377990723,0.9996354579925537,1.1146854770436194,0.8032444009217279,-0.2364828884601593,0.9999251365661621,0.937817358160815,1.1240901576551223,0.13148817420005798,0.9999387264251709,0.9473423441452098,1.1315036173358577,-0.13155192136764526,0.9999653697013855,1.0697560789519684,1.4002998082556208,0.1402835100889206,0.18770070374011993,1.0856312313920022,1.4192338698359153,-0.16665694117546082,0.9779667258262634,1.0440482330199632,1.6933050968282453,0.21730510890483856,0.3978159427642822,1.0480675927504322,1.7384429929796863,-0.10606451332569122,0.9794208407402039,1.126133883999485,1.171134773837326,0.10787060111761093,0.06922227144241333,1.088859025132689,1.2254550229895773,-0.2814227044582367,0.5692360401153564,0.002966076135635376,0.9425798511530125,1.12779688749549,149.45310771250666,147.61859338377255,1.0,0.06937230239140486,-0.10872209076912523,0.20289607456316489,-0.3940661323299262,100.38001661246194,0.8477773921628282,54,1.8
1.1610267107312635,0.6498744989164976,-0.14967577159404755,0.9999534487724304,1.0780046450966656,0.7661108758825017,0.18306860327720642,0.9996585249900818,1.07719864658847,0.7606134825487296,-0.24720843136310577,0.9999310970306396,0.9265233377506643,1.0836815293262922,0.13551251590251923,0.9999392628669739,0.9251033754665594,1.0876131097687178,-0.13555492460727692,0.9999667406082153,1.042763991024543,1.3573807420409072,0.12139614671468735,0.18042370676994324,1.0543681800729299,1.3786883868136,-0.1916908621788025,0.978768527507782,1.018771509115891,1.6498744989164975,0.19705618917942047,0.38807472586631775,1.0175645639813773,1.6914220799117643,-0.1516428291797638,0.9801252484321594,1.08883716013473,1.1533507951138793,0.13626359403133392,0.07187119126319885,1.0605209318428366,1.1750321321773693,-0.3270631432533264,0.6094298362731934,0.0028734207153320312,0.9258133566086119,1.0856473195475052,152.29964130842168,149.34237689279863,1.0,0.06453838415481748,-0.08690584694654008,-0.02199901446008154,0.1402892844166301,174.3569562034115,0.836136498302224,55,1.8333333333333333
1.1493340283432163,0.6373561629528254,-0.09282050281763077,0.9999539852142334,1.068596129609994,0.7638239665427158,0.18759356439113617,0.9996844530105591,1.0677756213597014,0.7495443521465338,-0.23048794269561768,0.9999371767044067,0.9237714472289639,1.071861424469049,0.1361149251461029,0.999942421913147,0.9247982983190438,1.069251065968015,-0.13613758981227875,0.9999690055847168,1.0337585141867913,1.3456342090529485,0.1200186237692833,0.17253458499908447,1.0431281416178013,1.365030322897422,-0.18352514505386353,0.9798325300216675,1.011299885813073,1.6373561629528255,0.193739116191864,0.3749487102031708,1.009074504580681,1.6771873995039968,-0.14998342096805573,0.9809983968734741,1.0710560710231036,1.1500956138094423,0.15174445509910583,0.07489717751741409,1.0519440532123634,1.1624203149926084,-0.28193867206573486,0.6459823846817017,0.007525771856307983,0.9242848727740038,1.070556245218532,153.71009901865273,151.96970719142806,1.0,0.04582346455593249,-0.04620571453500206,-0.13664811573675872,0.3004830667729714,3.7072355007196656,0.8232579721044951,56,1.8666666666666667
1.124891495874678,0.6079583015509789,-0.10576821863651276,0.9999576210975647,1.0486829059231206,0.7348789827870099,0.1929844617843628,0.9997080564498901,1.042910786237158,0.7251695706578642,-0.2284364253282547,0.9999426603317261,0.9119965758329752,1.0460148536013154,0.13661064207553864,0.9999443888664246,0.9141356254378747,1.0429607497637836,-0.13663466274738312,0.9999709129333496,1.0137284226958765,1.3151792524790236,0.12533994019031525,0.17000962793827057,1.0198924784907017,1.3354672200404816,-0.17194686830043793,0.9812335968017578,0.9957401097199045,1.6079583015509789,0.20786459743976593,0.3764481842517853,0.9914899900850157,1.6461668537523164,-0.13850930333137512,0.9823759198188782,1.0503112727708772,1.1232373700531946,0.15148745477199554,0.08388917148113251,1.0351189187448717,1.1289020126418825,-0.2889150381088257,0.6799970865249634,0.005212336778640747,0.913066100635425,1.0444878016825496,155.77987104979857,154.8991910964783,1.0,0.04224042694569828,-0.04861842699018333,-0.020488295092077325,-0.02429647199012895,11.290281522028835,0.8250191223423755,57,1.9
1.1036698877416984,0.5863050172677279,-0.13736708462238312,0.9999611377716064,1.0343410610075277,0.717083934496752,0.18417197465896606,0.9997303485870361,1.0221395335796908,0.7022224848224262,-0.2373240441083908,0.9999474883079529,0.9088376334177573,1.0296431701301054,0.13645698130130768,0.999946653842926,0.9048750474487417,1.0251322267472691,-0.1364874541759491,0.9999727010726929,0.989534554402378,1.2996140799171516,0.13405758142471313,0.1673513799905777,1.001906820637514,1.316042789182147,-0.16828598082065582,0.9824360013008118,0.980933545915378,1.5863050172677278,0.22060318291187286,0.37900835275650024,0.9769043729066973,1.6217927333826456,-0.13397595286369324,0.9835384488105774,1.0283914871098223,1.0983074406855136,0.14971904456615448,0.08872336894273758,1.0252027564405986,1.104382850946007,-0.32023948431015015,0.7090334892272949,0.008088260889053345,0.9068563404332495,1.0273876984386872,161.63967103602752,156.87922242267393,1.0,0.04605328260736008,-0.02129142501327404,0.0324710702182771,0.19731788061705105,63.17449465055483,0.8311141525018549,58,1.9333333333333333
1.0813943285907706,0.5655985364941775,-0.1752680242061615,0.9999648332595825,1.017858790705917,0.6896094760489233,0.17524322867393494,0.9997503757476807,1.0039989237656533,0.6788414056312125,-0.2512385845184326,0.9999518990516663,0.9010971431164765,1.0091175202523315,0.13733485341072083,0.9999492764472961,0.900233130080642,1.006268632847407,-0.1373872011899948,0.9999745488166809,0.9708524186638053,1.2859354756447952,0.1494000256061554,0.16864724457263947,0.9854879091122255,1.301369389345064,-0.16744770109653473,0.9835529327392578,0.967652026205658,1.5655985364941774,0.2446480095386505,0.38422346115112305,0.9638138892580791,1.6009809292570416,-0.13170908391475677,0.9844567775726318,1.0102181751776704,1.071202518993483,0.14095571637153625,0.0909324586391449,1.0130462078407345,1.0798040734821692,-0.34749090671539307,0.7340226173400879,0.005939781665802002,0.9006651365985592,1.0076930765498693,165.20086141733356,159.74837127716273,1.0,0.04482809774901071,-0.045252428779340534,-0.0046214126914155326,-0.1836270226394823,36.94597126998787,0.8245097497912313,59,1.9666666666666666
1.0623534186890207,0.5449106595329962,-0.17177465558052063,0.9999680519104004,1.0025742019240378,0.676780655959687,0.1712840348482132,0.9997686743736267,0.9868298717978612,0.6609271043320385,-0.25079888105392456,0.9999558925628662,0.8976829301412981,0.9932662036393544,0.1372622549533844,0.999952495098114,0.8965829250243748,0.9907010190254038,-0.13732053339481354,0.9999765157699585,0.9574380296035623,1.2709932716460395,0.17200800776481628,0.17038172483444214,0.9730649746280106,1.286001383756922,-0.15676559507846832,0.984603762626648,0.9573765624957481,1.5449106595329962,0.2835678160190582,0.3913121223449707,0.9533978478295307,1.5816486748209118,-0.1230924129486084,0.9854525327682495,0.9991029110384735,1.052884175960054,0.14033465087413788,0.08866310119628906,1.0026723785545744,1.06206273049165,-0.3542778193950653,0.7536232471466064,0.008854955434799194,0.8971329275828364,0.9919836113323791,167.8446300904113,161.6737624965238,1.0,0.060544286648066506,-0.02527663077558457,0.1287374416110729,0.15358567499959325,41.54716662070919,0.8299820518501703,60,2.0
1.0350653142609012,0.5249294888795952,-0.18931041657924652,0.9999711513519287,0.9864308438880054,0.6662573033420169,0.15860383212566376,0.9997861385345459,0.9647813720615274,0.6385974611887215,-0.24632644653320312,0.9999598264694214,0.8971585548979399,0.9817269062975252,0.1330157220363617,0.9999542236328125,0.8949925645500634,0.9770198076002912,-0.13310031592845917,0.9999780654907227,0.9460646697112339,1.2573837394986715,0.17262575030326843,0.1689944565296173,0.9606174568748646,1.273012988882282,-0.1411936730146408,0.9852674007415771,0.9457926037899352,1.5249294888795952,0.2845907509326935,0.39501631259918213,0.941893694719487,1.5615939016771463,-0.10019396245479584,0.9861437082290649,0.9920779503636695,1.025896840231448,0.12726718187332153,0.0928451418876648,0.993436383306111,1.0315429983750857,-0.3631305694580078,0.7769767045974731,0.015646308660507202,0.8960755597240017,0.9793733569489081,169.8811960946282,163.7868449542446,1.0,0.07756676466394571,-0.0009197261403605073,0.1347519712117275,0.18213722138314095,40.51028285389669,0.8397514600093396,61,2.033333333333333
1.0255621120331246,0.5188609691582616,-0.2696942389011383,0.9999738335609436,0.9742634745513564,0.6483177526988824,0.07695034891366959,0.9998025298118591,0.9556145667104292,0.6284794859862441,-0.3249824047088623,0.9999635815620422,0.9011816299017634,0.9745582563107984,0.12873278558254242,0.9999556541442871,0.894941575441122,0.9721538278051609,-0.12878504395484924,0.9999794960021973,0.942704615821658,1.2519145204258102,0.16526097059249878,0.19069330394268036,0.954690973166517,1.2685553652667647,-0.12379859387874603,0.9862921833992004,0.94189026678169,1.5188609691582617,0.26927241683006287,0.4207909107208252,0.9320554279957773,1.5549950842596771,-0.06554313004016876,0.9870728254318237,0.9926327122645111,1.0091670410905729,0.0520407035946846,0.09473905712366104,0.9917746024578334,1.0184027666459214,-0.42495861649513245,0.7990133166313171,0.011267691850662231,0.8980616026714426,0.9733560420579797,171.310702910912,164.08456586495473,1.0,0.04343070619669677,-0.015710391558436697,-0.26096050803455606,-0.11415347089237829,81.55374369205613,0.8355948128916274,62,2.066666666666667
1.010693608468422,0.5088126396187295,-0.28111356496810913,0.999976396560669,0.9602840914627845,0.6394305517868201,0.07967667281627655,0.9998186230659485,0.9456931574361208,0.6228508545355428,-0.3271642029285431,0.9999670386314392,0.9009658657399564,0.970508011412394,0.12896373867988586,0.9999570846557617,0.8994310531075291,0.970454231477698,-0.12902188301086426,0.9999809265136719,0.93648647035983,1.2458810797447517,0.18094056844711304,0.22835595905780792,0.9470528726067473,1.2655861103521528,-0.10661951452493668,0.9874650835990906,0.9353868999895931,1.5088126396187294,0.29379111528396606,0.4617047607898712,0.9310609504363184,1.5441959803355128,-0.03985033556818962,0.98818039894104,0.9868363708487115,0.9975985070439989,0.06273259967565536,0.10698740929365158,0.9892316624362738,1.0060268442127136,-0.42930954694747925,0.8190441727638245,0.009481698274612427,0.9001984594237428,0.970481121445046,172.4103471174959,167.54877229724744,1.0,0.06970738798214869,0.031821430077074636,0.2238647680296634,0.39952070090677855,98.15092250657668,0.852249727796888,63,2.1
0.9995886643437139,0.5038976092706131,-0.2914154529571533,0.9999787211418152,0.9522356537142955,0.6308820752057912,0.07715953886508942,0.9998342990875244,0.9377469955793237,0.6191278613793123,-0.32882189750671387,0.9999702572822571,0.9042903446787054,0.9674027533043367,0.12924033403396606,0.9999581575393677,0.9040386698120829,0.9697237317605213,-0.12929341197013855,0.9999821782112122,0.9339637674439024,1.2422005340557296,0.20580418407917023,0.26257938146591187,0.9446455055072062,1.2630689734091787,-0.10541889816522598,0.9885157346725464,0.9307127765780271,1.5038976092706131,0.3276204466819763,0.49590998888015747,0.9288138886702407,1.5396103975387403,-0.04025665298104286,0.989150881767273,0.9831037527559411,0.9877926778927997,0.07908909767866135,0.11508119851350784,0.9883653369307668,0.9962552712609799,-0.43901219964027405,0.8370591998100281,0.006742298603057861,0.9041645072453942,0.968563242532429,173.1251908420458,168.84228670881646,1.0,0.048833978715226184,0.007278247182302675,-0.1513675274304256,-0.17908147668699523,178.08011231220712,0.8565834995328957,64,2.1333333333333333
0.9909162469588905,0.4975400044159073,-0.25647562742233276,0.9999808073043823,0.939294414994716,0.6256094376257235,0.11079015582799911,0.9998481869697571,0.9315517816861523,0.6146230058836688,-0.3045189678668976,0.9999731183052063,0.9051003108310369,0.964966169887444,0.13330145180225372,0.9999586939811707,0.9053647686335664,0.967380433723212,-0.1334100216627121,0.9999832510948181,0.9312794605060828,1.2385113467503248,0.1990177184343338,0.294372022151947,0.9407825591941611,1.2599022168309801,-0.11133243888616562,0.9894249439239502,0.9267650540741711,1.4975400044159073,0.3211069703102112,0.5336299538612366,0.925959161341815,1.5319123796256577,-0.04262672737240791,0.9900685548782349,0.9784071652751593,0.9774152415846857,0.09714408218860626,0.1348867416381836,0.9858550253914669,0.9889514372288298,-0.4298960566520691,0.8533159494400024,0.006329089403152466,0.9052325397323017,0.966173301805328,173.53479801549645,169.97708651713532,1.0,0.03719442141668389,0.013305864708335141,-0.08582764193166285,0.04549721746864019,167.99496878119322,0.8678241937142479,65,2.1666666666666665
0.9923296738845564,0.49782584348944253,-0.23636634647846222,0.9999827146530151,0.9283956920797559,0.6224032520694301,0.11766348034143448,0.999859094619751,0.9334334394252679,0.615787626242328,-0.29749298095703125,0.9999756813049316,0.9043773819313272,0.9683072176979445,0.1341283768415451,0.9999587535858154,0.9144878069940451,0.9710243238213371,-0.134259432554245,0.9999842047691345,0.9331061097107003,1.2433752917580025,0.22065143287181854,0.330697238445282,0.9425224879815423,1.2676541804062484,-0.10047570616006851,0.990281879901886,0.9281251630882988,1.4978258434894425,0.3579797148704529,0.567794919013977,0.9279057340174504,1.5380264516199582,-0.01982426643371582,0.9908825755119324,0.9592897919512857,0.9814895461015866,0.12193521112203598,0.14131802320480347,0.9890418656052394,0.9938153030165693,-0.40242189168930054,0.8679514527320862,0.003804326057434082,0.9094325944626861,0.9696657707596408,172.9160782683345,171.50648722305624,1.0,0.01915002340525016,0.013081145217926896,-0.13456292400196304,-0.0018468439931995759,101.07039293403938,0.8732897658223788,66,2.2
0.9945731514218729,0.5005833451708711,-0.24232296645641327,0.9999844431877136,0.9293051126434025,0.6220574900336621,0.11638426780700684,0.9998672604560852,0.9360841251451456,0.618997645090202,-0.29101288318634033,0.9999779462814331,0.9124501617941624,0.974500197437097,0.13381639122962952,0.9999580979347229,0.9228275077443561,0.9814111995704603,-0.13396784663200378,0.9999849796295166,0.938643535466349,1.2532190326755137,0.2488764077425003,0.35914164781570435,0.9482712720552876,1.279856750589379,-0.06252053380012512,0.9908279776573181,0.9334143064354068,1.500583345170871,0.4108840823173523,0.5955570936203003,0.9342937160268098,1.546519698748783,0.04238646849989891,0.9914059638977051,0.9554670006372722,0.9800027888804469,0.12189288437366486,0.1398499310016632,0.9964825180202077,0.9987444825128073,-0.38681674003601074,0.8811119198799133,0.0017493367195129395,0.9176388347692592,0.9779556985037787,173.42019862820723,172.12656995127585,1.0,0.02327822396448817,0.021112270152007222,0.03238376423293099,0.06414044653438888,120.9244449074399,0.8858519127457877,67,2.2333333333333334
0.9879581669024882,0.4985731524914064,-0.26744434237480164,0.9999859929084778,0.9229352452205163,0.620901840490159,0.10737244784832001,0.9998757839202881,0.932566192660794,0.6191484549086521,-0.3114894926548004,0.9999799728393555,0.9143755133710418,0.9738430200222904,0.13610588014125824,0.9999555945396423,0.9276453253165478,0.981234313915612,-0.13628092408180237,0.9999851584434509,0.9379886816095568,1.2504339875232686,0.25175195932388306,0.3690248131752014,0.9471289371544845,1.2767194176068037,-0.05752643197774887,0.9907956719398499,0.9316748488551337,1.4985731524914063,0.4048328995704651,0.6102358102798462,0.9342163705600268,1.5440011874868778,0.04243620112538338,0.9913761615753174,0.956192476550309,0.9817473856916367,0.12167872488498688,0.13876080513000488,0.9965354903790975,0.9992373144851019,-0.41380152106285095,0.8929361701011658,0.0010040104389190674,0.9210104193437948,0.9775386669689512,173.66280668805877,173.4616601649976,1.0,0.035409869043819854,0.008286293876371916,0.08936475709441302,-0.09394877270494366,117.7285376062151,0.8892046605129488,68,2.2666666666666666
0.9818248776195759,0.4951497135272541,-0.2875995635986328,0.9999873638153076,0.9194167145258998,0.6204191861440291,0.09272004663944244,0.999884843826294,0.9266236583343409,0.6193045154907398,-0.3326892554759979,0.9999818801879883,0.9129789100803095,0.9715170811908723,0.13871662318706512,0.9999570250511169,0.9249525867839784,0.9805086816553669,-0.13890977203845978,0.999985933303833,0.9345451292884542,1.247208171025945,0.25425130128860474,0.3857521116733551,0.9449017237058916,1.2727998090025956,-0.05395931750535965,0.9907703995704651,0.92834186666531,1.495149713527254,0.40620946884155273,0.6285884976387024,0.932229508984774,1.539982709938162,0.04502576217055321,0.9913504123687744,0.9534626559634335,0.978823593661432,0.10847260802984238,0.13482414186000824,0.9960841690551292,0.9986481399738121,-0.44485050439834595,0.9035456776618958,0.0006399154663085938,0.918965748432144,0.9760128814231196,174.09390039518487,173.38011968800961,1.0,0.002578656264581673,0.007972155824848344,-0.26599772307259284,-0.0023795427814311235,125.85414983503415,0.8952891379525579,69,2.3
0.9760239653258908,0.4924024286278991,-0.2975549101829529,0.9999886155128479,0.9145652748714468,0.6184587246501241,0.08158085495233536,0.999891459941864,0.9214256215245924,0.6167159865632188,-0.3297751843929291,0.9999834895133972,0.9136238331370833,0.968684672218369,0.13859823346138,0.999958872795105,0.9241645868605711,0.9781631353289643,-0.1387595683336258,0.9999867677688599,0.9313798236278906,1.2427817239040788,0.2455877959728241,0.4178520441055298,0.9417753103775302,1.2679079439875796,-0.05221975967288017,0.9910093545913696,0.9252488123726489,1.4924024286278992,0.3925434947013855,0.6526227593421936,0.9293356358769488,1.5347772394587935,0.05033721402287483,0.9914984107017517,0.9514355641384471,0.9779595132459631,0.10395882278680801,0.12698163092136383,0.9948584906709684,0.997106921303945,-0.4323597550392151,0.9129248857498169,0.001003950834274292,0.9188942099988272,0.9734239037736666,174.88658521693623,173.85301764989936,1.0,0.02126004739518491,0.005378839086807888,0.12793148412598065,-0.017562061983403477,131.80851528617373,0.8966542696885798,70,2.3333333333333335
0.9763316855571963,0.49453416390800964,-0.31338202953338623,0.9999897480010986,0.9165569310830173,0.618172440369639,0.055532436817884445,0.9998980760574341,0.9199904938380735,0.6154139041281212,-0.34515196084976196,0.9999849200248718,0.9214035831523153,0.9743630695545912,0.1380109190940857,0.9999595880508423,0.9256143864333489,0.9827514500933744,-0.13820545375347137,0.9999871850013733,0.9344165913992006,1.2439240368231284,0.2639131247997284,0.4285336136817932,0.9420444996854396,1.2686388157375836,-0.04529441520571709,0.9901619553565979,0.9268490281957482,1.4945341639080096,0.42140501737594604,0.6625609993934631,0.9296315265070175,1.536755227302227,0.0594853051006794,0.990465521812439,0.9580605814947405,0.9770188742443667,0.07925054430961609,0.12276529520750046,0.9953500128660271,0.998656778491729,-0.46095889806747437,0.9213252067565918,0.0015884935855865479,0.9235089847928322,0.9785572598239828,175.5065922243409,174.0600690095144,1.0,0.033364408434811005,0.03726669982355673,0.09501392166943887,0.2504646678547491,154.12381240624245,0.9065124345234457,71,2.3666666666666667
0.9813267034807662,0.49922117885904443,-0.30172476172447205,0.9999907612800598,0.9158098247233768,0.621892087582871,0.05342590808868408,0.9999050498008728,0.9249087440056776,0.6190604551394342,-0.34618905186653137,0.9999862313270569,0.9256108532145524,0.9828939152511538,0.1375383734703064,0.9999603629112244,0.9369256291600621,0.9935522450904103,-0.1377495527267456,0.9999876618385315,0.939901324011542,1.2501184484239416,0.30270904302597046,0.4398764669895172,0.9462990471389882,1.2765303406353037,-0.008194541558623314,0.9896673560142517,0.9303310034055937,1.4992211788590444,0.48867496848106384,0.6708454489707947,0.9340346034783634,1.5443162491266542,0.13497710227966309,0.9893442988395691,0.9626208498974764,0.9833504422611911,0.08728496730327606,0.11697174608707428,1.001037041305553,1.0042917075493591,-0.44435063004493713,0.928757905960083,0.001622617244720459,0.9312682411873072,0.9882230801707821,174.73871275881393,175.4805358908344,1.0,0.023932276354772703,0.036078321626550475,-0.07123294360706162,-0.010180123064139127,134.84396989975085,0.9212990813059301,72,2.4
0.982217076285355,0.5021031177318418,-0.3173028230667114,0.9999916553497314,0.9158379749026522,0.6259693360093412,0.03857767954468727,0.999911367893219,0.9263872732345094,0.62255436324937,-0.35285720229148865,0.9999873638153076,0.9332436638619871,0.992017967621363,0.13525760173797607,0.9999606013298035,0.9434151002818337,1.0016039532613559,-0.13548192381858826,0.9999878406524658,0.9488005993945638,1.2559698262368288,0.30662158131599426,0.44303998351097107,0.9504738534713175,1.2841422278508374,0.005828689783811569,0.9883425235748291,0.934734415338915,1.5021031177318418,0.4959624409675598,0.6743040084838867,0.9386516360898159,1.5470695214700303,0.16169999539852142,0.9873249530792236,0.9696583678853122,0.9887835114649994,0.08944679796695709,0.11292161047458649,1.0084127845057174,1.0097194654910684,-0.4578445851802826,0.9354787468910217,0.0019473433494567871,0.9383293820719104,0.9968109604413594,173.35615438449267,175.9943536128183,1.0,0.018972027505436227,0.02845585604420531,-0.038600499545936424,-0.05929174745620387,136.02508719674145,0.9410191589709769,73,2.433333333333333
0.9817792984606516,0.5043743372563412,-0.32895857095718384,0.9999924898147583,0.9182753051494498,0.6282163932637149,0.03123270347714424,0.9999174475669861,0.9255992166238379,0.6246084808041891,-0.35903400182724,0.9999884366989136,0.9405517137872204,0.9961786899082087,0.134078711271286,0.9999613165855408,0.9468679694971781,1.004369702731076,-0.1343003213405609,0.9999881982803345,0.952248627146263,1.2578146605692024,0.2983284592628479,0.4485692083835602,0.9524001787408094,1.2864163321298754,-0.012505406513810158,0.9876716732978821,0.9365551296156271,1.5043743372563412,0.4775422513484955,0.6796687245368958,0.9405295099599613,1.5495300093889721,0.12197728455066681,0.9862463474273682,0.9791638551855912,0.9914479131465876,0.07087134569883347,0.10954445600509644,1.0121275314523235,1.0121030234543111,-0.4633036255836487,0.941580593585968,0.0020532608032226562,0.9437098416421993,1.0002741963196424,173.7982347562438,176.29310322462655,1.0,0.027035820150711282,0.011345745863548706,0.06190739608054046,-0.1324171647400371,145.82791013472215,0.9442836108128309,74,2.466666666666667
0.9800261829415705,0.5052142733070819,-0.3295965790748596,0.9999932050704956,0.9184844317729661,0.6290783294461918,0.029256140813231468,0.9999234676361084,0.9234233818948395,0.6253384704644643,-0.3628085255622864,0.9999894499778748,0.946054256268055,0.9967123603976303,0.13307598233222961,0.999962568283081,0.9484975923888435,1.004255880423411,-0.1332879513502121,0.9999886751174927,0.9590778391446291,1.2545395324492679,0.28961458802223206,0.4489120841026306,0.9535063161946397,1.284919581114841,-0.02364407666027546,0.9867849946022034,0.940026270944415,1.505214273307082,0.4644745886325836,0.6826857924461365,0.9404625136168687,1.5500060449573008,0.1031590923666954,0.985198438167572,0.9846232839183392,0.992062248183527,0.0728357583284378,0.10682158917188644,1.013085184867785,1.012648627899458,-0.47354698181152344,0.9471065998077393,0.002127736806869507,0.9472759243284492,1.0004841204105206,172.76209541304337,176.16059317815203,1.0,0.02553684479975061,-0.0006129037711390211,-0.011683342964953802,-0.09275061202690407,166.34166051729412,0.9415313299136518,75,2.5
0.981478253526222,0.5091860415071215,-0.3337065875530243,0.9999938607215881,0.9210639285260288,0.6311984411878044,0.02746221423149109,0.9999281167984009,0.925790414086947,0.6276966945973645,-0.3653417229652405,0.9999903440475464,0.952028499538161,1.0008719683230562,0.13289937376976013,0.999963104724884,0.9549127792572751,1.007352480201516,-0.1331113576889038,0.9999890327453613,0.964389503147268,1.256221372856398,0.28510382771492004,0.448714017868042,0.9580927073694172,1.28648828512949,-0.03107418119907379,0.9861785769462585,0.9446319295745138,1.5091860415071217,0.4525194764137268,0.6870039105415344,0.9440452572211963,1.553770302639169,0.08901666104793549,0.9844334721565247,0.9880519897646589,0.9955699510876902,0.06523330509662628,0.10268699377775192,1.0172984789137165,1.0161445778447316,-0.47780776023864746,0.9520758986473083,0.001985907554626465,0.953470639397718,1.004112224262286,172.76261032816,176.33880522872465,1.0,0.022560317479370002,0.0030298915485150275,-0.02182324326073642,0.02600809857994136,160.79562957339607,0.939844632280951,76,2.533333333333333
