nose_x,nose_y,nose_z,nose_visibility,left_shoulder_x,left_shoulder_y,left_shoulder_z,left_shoulder_visibility,right_shoulder_x,right_shoulder_y,right_shoulder_z,right_shoulder_visibility,left_hip_x,left_hip_y,left_hip_z,left_hip_visibility,right_hip_x,right_hip_y,right_hip_z,right_hip_visibility,left_knee_x,left_knee_y,left_knee_z,left_knee_visibility,right_knee_x,right_knee_y,right_knee_z,right_knee_visibility,left_ankle_x,left_ankle_y,left_ankle_z,left_ankle_visibility,right_ankle_x,right_ankle_y,right_ankle_z,right_ankle_visibility,left_wrist_x,left_wrist_y,left_wrist_z,left_wrist_visibility,right_wrist_x,right_wrist_y,right_wrist_z,right_wrist_visibility,trunk_lateral_inclination,center_mass_x,center_mass_y,left_knee_angle,right_knee_angle,person_height,center_mass_velocity_x,center_mass_velocity_y,center_mass_acceleration_x,center_mass_acceleration_y,body_orientation,torso_leg_ratio,frame,timestamp
1.3043429205223303,0.8914029859131712,-0.2645004093647003,0.9998655915260315,1.382882312075419,1.0244855252189071,-0.08252320438623428,0.9999843239784241,1.2274742629484778,1.0162306376911228,-0.12293308973312378,0.9999943971633911,1.3395292001452719,1.3750403811517684,0.009689828380942345,0.9999600052833557,1.259534234959111,1.3693636362654154,-0.009854570962488651,0.9999734163284302,1.3244533129059628,1.6562639057406292,0.013045037165284157,0.9807218313217163,1.2591269892106502,1.6498144975164724,-0.019452068954706192,0.9157355427742004,1.3163787803742277,1.904486247564976,0.14097699522972107,0.9744028449058533,1.2572850839086762,1.8914029859131711,0.1056714802980423,0.897634744644165,1.4165362302086053,1.391586890900585,-0.10068859905004501,0.6826995015144348,1.1970021403360978,1.3878927390174458,-0.2280072718858719,0.9717138409614563,0.003187805414199829,1.2995317175521914,1.3722020087085918,178.79455597600844,179.6463769857328,1.0,0.018454351960437192,-0.018299472214411843,-0.3263209359037022,-0.09560662252246273,92.99085159707586,0.9142886642456258,0,0.0
1.3238660397488267,0.9049145348257837,-0.17077483236789703,0.9998642802238464,1.401189888959124,1.0456330573433168,-0.017473813146352768,0.999983549118042,1.224467092695917,1.028148348185454,-0.052091680467128754,0.9999927282333374,1.3585294113751352,1.3868765964117584,0.012089933268725872,0.9999634623527527,1.2595099061189314,1.3827585231626622,-0.012265432626008987,0.9999754428863525,1.3437381935749986,1.6665467048830263,-0.004687910433858633,0.978121817111969,1.2544812504718674,1.6656661194238125,-0.022527839988470078,0.9153041243553162,1.3366138816638686,1.9167933225723537,0.13715365529060364,0.9742812514305115,1.2614647715561702,1.9049145348257837,0.1128372773528099,0.9041324853897095,1.4383717568147396,1.4071098043007506,-0.055320776998996735,0.6773318648338318,1.1926036431243159,1.397735176584187,-0.16930285096168518,0.9590049386024475,0.006687939167022705,1.3090196587470333,1.3848175597872103,178.60327876110918,177.30972470028073,1.0,-0.023256706022939517,-0.00428725868348147,-0.3269377818052903,0.11073597781319815,94.7443752874955,0.9125677741296153,1,0.03333333333333333
1.3302992333950754,0.9172841853115798,-0.28379687666893005,0.9998760223388672,1.4103638226612558,1.057859045170948,-0.09427668154239655,0.9999845623970032,1.2349875852388525,1.045755467720561,-0.13193418085575104,0.999992311000824,1.375508578831201,1.3962163109098114,0.013256068341434002,0.9999662041664124,1.273105193202831,1.3937464718969241,-0.013434181921184063,0.9999768137931824,1.3575610610649518,1.6741722164233537,-0.001205522334203124,0.9774391055107117,1.268669785099507,1.6757079546892037,-0.024173812940716743,0.9188319444656372,1.3491898034454466,1.9286502817417774,0.12493659555912018,0.9752482175827026,1.268564722322142,1.9172841853115798,0.1071147471666336,0.9116224050521851,1.448666664625088,1.4184561692305362,-0.10926304757595062,0.7070825099945068,1.2062858949766408,1.4077606528591562,-0.23583261668682098,0.9611926078796387,0.004593789577484131,1.324306886017016,1.3949813914033677,178.18967039886223,179.1236986650399,1.0,0.03927399178395771,-0.004994858611272429,0.4857733247614996,-0.005221916364783404,94.49983921557718,0.9044343677965908,2,0.06666666666666667
1.3391608200565972,0.9325325178051023,-0.31106194853782654,0.9998863339424133,1.4210896696475595,1.0685969870000047,-0.12737858295440674,0.9999855160713196,1.2463130544830072,1.063980935884686,-0.13811436295509338,0.9999920129776001,1.3873472181232624,1.406978619782187,0.008106720633804798,0.9999686479568481,1.2823619478509911,1.40604470365267,-0.00827950518578291,0.9999781847000122,1.3677878754500816,1.688222782311467,-0.007784771267324686,0.9767885804176331,1.280292112874779,1.6901221304785516,-0.017235124483704567,0.9229161739349365,1.361250462543462,1.9422916800457504,0.1393611580133438,0.9758195281028748,1.2792927101725036,1.9325325178051023,0.1195967048406601,0.9186088442802429,1.463728000926156,1.4303395094746876,-0.17376843094825745,0.7324939966201782,1.2119495495244383,1.42026487141074,-0.2297644168138504,0.963267982006073,0.0017372965812683105,1.3348545829871268,1.4065116617174285,177.49567109369497,179.81875697381082,1.0,-0.004911574468832334,-0.0019606285048699335,-0.34083038385369685,0.023553524196090216,95.18487505730172,0.8924792358731668,3,0.1
1.331076574501367,0.9264102162263654,-0.28649574518203735,0.9998948574066162,1.4158891674709355,1.0615041240096936,-0.10621462762355804,0.9999864101409912,1.2411103581227756,1.0595630057014638,-0.1222473531961441,0.9999918341636658,1.3835830525779425,1.3991312242778777,0.008287426084280014,0.9999704360961914,1.2778604961859579,1.3991436734048748,-0.008462164551019669,0.9999789595603943,1.3620287286455122,1.6783249589316696,-0.003611833555623889,0.9747523069381714,1.278722795210364,1.6817563480501712,-0.02462148666381836,0.9256371855735779,1.3534908336999127,1.9331897901715402,0.14408931136131287,0.9753766655921936,1.275923553850708,1.9264102162263654,0.11209049075841904,0.9242667555809021,1.4578483984710267,1.423050567171983,-0.1526944935321808,0.7574507594108582,1.2040572650386834,1.413695442193385,-0.21664512157440186,0.9660695195198059,0.0007342100143432617,1.3307217743819502,1.3991374488413764,177.5040798022298,179.16965238855803,1.0,0.018427027201068345,-0.0027973398742503525,0.17151267742923632,-0.006227058031676976,95.47249798809487,0.8904149915996933,4,0.13333333333333333
1.3270222772391893,0.9219708936829479,-0.27339881658554077,0.9999033808708191,1.4079439094937742,1.0580511268877482,-0.09088502824306488,0.9999871253967285,1.2340303164041788,1.0553836275337376,-0.11499293148517609,0.9999918341636658,1.3780767733229335,1.393021019571424,0.00853574089705944,0.9999721050262451,1.2716145453226388,1.3943331773745742,-0.008711581118404865,0.9999797940254211,1.3593584245563832,1.6696878278284393,-0.008031222969293594,0.9726918339729309,1.2659207289290988,1.6760545255272088,-0.034150443971157074,0.9270749092102051,1.3460053816371556,1.928103771016843,0.12386159598827362,0.9749776124954224,1.2716289137332404,1.9219708936829478,0.09189385920763016,0.928905189037323,1.4523839116827977,1.4179930031336483,-0.12404078245162964,0.7789459228515625,1.199889323980414,1.4118437944915283,-0.20729169249534607,0.9686693549156189,0.0010125041007995605,1.3248456593227862,1.3936770984729991,179.087453499364,177.51245875459819,1.0,-0.009210590850905488,-0.004238075011588472,-0.20918044317175155,-0.011004349895840398,95.8013669286704,0.8873347946842914,5,0.16666666666666666
1.3268971447648137,0.9203718007914145,-0.21317188441753387,0.9999045133590698,1.4071647835889196,1.0564793082440243,-0.050703130662441254,0.999986469745636,1.2330473377539664,1.0531008702263185,-0.08884389698505402,0.9999915361404419,1.376877941961636,1.391207038386384,0.01028699241578579,0.9999736547470093,1.2708527339181916,1.3931135884056651,-0.01046792883425951,0.9999808073043823,1.3584669454832614,1.669015384603314,-0.002882338361814618,0.9678840041160583,1.2650073143261542,1.675437241355502,-0.03511933237314224,0.9250553250312805,1.3420564927247072,1.9281291840632817,0.13454577326774597,0.9727618098258972,1.2673642181359983,1.9203718007914143,0.09374457597732544,0.9308509230613708,1.4467915234629225,1.4138959251220133,-0.09010335803031921,0.7737815976142883,1.1956515752379167,1.410987769442397,-0.17755015194416046,0.9699410796165466,0.0012832880020141602,1.323865337939914,1.3921603133960245,179.83229488649897,178.2625624165698,1.0,-0.0001349813291188263,-0.0038710716886577686,0.06965289088837998,0.002795078054852419,96.20034349348148,0.8861101393432244,6,0.2
1.3272409740004307,0.9200829250290123,-0.19553574919700623,0.9999106526374817,1.405001935466412,1.0562897167708656,-0.03300753980875015,0.9999869465827942,1.2339662393475812,1.0533305513863391,-0.06561761349439621,0.9999915361404419,1.3758319662181693,1.3889010511916158,0.010661421343684196,0.9999752044677734,1.2715968048920434,1.3902646235566853,-0.010848397389054298,0.999981701374054,1.357260273757703,1.660854672161012,-0.015443717129528522,0.9642200469970703,1.2680528815702417,1.6745485970711902,-0.03616514056921005,0.9211678504943848,1.3413269338094018,1.9298354794720942,0.11031768471002579,0.9708520174026489,1.2663211980046851,1.9200829250290123,0.0841498076915741,0.9320491552352905,1.4455481331083198,1.413265729929684,-0.06999790668487549,0.7837451696395874,1.1948044002348444,1.4112815532990584,-0.1566179096698761,0.9708395004272461,0.0011243224143981934,1.3237143855551063,1.3895828373741506,179.48335078853938,179.68986397348243,1.0,0.0013873556701046697,-0.015763577469015376,0.01083948100544181,-0.0846872515426443,95.76149187143584,0.8763688304196177,7,0.23333333333333334
1.3289838665113851,0.9226916622691749,-0.19917413592338562,0.9999101758003235,1.4046813914137772,1.0570128498361433,-0.025682691484689713,0.9999867677688599,1.2352963668696095,1.0540169546765352,-0.06854248046875,0.9999914765357971,1.3748263936188698,1.3900939407888884,0.015384277328848839,0.9999765753746033,1.271963165179685,1.3909323234844435,-0.015577130019664764,0.9999825954437256,1.3600337049001263,1.6644894207771144,-0.00809350237250328,0.960320234298706,1.2662560700893586,1.6760361442027658,-0.04252063110470772,0.9193961024284363,1.3411726852436716,1.9335537352822734,0.12501242756843567,0.9695625901222229,1.2671577358391015,1.9226916622691748,0.07811208814382553,0.9340985417366028,1.4463500634832673,1.4143274247950386,-0.05967556685209274,0.7874537706375122,1.1961772324373232,1.4156259051302222,-0.16790933907032013,0.9724957346916199,0.00113716721534729,1.3233947793992773,1.390513132136666,179.07604210792528,178.64378136651786,1.0,-0.012674055298835165,-0.0033544431725916297,-0.110545036114132,0.09766712832477438,95.58887175917845,0.8696898185209961,8,0.26666666666666666
1.3288587032577923,0.9222439100886933,-0.2524340748786926,0.9999140501022339,1.4055202051791296,1.056818111357728,-0.0685744509100914,0.9999872446060181,1.2327389493980276,1.0544070509487307,-0.113108791410923,0.9999912977218628,1.376589834898991,1.3891114317416546,0.015437995083630085,0.9999775886535645,1.2720493040230307,1.3904195059880933,-0.015632184222340584,0.999983012676239,1.3605069419530085,1.6639833066305456,-0.013546407222747803,0.9596189260482788,1.2684897346467865,1.6751703004199008,-0.04284825176000595,0.9196021556854248,1.3414818630474676,1.9328646943728398,0.11097393184900284,0.9699780941009521,1.265740392706399,1.9222439100886934,0.07765963673591614,0.9372292757034302,1.4468910161294362,1.4133017792274263,-0.09597448259592056,0.8031542301177979,1.1947235615912166,1.4153644332053699,-0.197045236825943,0.9741421937942505,0.0009154975414276123,1.3243195694610108,1.389765468864874,179.30128951638721,179.92134245826665,1.0,0.010900683625488315,-0.0020692069831886534,0.18538066128542693,0.010099192859813548,95.69266340557088,0.8687332933095318,9,0.3
1.3284221779453436,0.9221278827575038,-0.20737166702747345,0.9999144077301025,1.4063073208763808,1.0566636283855804,-0.038628242909908295,0.9999869465827942,1.234357325082266,1.0565852388503245,-0.08141881972551346,0.9999906420707703,1.375335686117943,1.3887764703962195,0.01560337096452713,0.9999788403511047,1.2717940955652396,1.389967300813682,-0.015791896730661392,0.9999837279319763,1.363139875179378,1.6637616242500028,-0.015765439718961716,0.959274411201477,1.2703152091078125,1.673445517468233,-0.0422464944422245,0.9203511476516724,1.3430599131453365,1.9323408072537078,0.10304372012615204,0.9703088402748108,1.266182927120174,1.9221278827575037,0.07385455071926117,0.9401498436927795,1.4458121940532553,1.4100285874629475,-0.084300696849823,0.8040228486061096,1.194163738240785,1.4148438549509543,-0.17545601725578308,0.9726221561431885,2.9772520065307617e-05,1.3235648908415913,1.3893718856049506,178.26376196900338,179.34692588369893,1.0,-0.0032180729349614383,-0.00035425594751194373,-0.10710761044616433,0.013008538082431863,95.98671561549696,0.8682097360168592,10,0.3333333333333333
1.3243050026300662,0.9191334353669802,-0.24874544143676758,0.9999162554740906,1.4024648818909458,1.0536077723619748,-0.06495705246925354,0.9999867677688599,1.2276782112296638,1.0527598027043712,-0.1074589267373085,0.9999905824661255,1.3702754971012978,1.3838978958843997,0.015361758880317211,0.9999796152114868,1.2664002304200788,1.3852571804563243,-0.0155501589179039,0.9999842643737793,1.3587882680903842,1.6580637020200535,-0.01433118712157011,0.9580178260803223,1.2666707425918757,1.6691088859964762,-0.03820459172129631,0.9200742244720459,1.3396216207087857,1.9259173489932255,0.10202844440937042,0.9703078269958496,1.2622321538585668,1.9191334353669802,0.07548023760318756,0.942800760269165,1.4400282333397338,1.3998426338441061,-0.1030113697052002,0.8088786005973816,1.1852977885551772,1.409794979919553,-0.19640743732452393,0.9740806221961975,0.00032323598861694336,1.3183378637606884,1.384577538170362,178.3063187816165,178.92835394563943,1.0,-0.0032276438752826078,0.002000889775856092,-0.00016551651850502696,0.01831592205938309,96.31606293373531,0.8648356319058724,11,0.36666666666666664
1.3216785634162758,0.9185513992255245,-0.24039271473884583,0.999917209148407,1.400471708235386,1.0534976443850528,-0.05802740901708603,0.99998539686203,1.2258285424449624,1.0504563162669112,-0.10253939777612686,0.9999906420707703,1.3689514538484797,1.3813755230635674,0.015223994851112366,0.9999803304672241,1.264619814477034,1.384029418363067,-0.015411661937832832,0.9999849796295166,1.353837594248983,1.6552876386301343,-0.005083444528281689,0.9571352005004883,1.2623458608480214,1.6714856858594824,-0.03862515464425087,0.9221101999282837,1.339047570741604,1.9221507398484212,0.11888636648654938,0.970426619052887,1.2576468040694102,1.9185513992255245,0.07680856436491013,0.9457316398620605,1.4368980404014786,1.3916758517767092,-0.09242285788059235,0.7935696244239807,1.1869338769617932,1.407347177651408,-0.18646815419197083,0.975623607635498,0.0011615455150604248,1.3167856341627568,1.3827024707133173,179.98606283690825,179.36363146339062,1.0,0.006982977707686154,0.00558146752594197,0.07303327305235996,0.02565370663485201,96.94832998829804,0.8628347222469651,12,0.4
1.320058311001151,0.9180777820869502,-0.27513888478279114,0.9999212622642517,1.3996705665370175,1.0530752007402355,-0.07909513264894485,0.9999855756759644,1.2244584627643853,1.0489409152183482,-0.12786903977394104,0.999990701675415,1.368466199945879,1.3805508307073016,0.015612440183758736,0.9999807476997375,1.263497356925429,1.3844562087623626,-0.0157991461455822,0.9999852180480957,1.3543032421465333,1.654025497969216,4.135603739996441e-05,0.9553353786468506,1.2609651898536862,1.6705517285670284,-0.04109601303935051,0.9218979477882385,1.3381422346980385,1.919647010189461,0.12382485717535019,0.9701108932495117,1.2563849361584323,1.9180777820869501,0.07629222422838211,0.9477315545082092,1.4372523871221974,1.396002435444509,-0.09283266961574554,0.8037551641464233,1.1863460320211696,1.4065954655589739,-0.20098260045051575,0.9770973324775696,0.0015808641910552979,1.315981778435654,1.382503519734832,179.4829264336475,179.44701137362657,1.0,0.005673102794068422,0.010677808857837957,-0.009523466443483862,0.03734042284652879,97.57385629342933,0.8653884901964539,13,0.43333333333333335
1.3190925469693442,0.9166216035974462,-0.2965497374534607,0.9999270439147949,1.3985527338352834,1.0524325453544705,-0.10048047453165054,0.9999863505363464,1.2222299565891783,1.0477223158781388,-0.14710259437561035,0.9999908208847046,1.3680350500747054,1.3799142590918976,0.015905866399407387,0.9999814033508301,1.2625032205981868,1.3831743726266945,-0.016087237745523453,0.99998539686203,1.353017972047427,1.6527747833060074,-3.1352548830909654e-05,0.9552222490310669,1.2611737919262709,1.6687874145135084,-0.038523077964782715,0.9219756722450256,1.3391981117347658,1.9177389341258515,0.1194603219628334,0.970683217048645,1.254810847620954,1.9166216035974462,0.07678394019603729,0.949910044670105,1.437914224988011,1.4052361612385036,-0.11113660037517548,0.8191378712654114,1.1865136102927087,1.4066694588250463,-0.2421548068523407,0.9780882596969604,0.0018028616905212402,1.315269135336446,1.3815443158592962,179.83556047567154,178.7959896983004,1.0,0.004342998824088412,0.002981481118011015,-0.009946766848121494,-0.05771774495690199,97.09339048240983,0.8675035708412815,14,0.4666666666666667
1.3199213615199867,0.9166319045878858,-0.28995388746261597,0.9999285936355591,1.3994167134725046,1.0532774378314256,-0.10310371220111847,0.9999862313270569,1.2228356839039596,1.0475363802642552,-0.1377616822719574,0.9999906420707703,1.3681239122168805,1.3801484637315558,0.01346335094422102,0.9999820590019226,1.262498871870936,1.3834873364154456,-0.013638268224895,0.9999858140945435,1.3523336094313225,1.6531704144950587,-0.002475519897416234,0.955256998538971,1.261706086228073,1.6689432745948294,-0.03257884830236435,0.9231634736061096,1.341721448250627,1.9166319045878857,0.12300463765859604,0.9711935520172119,1.255604105229543,1.9172450461409654,0.0866737812757492,0.9526203274726868,1.4375945477278993,1.4062810332829028,-0.1253611147403717,0.8243376016616821,1.1877987011272881,1.4067834449288856,-0.2378082573413849,0.978752613067627,0.0021972358226776123,1.3153113920439081,1.3818179000735007,178.9965818455108,178.75137257385813,1.0,-0.00047209847065888785,0.0011563886439444815,-0.034714300052116155,-0.013158738222386163,97.27906326387419,0.8689286176893211,15,0.5
1.3209399616175195,0.9172693495435992,-0.3200106918811798,0.9999340772628784,1.4024210187918287,1.0550411783616331,-0.12828600406646729,0.9999868869781494,1.2246768565333022,1.0499022902845565,-0.150102436542511,0.9999905228614807,1.3693433478485353,1.3813235136530575,0.009065358899533749,0.9999828338623047,1.2635013005231317,1.384606871827844,-0.009228495880961418,0.9999862313270569,1.3527396713134796,1.6541468081168231,-0.012459836900234222,0.9562281370162964,1.2633705273207274,1.6701884248570398,-0.024707425385713577,0.9248718023300171,1.3420430780021626,1.9172693495435993,0.10792998224496841,0.9722428321838379,1.2570761901978549,1.9188261585371793,0.08962421119213104,0.9554229974746704,1.4390936279237416,1.4080582946098918,-0.1440381109714508,0.8361835479736328,1.1894933317746539,1.4078625244761376,-0.24368353188037872,0.9787232279777527,0.001965135335922241,1.3164223241858335,1.3829651927404507,178.84528336460005,178.57608709473237,1.0,0.00012058268425178138,-2.5071647220667415e-05,0.004542718659471091,-0.009056902675232067,97.56554296699821,0.869930034685164,16,0.5333333333333333
1.3213551074276249,0.9180990661830012,-0.2924095094203949,0.9999372363090515,1.4029323363138304,1.0553844167573123,-0.10712572187185287,0.9999868273735046,1.2255578608530342,1.0501389467552167,-0.13427796959877014,0.9999903440475464,1.3705133498657778,1.3818936987934975,0.00675664097070694,0.9999831318855286,1.2641599077409762,1.3852208740407357,-0.006928546819835901,0.9999864101409912,1.3527820848343928,1.6557820623808717,-0.019376588985323906,0.9554287195205688,1.2636332635195147,1.6713726024629019,-0.025342170149087906,0.9243438839912415,1.3420377630804234,1.918099066183001,0.10261418670415878,0.9722932577133179,1.257590927405271,1.919442379274901,0.0929279774427414,0.9569041132926941,1.4396764322851696,1.4087613639765686,-0.13603170216083527,0.8384795784950256,1.189823159809195,1.4083877623319727,-0.22487077116966248,0.979542076587677,0.0020051300525665283,1.317336628803377,1.3835572864171166,178.6413804160497,178.71014851688923,1.0,0.003152357674800704,0.0005033550665578653,0.023109442030163907,0.0040280204485246525,97.46215658583637,0.8692308644142083,17,0.5666666666666667
1.3236142646201705,0.9202664309373901,-0.3240310847759247,0.999941349029541,1.4071749200419008,1.0570904693881902,-0.12672993540763855,0.999987006187439,1.2277817698579696,1.0513041528541602,-0.1494106501340866,0.9999904632568359,1.3725594846631881,1.383634480920369,0.006697847042232752,0.9999834299087524,1.266315665586501,1.386110950360572,-0.006866942159831524,0.9999866485595703,1.35479950476859,1.6576346210271546,-0.01773865893483162,0.9539335370063782,1.2638662959537956,1.674213924006048,-0.02604605257511139,0.9237812161445618,1.3438817967312946,1.9202664309373902,0.10366679728031158,0.9721724987030029,1.259887466292174,1.922493925777298,0.09155725687742233,0.9581714272499084,1.4422245771199995,1.4104465774934616,-0.15934017300605774,0.8432469367980957,1.1925038339979814,1.4087812279399172,-0.24613416194915771,0.9804853796958923,0.0022080838680267334,1.3194375751248446,1.3848727156404703,178.6718612723624,179.56898151349404,1.0,-0.0011814783005982099,-0.0078186826987136,-0.03202988794418076,-0.06143499978118703,97.38634809752806,0.8655505358492251,18,0.6
1.3249726507677713,0.9212303035901543,-0.3372357487678528,0.9999433159828186,1.4093397374067316,1.0577377890503974,-0.13757188618183136,0.9999871850013733,1.2289926713904757,1.0504519285761065,-0.16539177298545837,0.9999904632568359,1.3733576979472484,1.384699091234913,0.006980691105127335,0.9999839067459106,1.2671482694918865,1.3871225794229676,-0.007171320728957653,0.9999870657920837,1.3565051940486446,1.6623730052332026,-0.003789979964494705,0.95329350233078,1.2647606529929103,1.6769558237413686,-0.026492144912481308,0.9249501824378967,1.3449051182101106,1.9212303035901543,0.1388091742992401,0.9723222255706787,1.260966616196216,1.9238086887014183,0.09505245089530945,0.9599741101264954,1.443038336754039,1.411939223511571,-0.16575202345848083,0.843319833278656,1.1935942697829238,1.4095097957845841,-0.25983625650405884,0.9803981781005859,0.002778381109237671,1.3202529837195676,1.3859108353289402,179.092739349965,179.59144056345545,1.0,-0.0008240051099407163,0.0005839161728942882,0.002847906160143293,0.06683108971128437,97.58726908660715,0.8655477853161411,19,0.6333333333333333
1.3256322304378754,0.9216372601785119,-0.3375453054904938,0.9999452829360962,1.4113778763506715,1.0582395548080572,-0.1377878487110138,0.9999869465827942,1.2305811264620392,1.0505182257723615,-0.16173523664474487,0.9999905228614807,1.3740700308732743,1.385482891148465,0.006925813853740692,0.9999842643737793,1.2678563651076873,1.3877949266428389,-0.007100887596607208,0.9999874830245972,1.3573978528440391,1.6632970073418543,-0.007244897074997425,0.9532089829444885,1.2649841489354965,1.6777802269826458,-0.02222212590277195,0.9257076978683472,1.346340461770601,1.9216372601785119,0.12825119495391846,0.9727181792259216,1.2618052565184146,1.9237522471932516,0.10206659138202667,0.9615117907524109,1.4434975604694478,1.4124026848324513,-0.1628432273864746,0.840916633605957,1.1942874551040288,1.4099212814782014,-0.2570495307445526,0.9809949994087219,0.0029428601264953613,1.3209631979904808,1.386638908895652,179.01654354261777,179.8270409150801,1.0,3.508750322962623e-06,-0.0001268998033471482,0.006192077186663931,-0.005318358322298701,97.75101079164004,0.8670591981363345,20,0.6666666666666666
1.3289476663926962,0.9251461577719561,-0.3705427050590515,0.9999487996101379,1.4163208212558758,1.0606582669127045,-0.1605389267206192,0.999987006187439,1.2337642025297055,1.0526739218520884,-0.17293359339237213,0.999990701675415,1.3768806923641894,1.3884562452891354,0.004654892720282078,0.9999844431877136,1.2706096190929705,1.3907816366175634,-0.004813001025468111,0.9999877214431763,1.3599887726759152,1.666152133219002,-0.010855371132493019,0.953922688961029,1.2662647512408787,1.6810820921281555,-0.01923060044646263,0.9281309843063354,1.3490795874506913,1.925146157771956,0.12466473877429962,0.973503053188324,1.264587078092825,1.926617119020684,0.1100347489118576,0.963353157043457,1.446060222432347,1.4124892069824742,-0.19602206349372864,0.844332218170166,1.1970385190150263,1.4127224043336468,-0.25739315152168274,0.9818270802497864,0.003036677837371826,1.32374515572858,1.3896189409533493,178.93100453870198,179.5340099212591,1.0,-0.00010247322018679651,0.000341577400622655,-0.000796586363293289,0.0035229607700230712,98.1142856395826,0.8657488823090543,21,0.7
1.3341378510240636,0.9250986716133012,-0.34583383798599243,0.9999473690986633,1.4183656813440733,1.0610844423074226,-0.12554973363876343,0.9999864101409912,1.2346475103690706,1.0508139120020117,-0.1596580147743225,0.9999906420707703,1.3769129073292006,1.3885336951991216,0.005711549427360296,0.9999846816062927,1.270674648422504,1.3908398921768674,-0.005876441486179829,0.9999879598617554,1.3597237077284399,1.6660990376427298,-0.010613426566123962,0.9543038010597229,1.2663670830855458,1.6817603327694135,-0.02039342001080513,0.9296936988830566,1.348962552235205,1.9250986716133012,0.12768113613128662,0.9740293622016907,1.2650182360390647,1.9252710682613148,0.1124999076128006,0.9644543528556824,1.4470777161738382,1.409644605093741,-0.1659606248140335,0.8425424098968506,1.1972480949974489,1.4124106309490068,-0.24428316950798035,0.9825985431671143,0.003906041383743286,1.3237937778758524,1.3896867936879944,178.83549447889854,179.46906956483613,1.0,1.2182385851140069e-05,0.00014681336794963672,0.0009141147270485225,-0.0015528426741548342,98.4584340425286,0.8673651512270121,22,0.7333333333333333
1.334698740712068,0.9241278590256696,-0.39283138513565063,0.9999504685401917,1.4204083000936607,1.0605785496688669,-0.17962351441383362,0.9999871253967285,1.2343958906506538,1.0502594347122596,-0.19956009089946747,0.999990701675415,1.3769158794909588,1.391054887246195,0.006032599601894617,0.9999846816062927,1.2702015308707961,1.3924291714177088,-0.006190204061567783,0.9999877214431763,1.3590736826539271,1.6655921570089511,-0.007588865701109171,0.9558764696121216,1.2653544103901084,1.6810144357014998,-0.02146560698747635,0.9325900077819824,1.348196112998648,1.9241278590256696,0.14882293343544006,0.9749765396118164,1.2645651329709617,1.9243139583754654,0.12061289697885513,0.9662560820579529,1.4476644923223836,1.4178287563284353,-0.20530454814434052,0.856036901473999,1.1963044240734233,1.411725073613415,-0.2943008244037628,0.9836615324020386,0.003926396369934082,1.3235587051808775,1.3917420293319518,178.69080055378265,179.22361225261403,1.0,0.0026956922209814345,0.018424410329959517,0.018178982195696202,0.12381868712620223,98.23516222160568,0.8779715886260389,23,0.7666666666666667
1.3324601749920078,0.9208814977752687,-0.3493872880935669,0.9999532699584961,1.4174347933522218,1.058269161227483,-0.14910617470741272,0.9999876022338867,1.2329000212057954,1.0465929889776013,-0.1763075590133667,0.9999909400939941,1.375059809964471,1.3890730001100573,0.008429566398262978,0.9999848008155823,1.2687584659894944,1.3904021365054053,-0.00858151726424694,0.999987781047821,1.357226134895298,1.6633552199148938,0.0014470078749582171,0.9550716876983643,1.2638274732148744,1.6786665708194957,-0.024428410455584526,0.9333994388580322,1.346355407411359,1.92111178129386,0.15391236543655396,0.9744783043861389,1.2628217819110263,1.9208814977752688,0.11380334198474884,0.9667420387268066,1.4462155398979102,1.4164129102384726,-0.1785629540681839,0.8659593462944031,1.1935561133429822,1.4092556609344271,-0.2666171193122864,0.9847263097763062,0.004448622465133667,1.3219091379769827,1.3897375683077313,178.69488093553264,179.25789986860025,1.0,0.0007833477918010191,-0.0013632533172847833,-0.015465670829005868,-0.16012965902468623,98.01602415529588,0.8822878274647195,24,0.8
1.3284976045584722,0.9199643840039149,-0.3385806679725647,0.9999529123306274,1.4161568886191023,1.0576289643413992,-0.14565779268741608,0.9999878406524658,1.2321775984296441,1.0471067670783432,-0.17418172955513,0.9999910593032837,1.375361251031406,1.3882067744657698,0.0060199471190571785,0.9999851584434509,1.2694794131178029,1.38909248393821,-0.006170663516968489,0.9999880790710449,1.3556601955674659,1.6616234906099552,0.0012136982986703515,0.9555975198745728,1.2686424059402728,1.676974016192145,-0.02174999751150608,0.9348306655883789,1.3447333705701334,1.919964384003915,0.1437121331691742,0.9749680757522583,1.2635494592130005,1.9199757973828184,0.1132068857550621,0.9679547548294067,1.4442449014052137,1.4205794947703663,-0.17056019604206085,0.871647298336029,1.19166706079305,1.4093548274879504,-0.24206730723381042,0.985491156578064,0.004011392593383789,1.3224203320746044,1.3886496292019899,178.30061965139637,178.96592896503452,1.0,0.010169928820919473,-0.0018926568917134472,0.07267952168052434,-0.004105326819278764,97.51440681819878,0.8816622598838157,25,0.8333333333333334
1.3241975357950004,0.9155636758946682,-0.33793002367019653,0.9999556541442871,1.4137308270878455,1.055608504867783,-0.14229589700698853,0.9999881982803345,1.2304410319743813,1.0458381476557228,-0.16740800440311432,0.999991238117218,1.3726736408945575,1.3852330548072966,0.00625079357996583,0.9999854564666748,1.2673764145371058,1.3855943825087438,-0.0064027151092886925,0.9999882578849792,1.352618393327357,1.6575107953671424,0.0005306069506332278,0.9552785754203796,1.2683530602240918,1.6716230135167138,-0.02237873338162899,0.9351454973220825,1.3417080440969569,1.9158624421072208,0.14087358117103577,0.9749258160591125,1.2622023765877124,1.9155636758946684,0.11113430559635162,0.9684080481529236,1.4410377468877609,1.4172260017404887,-0.1675572246313095,0.8790137767791748,1.189239923153898,1.4056079744212437,-0.24934236705303192,0.986170768737793,0.003732740879058838,1.3200250277158316,1.3854137186580202,178.20555330075734,178.3600228817485,1.0,0.0033130352166793613,-0.0020803129132795483,-0.05272855853993799,-0.0014788226438456778,97.2966574484462,0.8855257304186197,26,0.8666666666666667
1.3225581000848177,0.9150238756787848,-0.3350817561149597,0.9999580979347229,1.4140285650219844,1.0557079933315785,-0.14506028592586517,0.9999886751174927,1.2319266083667242,1.046835561015082,-0.15539303421974182,0.9999912977218628,1.372374874479639,1.385410195665526,0.002634849166497588,0.9999856352806091,1.2671527984947306,1.3852762032893646,-0.0027890102937817574,0.9999882578849792,1.3523799050432375,1.6603449250777496,-0.012661531567573547,0.955768883228302,1.2695287063847212,1.668155323525684,-0.021232683211565018,0.9363282918930054,1.34282121026001,1.9158970879276223,0.11869809776544571,0.975310742855072,1.265678414397551,1.915023875678785,0.10574646294116974,0.9694245457649231,1.4401258810798163,1.4162671268267477,-0.17957881093025208,0.8877714276313782,1.1890133270938745,1.4044633188070934,-0.23624613881111145,0.986735463142395,0.003390282392501831,1.3197638364871846,1.3853431994774454,177.9825140920197,178.6252401028537,1.0,-0.0002573687137103897,0.0014265765823088519,-0.029747513701038137,0.02922003738972709,97.12748569693514,0.8868302204737079,27,0.9
1.3241480242264396,0.9158073285588655,-0.3589732050895691,0.9999601244926453,1.4154619482758863,1.0568536707372553,-0.16082456707954407,0.9999887943267822,1.2343646119442075,1.0496500359904528,-0.16375009715557098,0.9999911785125732,1.3739885152271085,1.3895417944500832,0.0024147373624145985,0.9999857544898987,1.2687857435015328,1.3886202077216818,-0.002560483291745186,0.999988317489624,1.3539611440544226,1.6673107830644813,-0.006272851023823023,0.9561807513237,1.270868410814971,1.670158003475511,-0.0107038002461195,0.9372713565826416,1.3442900276069965,1.9183220530972014,0.1393541395664215,0.9758933782577515,1.2684512954454625,1.9158073285588655,0.1299724131822586,0.9702750444412231,1.4405823316159847,1.4165062882950052,-0.19584853947162628,0.8919668793678284,1.1905340345992488,1.4059659036336691,-0.2455262690782547,0.9868168830871582,0.0027492940425872803,1.3213871293643207,1.3890810010858825,178.08249935376017,179.0124089188842,1.0,0.0002340159689395414,0.01561798378329923,0.003716359118011015,0.10724930484376267,96.60402094494327,0.8960278228616109,28,0.9333333333333333
1.324472658502488,0.9160005650729297,-0.37173500657081604,0.999961793422699,1.4166487737323599,1.0574025647685155,-0.1747012883424759,0.9999890923500061,1.2359513899762689,1.053193584046941,-0.16826890408992767,0.999991238117218,1.3747608675744714,1.390329283123103,0.0013081652577966452,0.9999860525131226,1.2696873846530818,1.3894160402576958,-0.0014436872443184257,0.9999886155128479,1.3552267839568044,1.668010590116787,-0.0007640653639100492,0.9563367962837219,1.2730090633572395,1.668561286190999,-0.004048165865242481,0.9385378360748291,1.3445522812788024,1.919179881653476,0.15210816264152527,0.9763025641441345,1.2717108489314402,1.9160005650729297,0.13083747029304504,0.9714095592498779,1.4402366617941629,1.410054641427159,-0.2135210484266281,0.8958730101585388,1.1907779035231734,1.4090738898489086,-0.247720405459404,0.9867421984672546,0.001605391502380371,1.3222241261137766,1.3898726616903994,178.40959764256843,179.01763796804883,1.0,0.00022862526219085528,-0.000455401802585019,-4.364434681167221e-05,-0.12684388897824267,96.67314132159606,0.8976510014803268,29,0.9666666666666667
1.320747180983885,0.9104444374664514,-0.312339723110199,0.9999549984931946,1.413471514217821,1.0547606400779679,-0.11606378853321075,0.9999874234199524,1.233459812487129,1.0468834382798378,-0.13989917933940887,0.9999910593032837,1.3701229055729238,1.3865802856927136,0.007136682979762554,0.9999864101409912,1.2659094020499768,1.3851724626127835,-0.007281093392521143,0.9999890923500061,1.3519139279970336,1.6637651288581212,0.011024480685591698,0.9522249698638916,1.2693585997630201,1.6640939429713217,-0.020123546943068504,0.9363001585006714,1.3386228252004695,1.9142208130139327,0.16055718064308167,0.9754760265350342,1.271135364744847,1.9104444374664513,0.12440498918294907,0.9704789519309998,1.436039382580597,1.4057222538353011,-0.14292851090431213,0.8646677136421204,1.1852622086069977,1.4053653892290314,-0.22363941371440887,0.9858930110931396,0.0030128955841064453,1.3180161538114503,1.3858763741527484,179.27919970004757,179.70473508644173,1.0,-0.00443733625169431,-0.0011231472228128904,-0.03869287075135053,-0.005548579655282737,96.6689532751628,0.9028090430493282,30,1.0
1.317300446989036,0.9069905263965315,-0.32215064764022827,0.9999535083770752,1.41107914813029,1.0522866237648056,-0.12636519968509674,0.999987006187439,1.230678331417266,1.0452195013494934,-0.14579333364963531,0.9999909400939941,1.3678855593555355,1.384591830971584,0.00839525368064642,0.9999867677688599,1.263807470935755,1.3834401678982242,-0.008531995117664337,0.9999894499778748,1.3500912601966601,1.6644761418882514,0.020618321374058723,0.9511110782623291,1.2673096033483802,1.6636790640816015,-0.022726546972990036,0.9369301795959473,1.336525689850382,1.9116519456991328,0.18127194046974182,0.9756636619567871,1.27388833473596,1.9069905263965314,0.12919928133487701,0.9704497456550598,1.4298424499399196,1.403081608911588,-0.15515901148319244,0.8625977039337158,1.1835293821114456,1.4040462550957045,-0.2304040938615799,0.9859479665756226,0.002707362174987793,1.3158465151456453,1.384015999434904,179.50355432276274,179.16718156764827,1.0,-0.000513149528377163,0.0024478805904511462,0.02779813640684081,0.025329347124868156,96.77190644612902,0.9079054851855933,31,1.0333333333333334
1.3108912566883524,0.9016684427875067,-0.3330725133419037,0.999955415725708,1.4056758937377811,1.0482681988708722,-0.12666064500808716,0.9999876022338867,1.2259508575482372,1.042389834332138,-0.15398144721984863,0.9999909996986389,1.3626441449739293,1.3794115730127485,0.009935946203768253,0.9999872446060181,1.259007707080565,1.3782213615142267,-0.010072978213429451,0.9999897480010986,1.3450175761177763,1.658506172197518,0.02191811427474022,0.9514565467834473,1.2597910550312785,1.6575168350448857,-0.03272797912359238,0.9393215179443359,1.331422133795489,1.904575075973049,0.18078085780143738,0.9762369990348816,1.270006584989649,1.9016684427875066,0.10847927629947662,0.9716272950172424,1.424206862137348,1.3973357334924414,-0.1599276065826416,0.8725491762161255,1.1807387851550448,1.3986845055278807,-0.23156924545764923,0.986090898513794,0.002260565757751465,1.3108259260272472,1.3788164672634877,179.54862106991132,177.7647875589641,1.0,-7.757856877569696e-05,0.0005457457618120459,0.0033518824314256956,-0.014631551369042258,96.74605451696125,0.909883918669644,32,1.0666666666666667
1.307481214097142,0.8995491445155553,-0.3345959186553955,0.999957799911499,1.4019979134676572,1.0455401608002786,-0.12980827689170837,0.9999881982803345,1.2222035581127704,1.040090455567807,-0.15543347597122192,0.9999911189079285,1.359026726042756,1.3755628349876967,0.010230699554085732,0.9999876618385315,1.2557898335041189,1.374660258237752,-0.01037248782813549,0.9999900460243225,1.3416107671005673,1.6541991618002556,0.019377049058675766,0.9516335129737854,1.2559391034342442,1.6533431207820228,-0.03856649249792099,0.9416949152946472,1.3280105835549836,1.899813826152401,0.1752154678106308,0.9765069484710693,1.266953461794628,1.8995491445155552,0.08922484517097473,0.9728445410728455,1.4175801172143865,1.392556416458003,-0.16099148988723755,0.8821082711219788,1.1777841972694503,1.3951434011714017,-0.2310095727443695,0.9863488674163818,0.002101033926010132,1.3074082797734374,1.3751115466127244,179.5927695390455,177.4691931016368,1.0,-0.0007829606053848141,-0.0016560040895363531,-0.005339205310881108,-0.01665049702631879,96.91765090009852,0.9064090471406264,33,1.1
1.307172384083476,0.899483353892575,-0.33440783619880676,0.9999593496322632,1.4012089467905287,1.0452045442970188,-0.13054655492305756,0.9999885559082031,1.221263168779795,1.0400752575675876,-0.15545469522476196,0.999991238117218,1.3582069631025693,1.375028933774098,0.010822771117091179,0.9999880790710449,1.255366727230192,1.3742599426494921,-0.010966628789901733,0.9999904036521912,1.3413179085821805,1.653576685920298,0.022035574540495872,0.9513466358184814,1.2556662086983175,1.6529529916111956,-0.03881579264998436,0.9434726238250732,1.327720599788346,1.899483353892575,0.17949002981185913,0.9765254855155945,1.2670216185431507,1.9008993795594122,0.08760876953601837,0.9738011360168457,1.415758568010232,1.391281773727878,-0.15621711313724518,0.887986958026886,1.1774138264295062,1.3951503787261967,-0.22616669535636902,0.9863985776901245,0.0019779205322265625,1.3067868451663807,1.374644438211795,179.69518357670123,177.43937872959725,1.0,-0.0029089300795811157,-0.0014873655927623041,-0.017922739971179515,0.001418625956905204,96.99980976325628,0.9039776078339941,34,1.1333333333333333
1.3066206111731775,0.899690009714106,-0.30120253562927246,0.9999575614929199,1.3982884714579438,1.0434865284512305,-0.11547976732254028,0.9999886751174927,1.221396278864333,1.0394232540407613,-0.1339670717716217,0.999989926815033,1.3574589253015628,1.3752190350407367,0.010297172702848911,0.9999883770942688,1.2555429035043055,1.374525358052578,-0.010451640002429485,0.9999903440475464,1.3414726621775288,1.6519763648929566,0.007352299988269806,0.9507701396942139,1.2558679438135554,1.652084892025938,-0.04840020090341568,0.9437137842178345,1.3278857453553055,1.899690009714106,0.13453607261180878,0.9764461517333984,1.270261316175946,1.9024347258379681,0.05320775508880615,0.9744991064071655,1.4146244331215843,1.390540840020107,-0.13508829474449158,0.893740713596344,1.1784094853951002,1.3942429757088604,-0.2122993916273117,0.9810619354248047,0.0015665888786315918,1.3065009144029343,1.3748721965466573,179.83359881643415,176.77661098860364,1.0,-0.0040762210713796475,-2.6177566513447278e-05,-0.009408187876820401,0.01178390266834548,96.62669036988275,0.9029673195155358,35,1.1666666666666667
1.3026135265509906,0.9003665761113601,-0.2765085995197296,0.9999496340751648,1.3954502359256966,1.0418385318514967,-0.10418307781219482,0.999988853931427,1.2232539096694766,1.041894147521997,-0.09550879895687103,0.9999855756759644,1.3559292299488297,1.3762183525369835,0.005447189323604107,0.9999889135360718,1.2559777370238934,1.3759036869631376,-0.005590170156210661,0.9999904632568359,1.342270825728722,1.651206051727524,0.003928815014660358,0.9491344690322876,1.2611967146376963,1.65293160719,-0.05280246585607529,0.9453200697898865,1.329526560582289,1.90036657611136,0.13517911732196808,0.9755463600158691,1.2717817149134543,1.9103934858966318,0.02575589157640934,0.9757750034332275,1.413904737550115,1.3908473623668791,-0.14964734017848969,0.8951030969619751,1.1834255865036005,1.3818237004903537,-0.17784316837787628,0.9341700077056885,2.142786979675293e-05,1.3059534834863615,1.3760610197500605,179.91543621380902,178.72500870783304,1.0,-0.010855348329643778,0.0018682069330096113,-0.05103319975102414,0.01426691160201299,96.56025211307517,0.8986641088871424,36,1.2
1.2995104526736492,0.9006684422579164,-0.28896355628967285,0.9999496340751648,1.3950898895971329,1.0415681606012925,-0.10494537651538849,0.9999893307685852,1.2233168701618433,1.043572721478215,-0.11662954092025757,0.9999848008155823,1.3561697979339817,1.3784510518045652,0.00791033823043108,0.9999890327453613,1.2562266058168086,1.3780294217331968,-0.008053408935666084,0.9999902844429016,1.3425612812231573,1.650045493497884,0.0080502238124609,0.9498224258422852,1.2662596221591127,1.6514544342060973,-0.06965469568967819,0.9484056830406189,1.330498638289596,1.9006684422579165,0.13859285414218903,0.9759026765823364,1.2726121561132917,1.9192390420471943,0.003732553916051984,0.9773216843605042,1.413367746599244,1.3935613452026197,-0.14484897255897522,0.9031863212585449,1.1836197413543206,1.3824669815302046,-0.19909635186195374,0.932414710521698,0.0007722079753875732,1.306198201875395,1.3782402367688809,179.8870914675512,179.2574872519672,1.0,0.0003496083558703599,0.01568181537010734,0.08931791085734668,0.11009352497434959,96.3484547720635,0.8982244677137098,37,1.2333333333333334
1.3008187957327126,0.9017757862752086,-0.2936245799064636,0.9999488592147827,1.393826410845769,1.0414161763171315,-0.10457035154104233,0.9999895691871643,1.2219742907491224,1.0453849807663667,-0.12475714832544327,0.9999842643737793,1.3571713445336258,1.3806841246893093,0.010051485151052475,0.9999891519546509,1.2570525644999426,1.381758439931395,-0.010196218267083168,0.9999903440475464,1.3432081880192563,1.6518991026162262,0.019451336935162544,0.9506891965866089,1.2679047895664313,1.6544637418992854,-0.05657851696014404,0.9512051939964294,1.3317951174470095,1.9017757862752087,0.1576344519853592,0.976280927658081,1.2734848346446306,1.9307103052207168,0.024318497627973557,0.9788456559181213,1.414166407854593,1.393765255849282,-0.14875242114067078,0.9062660932540894,1.1827904266265448,1.3827918819606384,-0.2051522433757782,0.9316688776016235,0.001527935266494751,1.3071119545167842,1.3812212823103522,179.667958505724,178.8783234890823,1.0,0.0007891408664844017,0.01642059152504237,0.0033953236935194003,0.005634447528390223,96.7811942795447,0.8961648896671289,38,1.2666666666666666
1.3025287373066998,0.9028567872846112,-0.32390257716178894,0.9999508857727051,1.3931907660913148,1.0398328025335806,-0.118905209004879,0.9999901056289673,1.2205614975147505,1.0473768516547524,-0.1452758014202118,0.9999839067459106,1.3587152194685659,1.383974773302308,0.011442217975854874,0.9999894499778748,1.258440212012004,1.386995988528557,-0.011577246710658073,0.9999904632568359,1.344406059757418,1.6592112929658953,0.030773183330893517,0.95210200548172,1.269047863881964,1.6601385490805278,-0.05554383248090744,0.9540296196937561,1.3344170177456487,1.9028567872846112,0.1974516212940216,0.9767025113105774,1.277045079788893,1.9331572791735998,0.043672654777765274,0.9802776575088501,1.4156766106348047,1.3954717882365868,-0.1764249950647354,0.9112668633460999,1.1837403013357648,1.3798184713664536,-0.22351975739002228,0.9278498291969299,0.0029013752937316895,1.308577715740285,1.3854853809154326,179.37166490408725,179.45382035309808,1.0,0.001009946427075618,0.023330747314117405,0.0018038478775144896,0.05652149185631025,97.44646517994792,0.9063617307997077,39,1.3
1.3019476237651901,0.9019380366930858,-0.3053378164768219,0.999952495098114,1.3890755235931418,1.0387259633013384,-0.10489906370639801,0.9999906420707703,1.215736768427216,1.0478463045205677,-0.1383478343486786,0.9999833703041077,1.3577367942921763,1.383198911689204,0.013919415883719921,0.9999898076057434,1.2575796143224662,1.3875440701364794,-0.014056253246963024,0.9999906420707703,1.3443531487065623,1.660118933902094,0.04049601033329964,0.9532293677330017,1.2681658947576449,1.6639666177839567,-0.0529259629547596,0.9567984938621521,1.3334083985074834,1.9019380366930858,0.20753824710845947,0.9768048524856567,1.277029135174077,1.9388228639743927,0.035741642117500305,0.9816433787345886,1.4148678451537622,1.3929228977150012,-0.16069762408733368,0.9170511960983276,1.1796824077149446,1.3773851810659508,-0.21786081790924072,0.9222577214241028,0.00350990891456604,1.3076582043073213,1.3853714909128418,179.82446976098225,179.6537560072067,1.0,-0.00044384349592370426,0.00589174303627063,-0.010753417929785116,-0.1289386042026452,97.6823519100247,0.9036480588253035,40,1.3333333333333333
1.3021419712764668,0.9018045621095778,-0.3381710648536682,0.9999553561210632,1.3883559376308021,1.0408183004784675,-0.12879930436611176,0.9999912977218628,1.213668904574074,1.0490563656068776,-0.15468399226665497,0.9999841451644897,1.3577649992004246,1.3861417528936688,0.014102699235081673,0.9999901056289673,1.2564344516675114,1.390299544532473,-0.014232790097594261,0.9999909400939941,1.3478916186308405,1.665719437733992,0.04174557700753212,0.9546006917953491,1.2678832085698986,1.6726454249384637,-0.05131974816322327,0.959811270236969,1.3335753097337937,1.9018045621095778,0.23424668610095978,0.9764520525932312,1.276931380949818,1.9436425243967272,0.04498270899057388,0.9829212427139282,1.4149991036237992,1.3979542488038315,-0.18221113085746765,0.9231587648391724,1.1780976767400249,1.3841069208373973,-0.2258467674255371,0.9271647930145264,0.0031703412532806396,1.307099725433968,1.388220648713071,178.55238670612485,179.59030969982933,1.0,-0.004382472537662429,0.02179218084570994,-0.030259573526641277,0.12215908840911391,97.41204860049272,0.9100719371087006,41,1.3666666666666667
1.3020015845810187,0.9007965256593963,-0.36634063720703125,0.9999582171440125,1.3867580096405023,1.0406335165132528,-0.15046899020671844,0.9999917149543762,1.2108699811245478,1.0499235930920443,-0.17111468315124512,0.999984860420227,1.3575041943083763,1.3858981270648776,0.014034817926585674,0.9999902248382568,1.2531216811269557,1.3906449018664624,-0.01417525578290224,0.9999911189079285,1.3475594115293792,1.6646959669370271,0.03543759137392044,0.9550737738609314,1.2673736967138565,1.6726091164741377,-0.05023900419473648,0.961944043636322,1.3331360543127415,1.9007965256593962,0.21595998108386993,0.9763877391815186,1.2764082706364657,1.9450142798886039,0.04815329238772392,0.9839726686477661,1.4148420873575969,1.4001921844524776,-0.20642368495464325,0.9256468415260315,1.175119739771319,1.3880506982306906,-0.2510533034801483,0.9317342042922974,0.003575921058654785,1.305312937717666,1.38827151446567,178.547039038995,179.00599228458924,1.0,-0.011585213150677448,0.0025234301077809904,-0.054816706369098085,-0.14659391471123878,97.44674948609445,0.9118083008202176,42,1.4
1.2993324581349919,0.8997135679344661,-0.33339613676071167,0.9999573826789856,1.3858706153511027,1.040764587509581,-0.13037367165088654,0.9999918341636658,1.2072640688520315,1.0515395094788005,-0.13716907799243927,0.99998539686203,1.3565843585573854,1.385625312190832,0.012127120047807693,0.9999902844429016,1.24859378222264,1.3910331248256471,-0.01226895209401846,0.9999913573265076,1.3467004210005815,1.6631202948899946,0.02811972238123417,0.9546470046043396,1.266485281616927,1.6738158222086028,-0.05064172297716141,0.9638521075248718,1.3326946165242244,1.899713567934466,0.20274968445301056,0.9750518798828125,1.2759777400924026,1.949910023265109,0.04118183255195618,0.9848051071166992,1.4145280603213626,1.3995316025144735,-0.18907299637794495,0.9253785610198975,1.1733672733857292,1.3917684152448562,-0.21098819375038147,0.9361344575881958,0.004149734973907471,1.3025890703900127,1.3883292185082394,178.65209258886352,178.34887810969974,1.0,-0.015712502999925944,0.006386871743790642,-0.03231423400170336,0.030212880355193514,97.72081427606072,0.9107873545924701,43,1.4333333333333333
1.2988192486161323,0.8992602632391632,-0.3120189905166626,0.9999513030052185,1.3858382725077902,1.0402539397391442,-0.1191374883055687,0.9999918341636658,1.2027168432161832,1.053052370737967,-0.12545040249824524,0.9999856352806091,1.3562896582558388,1.385330820162309,0.011416269466280937,0.9999902844429016,1.2451239346731324,1.3906427427930819,-0.011562655679881573,0.9999915361404419,1.3480151981900093,1.6618719203589216,0.027220100164413452,0.9515582919120789,1.2656417078471958,1.6749454341708256,-0.06917784363031387,0.9650769829750061,1.3320678234279404,1.899260263239163,0.19714133441448212,0.9732789993286133,1.2757771360296504,1.9524341192138497,0.016513682901859283,0.9853391051292419,1.4176544048341528,1.400253695221088,-0.18433746695518494,0.9237396717071533,1.1669742616115706,1.3939765453018835,-0.18938322365283966,0.939454972743988,0.004929274320602417,1.3007067964644856,1.3879867814776954,177.87058533556666,177.9640211678173,1.0,-0.014150336616737126,-0.002161998859697659,0.012125404581100415,-0.06638412412357184,97.62997601249216,0.9086355136033146,44,1.4666666666666666
1.297109263322202,0.8993585860126264,-0.31414902210235596,0.9999459385871887,1.3864235561760152,1.039959058747539,-0.11982514709234238,0.9999918937683105,1.2008112387484708,1.0540490641678735,-0.1285836398601532,0.9999858736991882,1.3567968842288702,1.3858434364022603,0.010805648751556873,0.9999901056289673,1.2441191073989502,1.390975026981685,-0.010956957004964352,0.9999915361404419,1.350486785051148,1.66146117416428,0.01981355994939804,0.9488205313682556,1.2661017298159114,1.6752400638425913,-0.0820111334323883,0.9662095904350281,1.3326741508878062,1.8993585860126263,0.18978235125541687,0.971426784992218,1.2763816318009058,1.9518313252601676,0.0014993110671639442,0.9857673645019531,1.420381231739658,1.4022228790135207,-0.18167707324028015,0.9255710244178772,1.1662212682406021,1.3966161382911408,-0.19656622409820557,0.9432212114334106,0.005424469709396362,1.3004579958139102,1.3884092316919727,177.02947561445202,177.70653423845835,1.0,-0.006104977223427209,-0.0011874868554773725,0.06234513474439253,0.007553131927107694,97.50328384499326,0.9103847859611256,45,1.5
1.296320458270584,0.8977160357954261,-0.3341452479362488,0.999947726726532,1.3856815974171217,1.0394227053298946,-0.13103221356868744,0.9999922513961792,1.2004100543786265,1.0534724836103972,-0.14689965546131134,0.9999862909317017,1.3552790826232495,1.3852802083385718,0.011286298744380474,0.9999902844429016,1.2425760235015317,1.3901957545445438,-0.011430922895669937,0.9999917149543762,1.349637198585854,1.6604393848720107,0.031454913318157196,0.9485788941383362,1.265326691483983,1.6771497971197935,-0.07298732548952103,0.9677602648735046,1.332591160697603,1.8977160357954261,0.21771030128002167,0.970633327960968,1.2756598297191166,1.9535651326893417,0.02850058116018772,0.9864118695259094,1.4239166150552625,1.4084003121055402,-0.17869079113006592,0.9289714097976685,1.1656054124083228,1.3992997354375571,-0.20222656428813934,0.9456788301467896,0.00541195273399353,1.2989275530623905,1.3877379814415578,177.06554273186543,177.60775418750947,1.0,-0.006340046774264729,0.0007038490877558267,-0.001850668830482388,0.014675921130809058,97.52103145961574,0.9109523465286703,46,1.5333333333333334
1.2914087856764735,0.8927832935406156,-0.2880919575691223,0.9999427795410156,1.3804872665875443,1.0355918208602326,-0.09487109631299973,0.9999923706054688,1.1981829364093335,1.0487934086591217,-0.11395788192749023,0.9999853372573853,1.3484808030360789,1.3815819650245933,0.01287308894097805,0.9999904632568359,1.2364422069293346,1.3845402590667977,-0.013017242774367332,0.9999917149543762,1.3460074296888143,1.6567500744666568,0.029834583401679993,0.9436444044113159,1.2619807204668325,1.6687784844607765,-0.07257597148418427,0.9674142599105835,1.32860970366129,1.8927832935406155,0.20782068371772766,0.9666395783424377,1.2720540913447367,1.9470157005035953,0.02351316809654236,0.9861364960670471,1.4216346858741769,1.398250149319151,-0.14427906274795532,0.9295437932014465,1.162938215053531,1.3936350686250754,-0.1844431608915329,0.934188723564148,0.005098491907119751,1.2924615049827068,1.3830611120456955,176.29941445604078,176.93926441699986,1.0,-0.023325100116043898,-0.008063983552565112,-0.1284360857558544,-0.06622169278044551,96.79771120289142,0.9131685024968414,47,1.5666666666666667
1.2853916577929692,0.8867418300208327,-0.31917887926101685,0.9999464154243469,1.3756320993909537,1.0300736553452066,-0.11430566012859344,0.9999927282333374,1.192053447101409,1.0460138258017946,-0.1470869481563568,0.9999861717224121,1.3452003400294628,1.378438119941598,0.014196010306477547,0.9999904036521912,1.2327488278290237,1.3810926467897384,-0.01434373389929533,0.999991774559021,1.342739952976909,1.6535314390616196,0.03875885158777237,0.9445466995239258,1.2597719788841797,1.6647022521370967,-0.047349512577056885,0.9683955311775208,1.3261085925026475,1.8867418300208327,0.22174271941184998,0.9667075872421265,1.2689227989477654,1.9414596926294387,0.06568221747875214,0.9865441918373108,1.4221115681838283,1.3942761399189063,-0.14949646592140198,0.9345645904541016,1.1599985959120256,1.3918953486429728,-0.2078799456357956,0.939762532711029,0.0061712563037872314,1.2889745839292432,1.3797653833656682,176.43329670547766,176.4508837833919,1.0,-0.002498526193156521,0.0007149766985329865,0.16156336964520593,0.06813698926253327,96.3447332290623,0.922587638767609,48,1.6
1.2820344559872823,0.8858628476715097,-0.3233444392681122,0.9999492764472961,1.3726480954317473,1.0280284545331313,-0.12022727727890015,0.9999929070472717,1.1912691627540144,1.044593145772487,-0.1466304063796997,0.9999868273735046,1.3446227217272357,1.3787339642870347,0.012533394619822502,0.9999901056289673,1.2308058215337596,1.3817026507449444,-0.0127031859010458,0.9999916553497314,1.344066632161386,1.653324984287774,0.011918391101062298,0.9464073777198792,1.2603563594464366,1.6655649623522744,-0.03447364643216133,0.9687288403511047,1.3303179723218357,1.8858628476715098,0.18371762335300446,0.9669185280799866,1.2717332433731376,1.9417236619961304,0.07512474060058594,0.9868236780166626,1.4244118698165058,1.3918444304780213,-0.15636010468006134,0.9387009143829346,1.1557871825206107,1.3965599467632814,-0.2165197879076004,0.9450980424880981,0.0064095258712768555,1.2877142716304977,1.3802183075159895,176.7323936282934,176.41589642258782,1.0,-0.015197690700168383,-0.002345750572253324,-0.09810382890045108,-0.023650368820362668,96.06298516184341,0.9262652249646627,49,1.6333333333333333
1.2811915361107196,0.8815632235920753,-0.347898006439209,0.9999529719352722,1.3731651533276363,1.0251362213195816,-0.14110705256462097,0.9999933242797852,1.1902258953940792,1.0406220694605237,-0.15894043445587158,0.9999876022338867,1.3425251337167907,1.3799711524523615,0.010412055999040604,0.9999902248382568,1.2277537544234793,1.3824058626625852,-0.010583534836769104,0.999991774559021,1.3449109863504725,1.6542179770759327,0.004062098450958729,0.9490488171577454,1.2590176714155357,1.666280866486808,-0.035732246935367584,0.9696333408355713,1.3341586205148033,1.8815632235920754,0.19040878117084503,0.9670212864875793,1.2739144543907202,1.9421834543431726,0.08718499541282654,0.9872276782989502,1.4320081704663965,1.3924014754988117,-0.1684444695711136,0.9434587359428406,1.1459439002510154,1.4004737643676146,-0.2504176199436188,0.9498727917671204,0.0059888362884521484,1.2851394440701351,1.3811885075574732,176.7937547256592,176.80575492239268,1.0,-0.025863096794449775,0.001760915023969155,-0.08423445946108116,0.03246917830961364,96.15051783950048,0.9409011731664109,50,1.6666666666666667
1.2862156463220369,0.8810608952289087,-0.36934468150138855,0.9999569058418274,1.3785280657867889,1.0286526548263426,-0.15405811369419098,0.9999936819076538,1.1920303869893496,1.0377023154921168,-0.18240436911582947,0.9999884963035583,1.3447764024652713,1.3870364723261293,0.010790294036269188,0.9999901652336121,1.2288584165094039,1.3885129857272176,-0.01095198281109333,0.9999918937683105,1.3503757325017647,1.661092896927495,0.011478164233267307,0.9509557485580444,1.263625811484631,1.6755333558398071,-0.03141278773546219,0.9704717397689819,1.3466506351243828,1.8810608952289087,0.22221016883850098,0.9664023518562317,1.2803081225492194,1.949177978516815,0.10002609342336655,0.9873898029327393,1.438997796991246,1.3980749614138812,-0.18068000674247742,0.9473435878753662,1.1418622035859884,1.4070491792242912,-0.2713945508003235,0.9545105695724487,0.0034855306148529053,1.2868174094873375,1.3877747290266733,177.8593398931645,176.58191736524225,1.0,-0.02928237748780635,0.007727884181189132,-0.027157333203235563,0.048844508803404685,96.10986958642374,0.9596480292642178,51,1.7
1.2915986050793213,0.8819415826463464,-0.35538971424102783,0.9999597072601318,1.3831124594971398,1.0310482043861497,-0.1467638909816742,0.9999939203262329,1.1970393831071762,1.0370265912581573,-0.1734030693769455,0.9999892711639404,1.3464311487117713,1.3927378907869474,0.01100735180079937,0.9999901652336121,1.2324223958051685,1.3942346241415382,-0.011168240569531918,0.9999920725822449,1.3559178151671052,1.664995894549914,0.014140415005385876,0.952663779258728,1.2651719067873253,1.6835467172870837,-0.029893314465880394,0.9712749719619751,1.3522078370897734,1.8819415826463464,0.21823382377624512,0.9660674929618835,1.2854225598988587,1.9570100948697724,0.09606137126684189,0.9876647591590881,1.4445765792308356,1.4035738238242905,-0.18016305565834045,0.9496480226516724,1.1394769171768178,1.4123346554063587,-0.26134830713272095,0.9586418867111206,0.0022931694984436035,1.28942677225847,1.3934862574642428,177.02465344871263,177.77689816546882,1.0,-0.02092703282042285,-1.8745319505117554e-05,0.06596590539967787,-0.06053772942849166,96.54308816927177,0.9710271371301167,52,1.7333333333333334
1.2863415401153304,0.8751677407802734,-0.36367344856262207,0.9999624490737915,1.3760683681319523,1.024559757348288,-0.1525152623653412,0.9999940991401672,1.192521457897393,1.0236083686302804,-0.1785363256931305,0.9999899864196777,1.3397566580573532,1.3869622525789638,0.011121237650513649,0.9999902248382568,1.2257363377252748,1.3877584941331158,-0.011281749233603477,0.999992311000824,1.3505457698061798,1.6563717044382302,0.015902815386652946,0.9551780819892883,1.2593216362431203,1.6774871947489223,-0.026278192177414894,0.9726053476333618,1.34598575865106,1.8751677407802734,0.22208161652088165,0.9671609997749329,1.2800835767325374,1.951094363987163,0.10165271908044815,0.9882329106330872,1.43779310626598,1.3975134978032555,-0.18557918071746826,0.9522680640220642,1.131516277607103,1.4048632174627766,-0.27910730242729187,0.9624926447868347,0.00036641955375671387,1.2827464978913141,1.3873603733560398,176.51273597906015,177.72721432462058,1.0,-0.011329322474633917,-0.0036418179377157678,0.07482935704181938,-0.028500726723970422,96.12188780827805,0.9725816954635047,53,1.7666666666666666
1.2853725465652746,0.8749793928154478,-0.3565477728843689,0.9999634623527527,1.3738911091225754,1.0205368628976066,-0.14662110805511475,0.9999939799308777,1.1899139561562664,1.022993711201729,-0.1539417952299118,0.9999905824661255,1.338128873057964,1.3833747075829874,0.005546197295188904,0.9999904632568359,1.2234734766291124,1.3849994549878362,-0.005728560965508223,0.9999926686286926,1.350151323072148,1.6517818648575615,-0.02934057079255581,0.958582878112793,1.2555721014732968,1.6799151684118532,-0.023269547149538994,0.9741048216819763,1.3461579195373283,1.8749793928154477,0.16275620460510254,0.9688751697540283,1.2796298435200064,1.9558069015327413,0.10130296647548676,0.9889094233512878,1.4349898737590916,1.3931258223049923,-0.1816934198141098,0.9500042200088501,1.1295831596888735,1.404446293557554,-0.240870401263237,0.965904712677002,0.0009464621543884277,1.2808011748435382,1.3841870812854118,176.41031620874804,178.77196104728765,1.0,-0.012327124075306124,-0.02138281794905809,-0.007532416891915577,-0.1335695717537291,96.44090627301834,0.956877131153589,54,1.8
1.2736283296064586,0.8678874801857986,-0.3634131848812103,0.9999660849571228,1.360940430235451,1.0123825911744702,-0.1542230099439621,0.9999940991401672,1.1782166037715012,1.0143013513384997,-0.16484880447387695,0.9999911785125732,1.3246996539819986,1.370115321949518,0.0049683344550430775,0.9999905228614807,1.2112522115056892,1.3710858228335068,-0.005140998866409063,0.999992847442627,1.3385037137342979,1.6377040590467034,-0.013277417048811913,0.9608080983161926,1.2396566571268082,1.6655339810292924,-0.024180138483643532,0.9749434590339661,1.335359824668669,1.8678874801857988,0.17029520869255066,0.9697453379631042,1.2691507112558162,1.9386818919904762,0.09463296085596085,0.9892680644989014,1.4198615069008795,1.3820809980927442,-0.18039174377918243,0.9527025818824768,1.117474246523484,1.3905133270156953,-0.2459738701581955,0.969038188457489,0.0007455945014953613,1.267975932743844,1.3706005723915125,176.26440098553527,179.3472607732852,1.0,-0.013186389802732486,-0.012235579766048539,-0.0071011027896963645,0.0659254110898369,96.27485139568518,0.9418427871084596,55,1.8333333333333333
1.264295704907656,0.8615956552473317,-0.35602572560310364,0.9999682903289795,1.3517314752438179,1.006046552096941,-0.15185122191905975,0.9999942183494568,1.1697042917400053,1.0075894659160882,-0.1522403210401535,0.9999917149543762,1.3154832479833016,1.360805341433396,0.003890677122399211,0.9999905228614807,1.2027837209830337,1.361733329696554,-0.004064694046974182,0.9999929666519165,1.329873008844231,1.6271234969523434,-0.017370637506246567,0.9625413417816162,1.229681895070889,1.6556406219928952,-0.02628166973590851,0.9755067229270935,1.3283857895587758,1.8615956552473318,0.16560128331184387,0.9701593518257141,1.2618992399791362,1.9274678887870829,0.09464490413665771,0.9894402027130127,1.4094872400090026,1.3754637465156632,-0.17752110958099365,0.955024778842926,1.1097491643153312,1.380782231630442,-0.22974228858947754,0.9718608856201172,0.0006035268306732178,1.2591334844831676,1.361269335564975,176.54377629880338,178.46985656590323,1.0,-0.0036448116461948207,-0.0022252897895178865,0.07144744744467113,0.0750368149119171,96.30584354618911,0.9349291345737978,56,1.8666666666666667
1.2412037278753334,0.8434830324883824,-0.3290947675704956,0.9999697208404541,1.3268694766406397,0.984835852637711,-0.12883900105953217,0.9999942183494568,1.1486858831039377,0.9849125231077317,-0.13826921582221985,0.9999920725822449,1.2920172501825504,1.3358551061261426,0.003984417300671339,0.9999904632568359,1.1805632953252256,1.3368170400231822,-0.004157018847763538,0.9999929666519165,1.3083004124048483,1.6033174601773579,-0.018903937190771103,0.9635991454124451,1.2054158224811582,1.6264420219401714,-0.02180817723274231,0.9751095175743103,1.3070353870497369,1.8434830324883824,0.1615840196609497,0.9702586531639099,1.2389674185658628,1.8917948534591698,0.10852247476577759,0.9892160296440125,1.3790772046948956,1.352284278843543,-0.1491466909646988,0.9562118649482727,1.090069251760541,1.3491636037125563,-0.21359264850616455,0.9743188619613647,3.0547380447387695e-05,1.236290272753888,1.3363360730746623,176.2143297579065,177.69817850127143,1.0,0.0008882118320590085,-0.000907360677526284,0.03518271868427712,0.010061617622733188,96.16473091653123,0.9254661745480316,57,1.9
1.2125966917465802,0.8238322705035684,-0.29966863989830017,0.9999706149101257,1.298016529264339,0.9636435666230762,-0.10779007524251938,0.9999940991401672,1.123708495699938,0.9634653549113684,-0.11604336649179459,0.9999924302101135,1.264381575353474,1.3104225527762823,0.0035421387292444706,0.9999903440475464,1.1552634591193311,1.3115991160113598,-0.003714596386998892,0.9999930262565613,1.2829652145376258,1.579299600893591,-0.01622714102268219,0.9645169377326965,1.1782821181417034,1.5969768853188973,-0.01706712879240513,0.9746459722518921,1.27948924450237,1.8238322705035686,0.16668963432312012,0.9706493020057678,1.2121864754656266,1.8506298960648804,0.12443187087774277,0.988916277885437,1.3455897614700278,1.3274430520266953,-0.1339135766029358,0.9571808576583862,1.0681923638440567,1.314586925012903,-0.21358242630958557,0.9766296148300171,7.256865501403809e-05,1.2098225172364026,1.3110108343938212,175.23185666745636,176.99823612721752,1.0,0.0015827359010898202,0.029076483620021118,0.005946362887108715,0.24966288177246226,96.1576970507634,0.9236572370301065,58,1.9333333333333333
1.186916027758912,0.8058463443980567,-0.2565101981163025,0.999970555305481,1.2689268856690457,0.9430237633716508,-0.06692421436309814,0.9999938607215881,1.0999310511102804,0.9414772482273202,-0.09024311602115631,0.999992311000824,1.2375633780400437,1.2829483078154633,0.005674602929502726,0.9999898672103882,1.1308907213818773,1.283859986049776,-0.005874558351933956,0.9999925494194031,1.2589454129075817,1.5471726872432234,-0.028152931481599808,0.9646283984184265,1.1535311845098362,1.5631661651051574,-0.019138338044285774,0.9718908071517944,1.2548079065022686,1.8058463443980568,0.12229921668767929,0.9704484939575195,1.1863264595984289,1.813488597503944,0.11099697649478912,0.9876006245613098,1.312370129902688,1.298999087891999,-0.09875442087650299,0.959019660949707,1.0470468372544044,1.2797369484536496,-0.1712857484817505,0.9785413146018982,0.0006434619426727295,1.1842270497109604,1.2834041469326196,174.4571180997251,177.17031218381032,1.0,0.001399924246957192,0.002478711294840269,-0.001106602188700778,-0.19283213728271414,95.76119894491185,0.9053047024975049,59,1.9666666666666666
1.1716273876934131,0.7924864956657319,-0.1705019772052765,0.9999279975891113,1.2509328217077216,0.9211518391529615,0.00036292895674705505,0.9999842047691345,1.0857471318975749,0.9242644498108764,-0.012613469734787941,0.9999916553497314,1.221090445210714,1.266262501663165,0.005228968802839518,0.9999892115592957,1.1159499256188776,1.2672232843383657,-0.005422184709459543,0.9999925494194031,1.2425197872449631,1.5350959983790415,-0.03447829931974411,0.9643602967262268,1.1451022918944018,1.545498326654515,-0.02167101390659809,0.9694000482559204,1.2386886751648212,1.8007882518407226,0.09197412431240082,0.9712292551994324,1.1708951002063102,1.7924864956657318,0.10947797447443008,0.9861930012702942,1.2864895574446942,1.241074442063815,-0.11477009952068329,0.8847358822822571,1.0374724331725806,1.2556913471162876,-0.0968468189239502,0.9794166684150696,0.0013121068477630615,1.1685201854147957,1.2667428930007654,174.6163458944699,179.98120330468052,1.0,-0.0025114625792080326,1.6623324427340454e-05,-0.029529654614270595,-0.01843061212285717,95.46574042564366,0.8929273248073754,60,2.0
1.1660282321263131,0.7853075550303695,-0.1807156205177307,0.9998981356620789,1.2452202899964093,0.914911349879367,-0.00797985028475523,0.9999792575836182,1.0803130739164855,0.9144549080583195,-0.02183055877685547,0.9999896883964539,1.2158781241936891,1.2602280576694223,0.005082099232822657,0.9999873638153076,1.110735656577874,1.2616510697534151,-0.005279240198433399,0.9999911189079285,1.2336335491985813,1.5342236024538796,-0.04093066602945328,0.9627058506011963,1.1397154552804873,1.5391636159226778,-0.027216225862503052,0.9616022706031799,1.2349224502742626,1.815112002745265,0.044573843479156494,0.9721431136131287,1.1663745565664543,1.7853075550303694,0.08483143150806427,0.9820661544799805,1.2821170006671072,1.2331861841456724,-0.11250815540552139,0.8573070168495178,1.0444387310058951,1.2453113391279702,-0.14117369055747986,0.9800931215286255,0.0001933276653289795,1.1633068903857817,1.2609395637114187,176.55521909377072,179.78018124060642,1.0,0.0024595253318980526,0.0015258729199934841,0.037250414749858816,0.011337408610359714,95.63225738551864,0.8798956184595378,61,2.033333333333333
1.1638468017457695,0.7843219906068869,-0.14870551228523254,0.9998895525932312,1.242794031577909,0.9137968238118962,0.02180146798491478,0.9999764561653137,1.0769664394750895,0.9091955536315719,-0.0001837003801483661,0.9999887943267822,1.2142508207651206,1.2576205026442488,0.005119015462696552,0.9999861121177673,1.1091452772695722,1.259174997200042,-0.005312042310833931,0.9999901652336121,1.2298321394452818,1.5333630357092074,-0.03915714472532272,0.961564302444458,1.1413481297509318,1.5373397835939664,-0.024760104715824127,0.9544913172721863,1.2354501718068278,1.8153602009930987,0.05275467038154602,0.9724113941192627,1.1650562431690679,1.784321990606887,0.08642984926700592,0.9781950116157532,1.2806060689045968,1.2307609882113868,-0.06569068878889084,0.8400841951370239,1.0531770131698088,1.2437526529382708,-0.13079026341438293,0.9809304475784302,0.0019528865814208984,1.1616980490173463,1.2583977499221453,177.9071529084061,178.87941309245377,1.0,0.005899757951992142,0.00031715678229819055,0.026241700444400634,-0.009182651057866248,95.59297557251293,0.8733715098807148,62,2.066666666666667
1.1679970254645058,0.7853553037251053,-0.10804649442434311,0.999796986579895,1.2451153437135214,0.9150963649571215,0.02705385349690914,0.9999487400054932,1.0786499988299467,0.9112879644523051,0.04027996212244034,0.9999864101409912,1.2156003452114006,1.2603461347939346,-0.00047722645103931427,0.9999823570251465,1.1110577345055603,1.2618297483204817,0.0003083406190853566,0.9999884963035583,1.2297490653803997,1.536564446641037,-0.04055877774953842,0.9573281407356262,1.1423462948769023,1.5385406772015502,-0.01915026642382145,0.9484282732009888,1.2377820258872008,1.8186869950016589,0.04220834746956825,0.971524715423584,1.1659208660277731,1.7853553037251053,0.09791120886802673,0.9720010757446289,1.2510604793873503,1.0408645857614283,-0.2711387574672699,0.827740490436554,1.0608497988175927,1.2450880776066486,-0.07994023710489273,0.9819234609603882,0.0016151070594787598,1.1633290398584806,1.261087941557208,178.6986626045971,179.00486102606033,1.0,0.005572634825544955,0.013187662082756924,-0.002569107954029251,0.0996681558618739,95.69932556537297,0.8772832438242778,63,2.1
1.1733083495734113,0.7882398094347227,-0.1465536206960678,0.999794065952301,1.2508701589121836,0.9156998880084504,0.025813227519392967,0.9999277591705322,1.0821672918594747,0.9139452339694879,0.013325972482562065,0.9999861121177673,1.2212008872813542,1.2639576082009065,0.000397582451114431,0.9999784827232361,1.1173248327682328,1.265420817916619,-0.0005700786132365465,0.9999873638153076,1.2293304720080656,1.5432645469780846,-0.04163675382733345,0.9557306170463562,1.1455599193536854,1.5420700268076646,-0.017283780500292778,0.9455896019935608,1.2408472075836674,1.8225324574364128,0.04894355684518814,0.9716771841049194,1.1686557371875277,1.7882398094347227,0.10897974669933319,0.9686290621757507,1.2635856415519435,1.1228845365503377,-0.2070574015378952,0.7869319915771484,1.0670760835941502,1.246662849781621,-0.1189989224076271,0.9833346605300903,0.0007422864437103271,1.1692628600247936,1.2646892130587628,179.30571220905054,179.53235488659914,1.0,0.022986339458978496,0.003516328409036118,0.13152959079596968,-0.07335582668669202,95.67648765970827,0.8793124099179634,64,2.1333333333333333
1.1783970075624208,0.7907649421741072,-0.18205440044403076,0.9998007416725159,1.2564492974966055,0.9189003856001624,0.00135963992215693,0.9999248385429382,1.0854845594242755,0.9173125661929987,-0.016408652067184448,0.9999862313270569,1.2260413405373078,1.2695456986677423,0.0008920873515307903,0.999977171421051,1.1215130522754493,1.2711321049212863,-0.0010649506002664566,0.999987006187439,1.2301075487628088,1.5500858031549078,-0.04027592018246651,0.9555124044418335,1.1494429737048146,1.5468215596086214,-0.015987921506166458,0.9429317116737366,1.2441219345253425,1.826793152394557,0.06431210786104202,0.9723291397094727,1.1719595982206417,1.7907649421741072,0.11709322780370712,0.9669414758682251,1.2718863050081528,1.1939614815304709,-0.17252065241336823,0.7401721477508545,1.072848493044776,1.2503043402964358,-0.13574954867362976,0.9844242930412292,0.0006697177886962891,1.1737771964063786,1.2703389017945144,177.93101951761665,179.48874906474012,1.0,0.007915558247413601,0.01441019565762981,-0.11545189928510714,0.08299758827578739,95.82579027296617,0.8889121901348402,65,2.1666666666666665
1.1809587733922715,0.7919860839696914,-0.19005779922008514,0.9998081922531128,1.2599583124775433,0.9207088690211103,-0.00703438650816679,0.9999227523803711,1.0871196763605935,0.919087742625895,-0.02021751180291176,0.9999863505363464,1.2283942152583578,1.272507731324498,0.0001983056718017906,0.9999759793281555,1.123528118982512,1.2741000593938936,-0.0003662052331492305,0.9999867081642151,1.230736997980438,1.554056580290086,-0.04121825844049454,0.9548698663711548,1.1516151190786008,1.5496473938647255,-0.012647072784602642,0.9396322965621948,1.2456187274309927,1.8298016113760038,0.0656365156173706,0.9726324081420898,1.1735939022835304,1.7919860839696915,0.12306194007396698,0.9647225141525269,1.2761632082495387,1.2044492918088363,-0.17195869982242584,0.7004507780075073,1.0748612125892412,1.251857138227577,-0.14309120178222656,0.9853700399398804,0.0006828010082244873,1.1759611671204349,1.2733038953591957,177.38754168110898,179.36208075783412,1.0,0.004063915538017692,0.00905491009589866,-0.029912267167205134,-0.04162698228607007,95.99689867858831,0.893621074941729,66,2.2
1.1801197211582868,0.7908326894623143,-0.19633032381534576,0.9998030066490173,1.260159352249508,0.9193103523298948,-0.014731873758137226,0.9999219179153442,1.0860806458517258,0.9176908913336445,-0.027582276612520218,0.9999858736991882,1.2280656843095097,1.2726273511887984,-7.785948400851339e-05,0.9999746680259705,1.1229506147043329,1.2747113317484853,-9.202011278830469e-05,0.999985933303833,1.2278491063013746,1.5610390432366277,-0.04508134722709656,0.9554757475852966,1.1498160358426008,1.5537829029392871,-0.007953332737088203,0.9366544485092163,1.2434314207079373,1.8370354327554952,0.06588529795408249,0.973316490650177,1.1721904654534059,1.7908326894623143,0.14083153009414673,0.9624866843223572,1.2800456777570712,1.2222646995788948,-0.15706005692481995,0.6788730025291443,1.0741581183340982,1.2516917596235584,-0.15576530992984772,0.9860499501228333,0.0006832480430603027,1.1755081495069213,1.273669341468642,176.72557718092898,179.89324895499897,1.0,0.01246782212362332,0.02050398953135327,0.06882279981771446,0.09380927714801819,96.32601815087405,0.8921474254185658,67,2.2333333333333334
1.1816065658437225,0.7912442935157948,-0.1490679830312729,0.999796450138092,1.2622729284707241,0.919410012325264,0.00021095872216392308,0.9999077320098877,1.0869356793608527,0.9203891095394152,0.006165759637951851,0.9999843239784241,1.2295567532661595,1.2731356934206264,-0.0022652684710919857,0.9999733567237854,1.1237099009421814,1.2753059855424547,0.0020945558790117502,0.9999852776527405,1.2279064608193315,1.562756577624965,-0.04652181267738342,0.95345139503479,1.1494581511538728,1.5573929505424493,-0.008211546577513218,0.9327908754348755,1.2436244401260292,1.8408002625433142,0.056316353380680084,0.9730614423751831,1.172415783544483,1.7912442935157948,0.1386566311120987,0.9579030871391296,1.262070439466845,1.0878600211744434,-0.3039262294769287,0.6727502346038818,1.0741821927665642,1.2527293800876158,-0.15200257301330566,0.9866659641265869,0.00041300058364868164,1.1766333271041705,1.2742208394815406,176.4380039810951,179.60850547725025,1.0,0.006481815970600828,0.002216640169488634,-0.04311147103078677,-0.13168205525205148,96.45889950295765,0.8899784721217755,68,2.2666666666666666
1.1849337296443072,0.7911046806867785,-0.2290184497833252,0.9997990727424622,1.2637914360624944,0.9197352280553349,-0.03562241792678833,0.9999108910560608,1.088005964024654,0.9206209854842756,-0.06912009418010712,0.9999841451644897,1.2320541029907808,1.273162828796641,0.0025840094313025475,0.9999728202819824,1.1242045865079275,1.2752754761423115,-0.002778672846034169,0.9999846816062927,1.2277996975734726,1.560438495147871,-0.043667759746313095,0.9511784911155701,1.150020077215494,1.5570148759342548,-0.012575586326420307,0.9246067404747009,1.2436155832542386,1.8410694263258045,0.0610334686934948,0.9726520776748657,1.1723854522962462,1.7911046806867785,0.13174623250961304,0.953676700592041,1.2836120249625889,1.2123454349400358,-0.17892669141292572,0.6563907861709595,1.0737614216321947,1.259472732682492,-0.2069302797317505,0.9869112968444824,0.00037360191345214844,1.1781293447493542,1.2742191524694764,175.9258597613362,179.77775467152762,1.0,0.011248801868751317,-0.0007271986808807286,0.03794032483848358,-0.023433425732396047,96.25353697319551,0.8903051915933603,69,2.3
1.1785102838007013,0.781827293707724,-0.228286474943161,0.9997979402542114,1.2580627473078423,0.9137376344762447,-0.03377889469265938,0.999913215637207,1.0819003324339758,0.914903108720001,-0.057908155024051666,0.9999844431877136,1.2266923932234273,1.2642796396774894,0.0035923465620726347,0.9999731183052063,1.1180541157775092,1.2670972789757082,-0.003790807444602251,0.9999849200248718,1.2208292152658309,1.5494155813655834,-0.042849622666835785,0.9501986503601074,1.1428181967599957,1.5504779883689883,-0.01043759472668171,0.9204936027526855,1.235201338132934,1.8324098588168372,0.0749492198228836,0.9728761315345764,1.164719353451057,1.781827293707724,0.14635513722896576,0.9515233039855957,1.2814125323164594,1.2280558576700387,-0.1559809148311615,0.6192559003829956,1.0661479650995227,1.2622295283571467,-0.19052423536777496,0.9868527054786682,0.0004947185516357422,1.1723732545004684,1.265688459326599,175.91468676237025,179.58637167084115,1.0,0.012999430375537276,-0.0034572669334488634,0.013844997303494174,-0.020781139903495813,96.59952259108971,0.8925825403075053,70,2.3333333333333335
1.1778873848581135,0.775393619341864,-0.26468145847320557,0.9997951984405518,1.2538062777330112,0.9102768134571663,-0.05795668810606003,0.9999133348464966,1.079889541584423,0.9120291710735625,-0.07787446677684784,0.9999845623970032,1.2259673821380694,1.2591583562370652,0.0035686299670487642,0.9999728202819824,1.1185004553695195,1.262522871666949,-0.003764132037758827,0.9999850392341614,1.2173173901065113,1.5446031960797784,-0.04187626391649246,0.948637068271637,1.1398259367676502,1.5442559147316552,-0.007474845740944147,0.9157835245132446,1.230729558078188,1.8309507995236565,0.07627756893634796,0.9729829430580139,1.1592597002662537,1.775393619341864,0.14900948107242584,0.9498323202133179,1.2778245188187454,1.219359661886208,-0.1772565394639969,0.5735585689544678,1.0617358358671674,1.2653316250038653,-0.18242621421813965,0.9866151809692383,0.0007464885711669922,1.1722339187537945,1.2608406139520072,175.5825620825532,179.5226358480427,1.0,0.030642246732762623,-0.0026915756981963986,0.13470889788299042,0.005737564962184175,96.35543167985324,0.8943805550450376,71,2.3666666666666667
1.1804992251060196,0.7733557981624731,-0.24949416518211365,0.9997928142547607,1.2560882154940063,0.9109610566048394,-0.04927990958094597,0.9999132752418518,1.080407197051131,0.9114778623343357,-0.07525677233934402,0.9999849796295166,1.2262846331326027,1.2582857584714855,0.004381260368973017,0.9999734163284302,1.1188275641188326,1.2616879230289457,-0.004585490096360445,0.9999854564666748,1.2203024949509715,1.5432736356996422,-0.04262849688529968,0.9483217597007751,1.1392717331945676,1.54444805434738,-0.008316691033542156,0.9105626940727234,1.2298833964064244,1.8299433688029019,0.07564814388751984,0.9737016558647156,1.1575467444559966,1.7733557981624732,0.16099433600902557,0.9467857480049133,1.2861082522031535,1.2265975690694568,-0.15010277926921844,0.5280201435089111,1.0595686420013581,1.2706595921891022,-0.1789737194776535,0.9868306517601013,0.00022029876708984375,1.1725560986257177,1.2599868407502157,176.88329720614502,179.5708450748051,1.0,0.008157941533250064,-0.00021413843898849768,-0.16822785339433885,0.01853957264151768,96.71789701500632,0.8978333144916525,72,2.4
1.186109790552237,0.7718881669677962,-0.37159210443496704,0.9998104572296143,1.269457018664701,0.9153063975768346,-0.154530331492424,0.9999209642410278,1.0863895013922464,0.914960727712161,-0.1699177771806717,0.9999852180480957,1.237858363525129,1.2614318988664734,0.004420922137796879,0.999974250793457,1.128163970869254,1.264926724927318,-0.004626109730452299,0.9999850392341614,1.2273862206824542,1.5464268900877063,-0.04597507044672966,0.9517310261726379,1.1420701041193797,1.5486672961895225,-0.00860507320612669,0.9117035865783691,1.2331769618744783,1.8357977029494568,0.0783248320221901,0.9755092859268188,1.1546726863125176,1.7718881669677962,0.19159740209579468,0.9474706053733826,1.31340250795682,1.2894793778699378,-0.17991292476654053,0.5643593668937683,1.0599472986621974,1.284850681762319,-0.2777771055698395,0.9864556789398193,0.00014698505401611328,1.1830111671971915,1.2631793118968957,176.7491920563109,179.5744535324261,1.0,0.05661969167562417,0.0005647076644504583,0.3630738394328969,0.005841491121609553,97.0410214424241,0.9085107577898868,73,2.433333333333333
1.199499945762957,0.774924604860543,-0.4002227187156677,0.9998286366462708,1.286792912800394,0.9226972420463636,-0.16696283221244812,0.9999284744262695,1.0963276013441747,0.9219990813600842,-0.19457824528217316,0.9999861121177673,1.2528126991516422,1.2747720631771156,0.00652014184743166,0.9999752640724182,1.138980727770722,1.2758916908850129,-0.0067234644666314125,0.999984860420227,1.2418839349878645,1.561100853781452,-0.05016607046127319,0.9554566144943237,1.147906252401119,1.5677981398954128,-0.009287236258387566,0.9155744910240173,1.242525316269757,1.848848847010861,0.11011864989995956,0.9770342707633972,1.1605403054675458,1.774924604860543,0.2177318036556244,0.9483641386032104,1.3386632998268935,1.3062716383202788,-0.19400940835475922,0.6054365634918213,1.0642225204631843,1.3047315322868598,-0.2913271188735962,0.9873319268226624,0.00029462575912475586,1.1958967134611822,1.2753318770310642,177.6864520636529,178.2608330440948,1.0,0.02904283024094057,0.01896409788470747,-0.21006992432748667,0.13796847042286153,96.07631174569677,0.932598839235707,74,2.466666666666667
1.2064093785381467,0.7740318907897794,-0.4241580069065094,0.9998451471328735,1.2970487404756488,0.93015890524929,-0.19285812973976135,0.9999353289604187,1.1011117972613085,0.9258806788193941,-0.21484863758087158,0.9999868869781494,1.2626722138731818,1.281464820947054,0.006680932827293873,0.9999764561653137,1.1460711371317287,1.2820564807555666,-0.00688526313751936,0.9999848008155823,1.2537274178033457,1.569405927756395,-0.07966376841068268,0.9589899778366089,1.15102474613959,1.5752599996072616,-0.018210632726550102,0.9180331230163574,1.2473704422043859,1.8556452150877647,0.10234829038381577,0.978124737739563,1.1616642725451913,1.7740318907897794,0.2078918218612671,0.9481692910194397,1.3576217742719292,1.3172139472634459,-0.2187098264694214,0.642314076423645,1.0638095816704274,1.3172245809767549,-0.30781692266464233,0.9876303672790527,0.0017985403537750244,1.2043716755024554,1.2817606508513102,179.49294786125935,177.90399957391116,1.0,0.0315210795134888,0.012517172696889168,0.019140625130762513,-0.052717390584593404,95.87953089156167,0.9524509691904851,75,2.5
1.2142412807021326,0.7752706190847474,-0.4000883102416992,0.9998595118522644,1.307156605344378,0.9366252272083813,-0.17441944777965546,0.9999414682388306,1.1093353643536517,0.9326605114510454,-0.19121627509593964,0.9999871850013733,1.2745608137483075,1.2927244917321206,0.00664621964097023,0.9999775886535645,1.1561015631993738,1.2928719781874243,-0.00684810196980834,0.9999848008155823,1.2639416461915585,1.5856420151075816,-0.06950847804546356,0.9621965885162354,1.1529470235220194,1.5860784779283592,-0.03522240370512009,0.9231024980545044,1.2550042239949468,1.867534319155835,0.12249346077442169,0.9795898795127869,1.168522978118464,1.7752706190847474,0.2062913477420807,0.9497137069702148,1.3805785895069311,1.3197187962992178,-0.22234110534191132,0.6770442128181458,1.0700242274700875,1.3270592814168636,-0.2765919864177704,0.9882118105888367,0.0016551613807678223,1.2153311884738407,1.2927982349597724,179.73971959114962,174.67711582506652,1.0,0.020262845683903272,0.016555248960429012,-0.09183780086895746,0.031606551370278756,95.30136953039245,0.979020973980214,76,2.533333333333333
1.207403128435014,0.7689717188917825,-0.39020565152168274,0.999872624874115,1.3009826918986913,0.9320686112701914,-0.1674622893333435,0.9999470114707947,1.1040781948213079,0.9295563672237892,-0.17873956263065338,0.9999876022338867,1.2681440834400879,1.2883619438571776,0.005525338463485241,0.9999784827232361,1.1506167947698498,1.2878237783621953,-0.005741239991039038,0.9999845623970032,1.2571250454805252,1.578813043892738,-0.08188576251268387,0.965196430683136,1.1463002471895842,1.5776034501693275,-0.04254559427499771,0.9276311993598938,1.2485700894494132,1.85911117166499,0.09519191831350327,0.9809029698371887,1.1620204903528721,1.7689717188917826,0.18983039259910583,0.9516588449478149,1.377970476763767,1.3101138884914842,-0.21843573451042175,0.7084932923316956,1.0636749372436238,1.3195745480681378,-0.26901593804359436,0.9888577461242676,0.0010539889335632324,1.2093804391049687,1.2880928611096865,179.57555062887866,174.45048084989054,1.0,0.00029296387373957785,0.012319708418098915,-0.14685947922051124,-0.03070182198623567,95.00356269856628,0.9869917184817157,77,2.566666666666667
1.2078561101933796,0.7697953070891357,-0.39235302805900574,0.9998847842216492,1.301237963454205,0.9318521445695142,-0.15752312541007996,0.9999518990516663,1.1050018649296112,0.9295082913647147,-0.17926660180091858,0.9999879002571106,1.2677673472225914,1.2907888119011943,0.005461470223963261,0.9999791383743286,1.1508831860136108,1.2904631779850997,-0.0056756651028990746,0.999984085559845,1.2574340872161387,1.5923788581397886,-0.04212789237499237,0.9677197933197021,1.140478044808649,1.5820792991106782,-0.030532976612448692,0.9314097166061401,1.2496245611585286,1.8639615257129214,0.13621288537979126,0.9821867942810059,1.1631915081500197,1.7697953070891357,0.25178593397140503,0.9517008662223816,1.3860722819130835,1.3033365247353086,-0.17764334380626678,0.736983060836792,1.0644484977256106,1.3182669108873637,-0.26378220319747925,0.9896508455276489,0.0009824633598327637,1.2093252666181011,1.2906259949431471,179.68478645727953,171.0573019699842,1.0,-0.00874305001689761,0.010620700658425214,-0.06949280291256459,-0.013150833255749996,95.16776634679336,0.9896817105672948,78,2.6
1.2010831623978246,0.7601054916282828,-0.3760216236114502,0.9998953938484192,1.2902295363310017,0.9212621925891722,-0.14367665350437164,0.9999563694000244,1.095715146105285,0.9203909888127625,-0.1677897870540619,0.9999877214431763,1.2566208879456604,1.2811004314298073,0.006102525629103184,0.9999801516532898,1.1403065154512875,1.2801307045277366,-0.006315217819064856,0.9999840259552002,1.24599800895898,1.5850600603457667,-0.031457919627428055,0.9698159694671631,1.1297947744969155,1.5681291642405875,-0.023182790726423264,0.9345443248748779,1.2386359776291898,1.8486171736661074,0.14710107445716858,0.9831923246383667,1.152346633391503,1.7601054916282828,0.22945082187652588,0.953241229057312,1.3808515019702512,1.2896096440468001,-0.1575952172279358,0.7624139785766602,1.056023787062631,1.3044563320559155,-0.2550351619720459,0.9891894459724426,0.00036841630935668945,1.1984637016984738,1.280615567978772,179.59846989101226,171.20972426717788,1.0,-0.0018060112808537538,0.010232889723955162,0.052754165497742846,-0.002264542167678813,94.85823648101362,0.9938141178406065,79,2.6333333333333333
1.1746090042458495,0.7408814088728405,-0.3805111348628998,0.9999053478240967,1.2634888397850403,0.895780713036796,-0.1467536985874176,0.9999604821205139,1.073127053036294,0.9002153679722339,-0.16215939819812775,0.9999880194664001,1.2309769094530487,1.2544294831251415,0.004712986759841442,0.9999812841415405,1.116194924013005,1.2532036951274375,-0.0049205357208848,0.9999843835830688,1.2189598289634065,1.5547693331233348,-0.027777615934610367,0.971976101398468,1.1040590987589587,1.536533392103487,-0.004731092602014542,0.938446581363678,1.2115262136307956,1.8123290716697058,0.16511565446853638,0.9841837286949158,1.1260541873320713,1.7408814088728406,0.24740099906921387,0.9555515050888062,1.355555337956426,1.2590551502541911,-0.1544821560382843,0.7855653762817383,1.0378822002287733,1.2744892113278918,-0.2399677336215973,0.989399254322052,0.0019165873527526855,1.1735859167330267,1.2538165891262896,179.36192133046887,171.4039515901768,1.0,0.007198499738652964,0.0059983440500645585,0.07033606684263062,-0.031492434335156784,94.56791793831083,0.9811084249144281,80,2.6666666666666665
1.1397523599579142,0.7160039788511251,-0.3640376627445221,0.9999143481254578,1.225584406309214,0.8555964993553209,-0.13725611567497253,0.9999642372131348,1.0419841618378485,0.8686709382890525,-0.12642207741737366,0.9999878406524658,1.1952036651159963,1.216893370283824,0.0016611695755273104,0.9999821186065674,1.083254400889532,1.215490156587109,-0.0018572350963950157,0.9999841451644897,1.1829140994797118,1.506503986515119,-0.033093228936195374,0.9731999039649963,1.0720731357870297,1.4910394524334052,-0.004074623808264732,0.9408000111579895,1.1758505075404664,1.7619499235307439,0.1416182965040207,0.9845989346504211,1.089657617598297,1.7160039788511252,0.22747060656547546,0.9572743773460388,1.3174630426484193,1.2124857371065352,-0.138140469789505,0.8065212368965149,1.009898466471633,1.217171817573384,-0.179860457777977,0.9866267442703247,0.005821347236633301,1.1392290330027641,1.2161917634354666,179.15406290566793,173.20685152514974,1.0,0.0005493743726122696,-0.006334437720175233,-0.04847738831118037,-0.09154017540265047,94.08845258097433,0.9566980113501635,81,2.7
1.0985433919467213,0.68924522112731,-0.33871668577194214,0.999922513961792,1.1836678863273484,0.8213351455780229,-0.12496750056743622,0.9999676942825317,1.0061908946604319,0.8386932565457595,-0.10332803428173065,0.999987781047821,1.1542647422518262,1.1749785800542019,-0.0012118491576984525,0.9999833703041077,1.0448936065083523,1.1742753177033265,0.0010297830449417233,0.9999847412109375,1.1427600583202002,1.4574651098056786,-0.03552675619721413,0.9748350381851196,1.0351804501086002,1.4444634872706539,-0.005070162005722523,0.9450495839118958,1.1361788575821952,1.704019939175632,0.1404479444026947,0.9853382706642151,1.0513440369250893,1.6892452211273101,0.16847550868988037,0.9606742262840271,1.2758799769037106,1.1580790706433952,-0.1320224106311798,0.8256126046180725,0.9757520004884161,1.171143944105324,-0.13205797970294952,0.9819616675376892,0.007998794317245483,1.0995791743800891,1.1746269488787642,179.19684591437726,174.163218696069,1.0,-0.008954225114093274,-0.0037279641179290834,-0.07242585508448417,0.01826886434424881,94.38442856380661,0.9297805318000512,82,2.7333333333333334
1.078493710870721,0.6759455146591679,-0.28808051347732544,0.9999297857284546,1.1629932168235997,0.8030082050913709,-0.084148108959198,0.9999707937240601,0.988439011320973,0.8233342793697427,-0.06557492911815643,0.9999879598617554,1.1342219719233768,1.1547614923560152,-0.0017090324545279145,0.9999845027923584,1.0254871743206098,1.1543995619205196,0.0015357125084847212,0.9999854564666748,1.1228485590636592,1.4366051255680587,-0.030847351998090744,0.9764193892478943,1.0171418619204242,1.4288947487351662,-0.005997410975396633,0.949399471282959,1.116398010336057,1.675945514659168,0.1489640325307846,0.9860105514526367,1.0334077555704648,1.6835736403534003,0.1339576095342636,0.9640513062477112,1.2565845882087845,1.1320540759920432,-0.11292819678783417,0.8428499698638916,0.9571282784054848,1.1434740173165978,-0.10065219551324844,0.9810172319412231,0.009530067443847656,1.0798545731219933,1.1545805271382674,179.23298666386762,174.60418994374302,1.0,-0.006456351927331811,0.0009042184285691876,0.017851506551161748,0.034788233932756873,94.48531947425556,0.9113343907921179,83,2.7666666666666666
1.0736716821909589,0.6741966951124342,-0.23465070128440857,0.9999356269836426,1.1617521031411553,0.7967588958458925,-0.061058927327394485,0.9999735355377197,0.9874737101402098,0.8227108826350297,-0.02752228081226349,0.9999876618385315,1.1330697621222934,1.1546843626050125,-0.0052293771877884865,0.99998539686203,1.0231080874178202,1.1545477020095394,0.005028708837926388,0.999985933303833,1.1223274264669787,1.4333937404493962,-0.05135216563940048,0.9775946736335754,1.0156351278948217,1.4329534037537592,-0.03004203736782074,0.9531958103179932,1.1149915720674126,1.674196695112434,0.1073550134897232,0.9857509732246399,1.0295242134696925,1.7006942447155629,0.06238532066345215,0.9670005440711975,1.2540320432264067,1.1277104060375533,-0.1193515807390213,0.8582578301429749,0.9559972568814674,1.1309964837203383,-0.10680730640888214,0.9799363017082214,0.01217922568321228,1.0780889247700567,1.154616032307276,179.53765996866633,175.49287413535637,1.0,-0.006032872656727532,0.008915622840524171,0.003335002361720619,0.06401168513100529,94.51039705668079,0.9016186470636108,84,2.8
1.0685330341322659,0.670708024024593,-0.265871524810791,0.999941349029541,1.1568447728352413,0.7916529166176103,-0.06343760341405869,0.9999759793281555,0.9835111630744089,0.8205641897938529,-0.05848754569888115,0.9999876022338867,1.1309152394036495,1.1540113909685936,-0.0021182955242693424,0.9999863505363464,1.0210758849911978,1.1547918548481737,0.001908764592371881,0.9999866485595703,1.1227518788669337,1.4298482482770356,-0.03271918371319771,0.9784418344497681,1.0131959260419494,1.4333252750913272,-0.045343611389398575,0.9568840265274048,1.1126615143370453,1.6707080240245928,0.1419670283794403,0.9853488802909851,1.023889485807445,1.7114233854240668,0.0409885048866272,0.9698120951652527,1.247721581208408,1.1158063209458944,-0.12984298169612885,0.8720822930335999,0.9523743949265157,1.1289843045607177,-0.15052290260791779,0.9788246154785156,0.013590097427368164,1.0759955621974235,1.1544016229083838,179.29627177060263,176.17740407794363,1.0,-0.0026444353576589932,0.012867965313208926,0.02616210579428383,0.03071674041327477,94.50008529353474,0.9013071981325022,85,2.8333333333333335
1.0680804221619005,0.6717403618512444,-0.26983290910720825,0.999946653842926,1.1561087480404875,0.7918678217049571,-0.06244657188653946,0.9999781847000122,0.9804926415237306,0.821461838514214,-0.06775184720754623,0.9999880194664001,1.131778872435182,1.1557862399863534,0.002257211599498987,0.9999871253967285,1.021337569472182,1.1572834084265604,-0.00246608117595315,0.9999873638153076,1.1240499751677684,1.430507510401551,-0.015156907960772514,0.9790700674057007,1.0151176443636039,1.4371062968015857,-0.05010083317756653,0.9602971076965332,1.1127149783985604,1.6717403618512445,0.1573983132839203,0.9849246144294739,1.0241801079926025,1.7159454150358815,0.026989901438355446,0.9723614454269409,1.2465575977681072,1.1190217179538242,-0.13652697205543518,0.8845171928405762,0.950082581607801,1.129847124074725,-0.1615082174539566,0.9794675707817078,0.013897866010665894,1.0765582209536821,1.156534824206457,178.92128831757944,176.8651375100361,1.0,-0.0034358760045558987,0.007826613142589795,-0.005938315537763548,-0.038037961504046966,94.60150243366907,0.9022969570411297,86,2.8666666666666667
1.0648593995868074,0.6730291592003791,-0.259268194437027,0.999951183795929,1.156412272729556,0.7950704284907746,-0.05256136506795883,0.999980092048645,0.9808201323562075,0.8230307838153755,-0.05710219219326973,0.9999883770942688,1.1336950046363523,1.1584081011251937,0.0037569068372249603,0.9999878406524658,1.0222707692084654,1.1614756031470606,-0.003966949880123138,0.9999880790710449,1.1261124082243543,1.4326873681828405,-0.012998031452298164,0.9791033864021301,1.0174682673903908,1.4452452923839638,-0.048793137073516846,0.9632558226585388,1.1135972136231376,1.6730291592003792,0.17034509778022766,0.9834638237953186,1.026178937957066,1.7252237470005825,0.027200981974601746,0.9745734333992004,1.2448419427648454,1.1176476236142845,-0.145387202501297,0.8955032825469971,0.9502905326657936,1.133018452637831,-0.1571555882692337,0.9799428582191467,0.013104885816574097,1.0779828869224088,1.159941852136127,178.6027275862071,177.2484145380437,1.0,-0.005278827848995339,0.008612913544480086,-0.013976890067549973,0.005868016296825195,95.1546460479373,0.9032763625522925,87,2.9
1.0642017932847416,0.6739174598196227,-0.24635306000709534,0.999955415725708,1.156679986935156,0.7968313044044969,-0.04025125876069069,0.9999818205833435,0.9805222577129548,0.8232874222365577,-0.0421781986951828,0.9999885559082031,1.1345228315274132,1.159544349569601,0.004154144786298275,0.9999883770942688,1.0225008967442013,1.163518663862596,-0.0043661221861839294,0.9999885559082031,1.127009655306549,1.4336232360742436,-0.017979180440306664,0.9789634346961975,1.0185573225114744,1.4473770900377,-0.05026973411440849,0.9657493829727173,1.1142923078058877,1.6739174598196227,0.1573413908481598,0.98208087682724,1.0272178094289375,1.729764830265225,0.02442912384867668,0.9764466285705566,1.243334371155106,1.1171363043548546,-0.14962701499462128,0.9053308367729187,0.9497576308540085,1.1346268258513852,-0.15385481715202332,0.9800339937210083,0.012388497591018677,1.0785118641358071,1.1615315067160985,178.5407257088385,177.4474143173497,1.0,-0.0034927534571456897,0.003999321246262124,0.013614703723737642,-0.03513300437793125,95.52758721285943,0.9027634459483058,88,2.933333333333333
1.0652806576328326,0.6765021092279465,-0.26527512073516846,0.9999588131904602,1.160712421092752,0.8005015168188679,-0.05850522965192795,0.9999833703041077,0.9817934475953946,0.8259053030639287,-0.06052501127123833,0.9999886751174927,1.1369852751601583,1.1680493270607115,0.005689848214387894,0.9999889731407166,1.024683392281528,1.172897936077681,-0.005885510705411434,0.9999892115592957,1.130886961437656,1.445597195419444,0.005387806799262762,0.9795876145362854,1.0220008188733511,1.4646468897661205,-0.04659951105713844,0.968639612197876,1.117297572329821,1.6765021092279464,0.23346348106861115,0.9813845157623291,1.0304227224518123,1.7430902691316488,0.04806764796376228,0.9784696102142334,1.2452122061560602,1.121554283185973,-0.16938889026641846,0.9143993854522705,0.9527482870046996,1.1391013685633231,-0.18187621235847473,0.9808400273323059,0.011854618787765503,1.080834333720843,1.1704736315691961,177.89057784469162,177.7407299894839,1.0,-0.0105467016327341,0.03656573222813113,-0.05239577461251027,0.24221177146634915,96.16581624971013,0.9162847801031752,89,2.966666666666667
1.0682228600000667,0.6791937677354705,-0.2946237325668335,0.9999617338180542,1.1643619694559313,0.8044713845295003,-0.06416712701320648,0.9999847412109375,0.9832653225100945,0.8292456930113042,-0.08727698028087616,0.999988317489624,1.1407277594217824,1.1727518523392926,0.008131146430969238,0.9999894499778748,1.027140256481103,1.1776248496309174,-0.008331513032317162,0.9999895691871643,1.1347209491037373,1.4509301012414604,-0.005559026729315519,0.9798009395599365,1.0248054790401726,1.4714049250508414,-0.06451091915369034,0.9708516001701355,1.1209258605062355,1.6791937677354705,0.18912933766841888,0.980861246585846,1.033500589675131,1.752849540612672,0.022572560235857964,0.9801790714263916,1.24431509304091,1.1313129680554368,-0.1668034940958023,0.922325849533081,0.9569101664507816,1.1429111095205147,-0.23697426915168762,0.9800556302070618,0.011511802673339844,1.0839340079514428,1.175188350985105,177.77856019491884,177.77509345809605,1.0,-0.011876775932690405,-0.0021640070329361242,-0.010123828632904551,-0.3063311692462548,96.12842177753384,0.9174787606484476,90,3.0
1.0641391853092108,0.6767677712152015,-0.28345802426338196,0.9999645948410034,1.1613769130980096,0.8037317195133947,-0.05524195358157158,0.999985933303833,0.9804890516895104,0.827761683013903,-0.07513678073883057,0.9999884366989136,1.1376190690887629,1.172508259009083,0.010074411518871784,0.999989926815033,1.0239781525641867,1.178071434280421,-0.010259117931127548,0.9999900460243225,1.1324484785388726,1.4561272164065318,0.007259813137352467,0.9796006083488464,1.0229957941559826,1.4773015583500015,-0.05712662264704704,0.9728382229804993,1.1192568633800046,1.6767677712152016,0.24705731868743896,0.9785118699073792,1.0318949148686756,1.751381923836771,0.05076628178358078,0.9815021753311157,1.2357877926517362,1.1374816324146637,-0.15921606123447418,0.929388701915741,0.9554354859699314,1.1365141960684657,-0.2221580296754837,0.9799287915229797,0.011182278394699097,1.0807986108264747,1.175289846644752,177.62291406875832,177.95221688359712,1.0,-0.011635472513354736,0.013653005350297757,0.0016802925107878605,0.11865638507187583,96.48871495943085,0.9257402004029912,91,3.033333333333333
1.0621422012706552,0.6745411119547826,-0.2980344891548157,0.9999669790267944,1.1599103689192183,0.803820570598114,-0.06661094725131989,0.9999870657920837,0.9789558274896862,0.8274821309925835,-0.09285582602024078,0.9999885559082031,1.134911270108936,1.1724430206393894,0.013611003756523132,0.9999905228614807,1.0208787889905413,1.1774388450736744,-0.013759851455688477,0.9999906420707703,1.1304978415305742,1.456195680909818,0.0318748876452446,0.979489266872406,1.0228266393345269,1.4730439269001,-0.07064375281333923,0.9749512076377869,1.1189724734081805,1.6745411119547826,0.28142762184143066,0.9770740866661072,1.0299239805655476,1.7519691555573824,0.025496769696474075,0.9829820990562439,1.2295554628007772,1.1486809367737458,-0.17702850699424744,0.9355916380882263,0.9552796687822055,1.128702377085566,-0.2942066192626953,0.978533148765564,0.011013507843017578,1.0778950295497387,1.174940932856532,177.8695398066939,178.91994262704748,1.0,-0.02017816622706446,-0.0004929077428996104,-0.06526423050063367,-0.10801071401474907,96.38827785821427,0.9300060291317225,92,3.066666666666667
1.0547045431867785,0.6702698821514989,-0.34049227833747864,0.9999682307243347,1.1558275285952635,0.8022317509600959,-0.09892153739929199,0.9999878406524658,0.9738318221488133,0.8248617013515763,-0.12580052018165588,0.9999884366989136,1.1303881663194322,1.1696385486138323,0.014706340618431568,0.999990701675415,1.0158115737369848,1.174646672329909,-0.014860416762530804,0.9999909400939941,1.128073638672287,1.451725630097445,0.03916727751493454,0.977997362613678,1.0195896734453946,1.4687600731971284,-0.07322625815868378,0.9765030741691589,1.1160681444159977,1.6702698821514987,0.27441760897636414,0.9755277633666992,1.0278114464865136,1.750735618876151,0.0309678353369236,0.9841454029083252,1.2199931954215895,1.1578467993759616,-0.1825496405363083,0.9403256773948669,0.952082915180534,1.1244643758089699,-0.29090720415115356,0.9786764979362488,0.010557562112808228,1.0730998700282084,1.1721426104718706,177.3257800911245,179.06582238241162,1.0,-0.018390441743519576,-0.0008086268581609743,0.013794463520599168,-0.0025098938509475733,96.46365198836389,0.9328450189632347,93,3.1
1.0458508827242936,0.6585739461181911,-0.3662707805633545,0.9999651908874512,1.1458352564782146,0.7953483272969583,-0.1305021345615387,0.9999884963035583,0.9630395186684789,0.8141398557271778,-0.14046776294708252,0.9999857544898987,1.1202277536468697,1.160093016451081,0.01414123922586441,0.9999908208847046,1.0058778286407963,1.1624826964543649,-0.014319087378680706,0.9999909400939941,1.1194061544315952,1.441511874519531,0.02075565978884697,0.9771142601966858,1.0117063613286763,1.4559994284968547,-0.09494039416313171,0.9776482582092285,1.1073864434099274,1.6585739461181912,0.24058762192726135,0.9747238159179688,1.0210083236565441,1.7385883199806014,-0.003495702985674143,0.9851696491241455,1.2075659707689592,1.1576837957097041,-0.20395997166633606,0.9433935880661011,0.9481539807623971,1.1173508240703574,-0.28543874621391296,0.9557474851608276,0.008827179670333862,1.063052791143833,1.161287856452723,176.99778376635786,179.2522849967258,1.0,-0.02009148265505379,-0.021058749276577474,-0.01354633217082013,-0.15020315779813942,95.21314579546541,0.9361833099724317,94,3.1333333333333333
1.0413093264074518,0.6533691909739081,-0.4048968255519867,0.9999582171440125,1.1432417479067656,0.7934415288128505,-0.1598433256149292,0.9999892115592957,0.9578420534581302,0.8091739229998152,-0.17113307118415833,0.9999777674674988,1.1148420964462733,1.1576037130106496,0.013399941846728325,0.999991238117218,0.9984070961965117,1.159339826210143,-0.013565441593527794,0.9999910593032837,1.1173625058428105,1.4377155936102273,0.028832506388425827,0.9761102199554443,1.009654225281802,1.452683951107983,-0.08013352006673813,0.9782624244689941,1.1059196825740312,1.653369190973908,0.2656409442424774,0.974099338054657,1.0245793413925233,1.735979233497982,0.032130368053913116,0.9860413074493408,1.2005405743177944,1.162646431132583,-0.20370860397815704,0.9458007216453552,0.9478260060285965,1.1342931232962625,-0.2867993414402008,0.8786435723304749,0.007405698299407959,1.0566245963213925,1.1584717696103963,176.44714377296313,179.1799261019076,1.0,-0.03173604920120565,-0.0028848344290169753,-0.0883112283764264,0.13699887005252356,95.31350862473244,0.9423070669108591,95,3.1666666666666665
1.0384570036915655,0.6504874746419432,-0.45434316992759705,0.9999604225158691,1.1395172484729532,0.7905357021272856,-0.19491171836853027,0.999989926815033,0.9528581799248208,0.8047606798124485,-0.21091556549072266,0.9999772906303406,1.1096645829791734,1.1554715272540672,0.012868614867329597,0.9999916553497314,0.9928972469316665,1.156522358679705,-0.013037847355008125,0.9999914169311523,1.115959456442873,1.4352249542307975,0.03176652640104294,0.9765617847442627,1.0084394622287045,1.4498340524635587,-0.06683961302042007,0.979178786277771,1.1060974964456523,1.6504874746419431,0.26952770352363586,0.9748206734657288,1.025339881252635,1.7313500338950347,0.06016439199447632,0.9870237112045288,1.1963873196977282,1.1641434468977683,-0.2239910066127777,0.947386622428894,0.944727860138143,1.1537111222559735,-0.32863250374794006,0.8500537276268005,0.006705820560455322,1.0512809149554199,1.1559969429668862,176.08788203761227,179.5976452296034,1.0,-0.028699039325901878,-0.006003196941778038,0.022506081109721292,-0.02349531521889516,95.19213723719227,0.9449717727580543,96,3.2
1.0335738815579554,0.6438848748472401,-0.48219504952430725,0.9999640583992004,1.131732943545997,0.7882321597253664,-0.22119469940662384,0.9999907612800598,0.9452676277665463,0.8001206945041751,-0.23155054450035095,0.9999792575836182,1.1025077215475634,1.1534262987901542,0.012559848837554455,0.9999921321868896,0.9849149526239389,1.153769338551237,-0.01271272636950016,0.9999920129776001,1.1134416094618438,1.4339179302595122,0.036699920892715454,0.9781875610351562,1.0051409300665521,1.4504714904951501,-0.03264554962515831,0.9808710813522339,1.1106913638478972,1.64388487484724,0.3351203203201294,0.9755322933197021,1.0231554361082138,1.7273530068317882,0.12215334177017212,0.9880983829498291,1.1889176717185157,1.168111175150805,-0.266465425491333,0.9515987634658813,0.9216019200137215,1.1857242490014641,-0.3316863477230072,0.8643074631690979,0.005618661642074585,1.0437113370857511,1.1535978186706957,177.0172304417258,179.8227600511245,1.0,-0.039683648405422066,0.0043434153049714905,-0.08955046285326007,0.08366991338988049,94.7425738670049,0.9573439027320426,97,3.2333333333333334
1.0321430291056302,0.6423239951552565,-0.4834194779396057,0.9999673962593079,1.1296102667265666,0.7888044725213901,-0.22456221282482147,0.9999915361404419,0.9434741011127222,0.8003061631520947,-0.2332109659910202,0.9999811053276062,1.1002521510649734,1.1542406366901161,0.011800837703049183,0.9999924898147583,0.9829022305496379,1.1546135908142976,-0.011946341022849083,0.9999925494194031,1.114279264892907,1.4352392929824738,0.032426219433546066,0.9796276092529297,1.0056223307512413,1.4535669275641685,-0.01944170892238617,0.9823137521743774,1.1172784218651328,1.6423239951552564,0.3270047605037689,0.9760777950286865,1.0238455255570442,1.7271916939393315,0.13843010365962982,0.9890280365943909,1.187894981924346,1.1703271388240637,-0.27130019664764404,0.9548637270927429,0.9152020329091942,1.1907548017212433,-0.33510535955429077,0.8771771788597107,0.005431801080703735,1.0415771908073055,1.1544271137522069,177.97197871179964,179.46417024069436,1.0,-0.023331064152495955,-0.0002191399301091269,0.13138143058128593,-0.03661682782954778,94.77521084588669,0.964350501158448,98,3.2666666666666666
1.034089227915553,0.6415973918439589,-0.4739936888217926,0.9999702572822571,1.1292537926870405,0.7878814405756018,-0.2076687067747116,0.9999921321868896,0.9423721435738187,0.7992209029457568,-0.22897307574748993,0.9999827742576599,1.1003787010288426,1.1569214281228002,0.01158719602972269,0.999992847442627,0.9823688621265259,1.1572560244254035,-0.011734481900930405,0.999993085861206,1.1187583479089345,1.4389427212242911,0.023774391040205956,0.9808335304260254,1.0062733960455776,1.4575266679261993,-0.02386075258255005,0.9835043549537659,1.1199377208122125,1.641597391843959,0.3318614363670349,0.9754726886749268,1.0261518319590321,1.730261110984961,0.14783570170402527,0.989772379398346,1.184601966705201,1.1700419042337311,-0.24800178408622742,0.9575284719467163,0.907546930293976,1.1947887479754236,-0.33056291937828064,0.8890669345855713,0.00534290075302124,1.0413737815776842,1.1570887262741019,176.60467807769115,179.61695558252575,1.0,-0.01869716039540364,5.006115943126561e-05,0.03372788336916352,0.0019405809736594184,94.63637629754244,0.9731075655217704,99,3.3
1.0370804467451848,0.6415093860775034,-0.4906652867794037,0.999972939491272,1.130041729294447,0.7903813246655851,-0.21168887615203857,0.9999927282333374,0.9424948496647761,0.7996417130519361,-0.2508043646812439,0.9999843239784241,1.101540564084636,1.1610288869248422,0.015448154881596565,0.999993085861206,0.9829889519202645,1.1608684921303132,-0.015599535778164864,0.9999935030937195,1.1236651479496051,1.4448307257547215,0.022670557722449303,0.9808767437934875,1.0064226440904225,1.465001640112911,-0.027692068368196487,0.9838698506355286,1.122703921233974,1.6415093860775034,0.35675132274627686,0.9701847434043884,1.0286097870010424,1.7360078065567717,0.15648557245731354,0.9899542331695557,1.1858681273082923,1.1808724131739452,-0.23499102890491486,0.9598140120506287,0.9004537116992395,1.1932301722404068,-0.3590402603149414,0.8997837901115417,0.004349768161773682,1.0422647580024504,1.1609486895275778,175.26234024309946,179.72563896325082,1.0,-0.018082412591618115,0.002032198867170844,0.0051868883073840025,0.015278534796844257,94.31962160691639,0.9822222145596218,100,3.3333333333333335
1.0366239032497777,0.6403561205024139,-0.46099767088890076,0.9999750256538391,1.1273807056192124,0.787488859024577,-0.1930624544620514,0.9999930262565613,0.9399875327632841,0.7967723709391097,-0.22164642810821533,0.9999856948852539,1.098379030889266,1.16091412194906,0.015353660099208355,0.9999932646751404,0.9787763308217036,1.1605412972776314,-0.015525272116065025,0.9999939203262329,1.1232645385765074,1.4440775678283388,-0.030104130506515503,0.9815790057182312,1.0046263748781883,1.465351534720899,-0.030148964375257492,0.9843558073043823,1.1217903652159529,1.640356120502414,0.33394119143486023,0.9662037491798401,1.0277992231952509,1.7368304346711976,0.1494537889957428,0.9902374148368835,1.1776350357259653,1.1795688020720883,-0.21791870892047882,0.9573593139648438,0.8945888031833316,1.1892259632107423,-0.34039464592933655,0.9094650745391846,0.004362016916275024,1.0385776808554847,1.1607277096133457,174.54720880298012,179.96866731822496,1.0,-0.026096577172888893,0.0011527776363867565,-0.062370833137165696,-0.006834227531442112,94.2622997984117,0.983494095066945,101,3.3666666666666667
1.0301523597217943,0.6336268859134544,-0.4320446848869324,0.9999762773513794,1.1189842794494973,0.7786311803517171,-0.16468404233455658,0.9999930262565613,0.9330543634966633,0.7870949718662753,-0.18861117959022522,0.9999868869781494,1.089837958799242,1.1542663225063556,0.010816292837262154,0.9999934434890747,0.971211092115086,1.154114757805724,-0.011016866192221642,0.9999942779541016,1.1152947760048364,1.4352677818524977,-0.049036044627428055,0.9825421571731567,0.9965504529823791,1.4590378428182007,-0.024450521916151047,0.9848630428314209,1.114723319080325,1.6336268859134544,0.26632794737815857,0.9659745693206787,1.022026562533395,1.7286087766427447,0.1613759696483612,0.990631639957428,1.16508693250636,1.1716997937043023,-0.180051788687706,0.9497618675231934,0.8823997887172942,1.1797505020580707,-0.29941654205322266,0.9181226491928101,0.004000842571258545,1.030524525457164,1.1541905401560397,174.65845915187577,179.35164330869193,1.0,-0.013515445622667042,0.0031181775633735117,0.09192233990820822,0.014591878460324741,94.36360585081484,0.9853804645252809,102,3.4
1.019880826981601,0.6252742194328283,-0.37749168276786804,0.9999732375144958,1.1061806472168283,0.7703551672435126,-0.12049281597137451,0.9999904036521912,0.9219396325071167,0.7740267140598216,-0.15012112259864807,0.9999879598617554,1.0773752284030962,1.1415339490474914,0.00987378042191267,0.9999934434890747,0.9599007059990167,1.142272127137854,-0.01009217370301485,0.9999946355819702,1.103487513964077,1.4179591179127493,-0.08207878470420837,0.9831361174583435,0.9849041644538483,1.4474892366708156,-0.026888418942689896,0.9846355319023132,1.0988079765415364,1.6252742194328285,0.2000325620174408,0.9653505682945251,1.0118995805738233,1.7122212402727253,0.1586083620786667,0.9906298518180847,1.1442824924561381,1.145956403314301,-0.17622436583042145,0.8749250173568726,0.8677719619993657,1.1659746949056289,-0.24117648601531982,0.9258768558502197,0.0017535686492919922,1.0186379672010564,1.1419030380926727,173.31054633960045,178.86075142181485,1.0,-0.009731753611139706,-0.0031863455638305987,0.02741450862918733,-0.047179067891076065,94.79758495798461,0.978235657047987,103,3.433333333333333
0.9793828606673959,0.5989911076429413,-0.3463841378688812,0.9999661445617676,1.0609654651519023,0.7397176692509004,-0.09168461710214615,0.9999836683273315,0.8844548313814095,0.7400227116399312,-0.1248461976647377,0.9999887943267822,1.0330521695570811,1.0948810029161142,0.009777798317372799,0.9999931454658508,0.9198685034867208,1.0965073365330436,-0.010006459429860115,0.9999948740005493,1.0591880480893456,1.3603120921510772,-0.10815794765949249,0.983756959438324,0.9447417988706722,1.3920186485615742,-0.03337438404560089,0.9843798875808716,1.0521822571962627,1.5989911076429413,0.12866206467151642,0.9664506912231445,0.975415452517684,1.6433922678583688,0.14381591975688934,0.9906725883483887,1.0889465745692655,1.0775570873172455,-0.17928095161914825,0.7964336276054382,0.8281264059237171,1.1188708016085056,-0.2066490203142166,0.9327898025512695,0.00015175342559814453,0.9764603365219009,1.0956941697245788,172.69517090355853,177.85419096386303,1.0,-0.010916925629529292,-0.004360346978087564,-0.011558862609122032,-0.009556617900426407,95.31702596828384,0.9428410707494993,104,3.466666666666667
0.9502655385684745,0.5787321564939842,-0.32548272609710693,0.99996417760849,1.0283825801119806,0.7172192085102524,-0.07161550223827362,0.9999805688858032,0.8562424519979032,0.7163289074968007,-0.10648965835571289,0.9999895691871643,1.0010010147304456,1.0602763832821707,0.00978495366871357,0.999993085861206,0.8903031637970213,1.062720453966922,-0.010015479288995266,0.9999951124191284,1.0251032456263722,1.3248658940147175,-0.06335078179836273,0.9836822748184204,0.9167805380977233,1.3501087377241445,-0.029470782727003098,0.9837772846221924,1.0182043571804675,1.5787321564939842,0.16078045964241028,0.9680798053741455,0.9476186380294934,1.5951606772773608,0.14188715815544128,0.9906406998634338,1.0583135249736437,1.0441327541737038,-0.16866250336170197,0.7373546361923218,0.80126138084705,1.083413167318938,-0.19233804941177368,0.939044713973999,0.0004565417766571045,0.9456520892637335,1.0614984186245462,173.23847890525587,178.09128318955112,1.0,-0.012963056091519582,-0.011607202391347448,-0.018617365983502165,-0.05789851443032021,95.82827859332163,0.9165080171926111,105,3.5
0.9327662672151489,0.5658817785731557,-0.33954307436943054,0.9999600648880005,1.0095729983117614,0.7017461750815926,-0.0791371688246727,0.9999755024909973,0.8403719201708443,0.7000159543317095,-0.11466336250305176,0.9999901652336121,0.9827702914486208,1.0396827067308057,0.009785840287804604,0.9999927282333374,0.8728561259813811,1.0424485044995835,-0.010016962885856628,0.999995231628418,1.0007609822643388,1.30004302592924,-0.07356210052967072,0.9833676218986511,0.8998506042539143,1.324528732599183,-0.029148761183023453,0.9819309711456299,0.9982591696480504,1.5658817785731556,0.11839763820171356,0.9694926142692566,0.931104495510855,1.5675834218465055,0.13920347392559052,0.9901939034461975,1.0374942766615736,1.0257384953268411,-0.15526099503040314,0.6755582094192505,0.7854165771837998,1.0574294907807407,-0.19788266718387604,0.9446591734886169,0.0009039938449859619,0.927813208715001,1.0410656056151946,175.50799486153412,178.1391026490528,1.0,-0.0023078675645704706,-0.0055222658359193755,0.07472819100663826,0.042116783878691784,95.97624218493269,0.9017940976408471,106,3.533333333333333
0.9295974113188865,0.5632013273072493,-0.32428663969039917,0.999951183795929,1.0064361783304814,0.6993653627487173,-0.06364496797323227,0.9999679327011108,0.837860541227833,0.6942205693404644,-0.1068943589925766,0.9999905228614807,0.9797134910221181,1.0360227617960367,0.009908579289913177,0.9999921321868896,0.869522036955094,1.0387101156306742,-0.010144832544028759,0.999995231628418,0.9919451570649753,1.3031702874610331,-0.049520548433065414,0.9804770946502686,0.8968736491826675,1.3200510529021632,-0.026963790878653526,0.9770666360855103,0.9944920045823703,1.579964435759426,0.12569543719291687,0.9705656170845032,0.9286849160045619,1.5632013273072494,0.14021511375904083,0.988711953163147,1.036430866714241,1.0236222835516382,-0.1170819029211998,0.6167713403701782,0.7823111527173506,1.0471785768790376,-0.19640177488327026,0.9495121836662292,0.002697557210922241,0.9246177639886061,1.0373664387133554,177.90565266715834,178.09912058578382,1.0,0.000624021643775911,-0.00012356864233186357,0.02118733783674475,0.03898114166017929,95.93547793639101,0.8855176548531667,107,3.566666666666667
0.9301558779070948,0.5632070129395985,-0.2991233468055725,0.9999488592147827,1.0065419136306857,0.6995285362862649,-0.03828028589487076,0.9999632239341736,0.8383489634205306,0.6927808252283542,-0.08323200792074203,0.9999906420707703,0.980253623157509,1.0359230779245137,0.00984235480427742,0.9999905228614807,0.8705050388249354,1.0383365928348498,-0.010083016008138657,0.999994695186615,0.9881117875706654,1.3044963383691737,-0.046933114528656006,0.9780384302139282,0.8968024253169948,1.3202042533780198,-0.024896003305912018,0.9720152020454407,0.99502919623086,1.5877240811358062,0.11078187078237534,0.9710514545440674,0.9286529313370528,1.5632070129395985,0.14317217469215393,0.9864034056663513,1.0371813984367242,0.9956680778571462,-0.10362932831048965,0.584050714969635,0.7832094086035718,1.0362933995932828,-0.17639073729515076,0.9540573954582214,0.0035373270511627197,0.9253793309912222,1.0371298353796818,179.72314981802916,177.86286832734373,1.0,0.004527197414896583,-0.003396778236961087,0.03032198948290575,-0.025428670654970256,95.72822919824812,0.8783772664415946,108,3.6
