nose_x,nose_y,nose_z,nose_visibility,left_shoulder_x,left_shoulder_y,left_shoulder_z,left_shoulder_visibility,right_shoulder_x,right_shoulder_y,right_shoulder_z,right_shoulder_visibility,left_hip_x,left_hip_y,left_hip_z,left_hip_visibility,right_hip_x,right_hip_y,right_hip_z,right_hip_visibility,left_knee_x,left_knee_y,left_knee_z,left_knee_visibility,right_knee_x,right_knee_y,right_knee_z,right_knee_visibility,left_ankle_x,left_ankle_y,left_ankle_z,left_ankle_visibility,right_ankle_x,right_ankle_y,right_ankle_z,right_ankle_visibility,left_wrist_x,left_wrist_y,left_wrist_z,left_wrist_visibility,right_wrist_x,right_wrist_y,right_wrist_z,right_wrist_visibility,trunk_lateral_inclination,center_mass_x,center_mass_y,left_knee_angle,right_knee_angle,person_height,center_mass_velocity_x,center_mass_velocity_y,center_mass_acceleration_x,center_mass_acceleration_y,body_orientation,torso_leg_ratio,frame,timestamp
0.9374701593454766,0.44024766732552767,-0.1540573388338089,0.99993896484375,0.8777600016291014,0.5646888491307417,0.0972551479935646,0.9999805688858032,0.8717821380417823,0.5678774256964583,-0.3243909180164337,0.9999815821647644,0.8769198964282852,0.9084776457249616,0.13510504364967346,0.999963104724884,0.8771336161567722,0.9094227640758797,-0.1352515071630478,0.9999744296073914,0.8965812130476244,1.1863023122957321,0.22493772208690643,0.9020304083824158,0.882627740461397,1.2068134168873323,-0.1141720786690712,0.9781942963600159,0.876129103486167,1.4402476673255278,0.30880457162857056,0.8854453563690186,0.8718409334271531,1.4796618376921942,-0.1085493341088295,0.9835517406463623,0.9459092436827153,0.946642638752867,0.07221220433712006,0.8903173208236694,0.9357030036456133,0.9631310010099031,-0.49732452630996704,0.9851244688034058,0.001903921365737915,0.8770267562925287,0.9089502049004207,171.34747820148525,176.6776571920027,1.0,0.41082561160707737,-0.3492506176912772,2.534942639645428,-2.090938711355929,167.11798876789624,0.8576611431323876,0,0.0
0.9748850001304004,0.48926893427050816,-0.1417030543088913,0.9999272227287292,0.9101926445814308,0.5916782501737851,0.09465203434228897,0.9999701976776123,0.9151713965864978,0.5957452886982941,-0.3181101679801941,0.9999828934669495,0.9188899058789601,0.9379305317258818,0.13431689143180847,0.9999597668647766,0.9294933452019237,0.9401934311313341,-0.13447341322898865,0.9999746680259705,0.9320692053994966,1.213507130616696,0.23881825804710388,0.8374917507171631,0.9352384259855763,1.2400851547857104,-0.10596366971731186,0.9697895050048828,0.9106714185964144,1.489268934270508,0.3198491334915161,0.8473535180091858,0.9184985493416961,1.5165946215645023,-0.06907794624567032,0.9790880680084229,0.9867931686403953,0.9828261987588274,0.07384248077869415,0.8171479105949402,0.9842878231342215,0.9969950890146874,-0.47213563323020935,0.9865193963050842,0.0023376941680908203,0.924191625540442,0.939061981428608,172.8249614740122,175.4380517182888,1.0,0.10255775340830112,-0.04050357727382616,-2.535629931963865,2.520680426827437,103.48574570275134,0.8026207994816601,1,0.03333333333333333
0.9820894169307638,0.4896872620628418,-0.15956750512123108,0.9999191761016846,0.9122552049311651,0.5957439694593337,0.07164164632558823,0.999965250492096,0.9201573331707291,0.6015820217845528,-0.33114564418792725,0.9999842643737793,0.9298096826134453,0.9480523768587102,0.13300126791000366,0.9999585151672363,0.9402537366941016,0.9522539718373687,-0.13312935829162598,0.9999757409095764,0.9374372336218776,1.219046855008356,0.26952725648880005,0.7647438049316406,0.9415046696646564,1.246866473415901,-0.11248022317886353,0.9586321115493774,0.9161834745505663,1.4896872620628419,0.3607872724533081,0.7934629917144775,0.9250438063873737,1.5211138363086762,-0.07981930673122406,0.9721047282218933,0.9811718991694404,0.9865021609655813,0.06266603618860245,0.7420229315757751,0.9912690804182149,1.0049926215193332,-0.4501165449619293,0.9876717925071716,0.0033355653285980225,0.9350317096537735,0.9501531743480395,173.89744920210958,176.3218381089684,1.0,0.041706532237691496,0.042984104692639274,-0.48612882362263704,0.6621940584848899,114.76721524011312,0.8333344907211581,2,0.06666666666666667
0.986603103709323,0.4938491353128458,-0.13450923562049866,0.9999163746833801,0.9150559328233409,0.6046769909357138,0.08946740627288818,0.999961256980896,0.9279045651027784,0.6058654983211018,-0.3205628991127014,0.9999855756759644,0.9341449225166789,0.9586698559127836,0.135273739695549,0.9999577403068542,0.9423207728192973,0.9610488599924898,-0.13537923991680145,0.9999768137931824,0.9379910942827209,1.2329190213584247,0.26010996103286743,0.6982054710388184,0.9405789758001092,1.2522856766982455,-0.11795266717672348,0.9509252309799194,0.9205751133997703,1.4938491353128458,0.3513699471950531,0.7442241907119751,0.9308707294183349,1.528797942803285,-0.09938487410545349,0.9663731455802917,0.9782069636177907,0.9942913639230764,0.06623883545398712,0.6745640635490417,0.9960490754137069,1.0090976855908753,-0.4427213668823242,0.9887458086013794,0.0006766021251678467,0.9382328476679881,0.9598593579526368,175.3779285271963,178.3318559049127,1.0,-0.0014398843721772072,0.04871954820725237,-0.336694752439579,0.043390078284468316,109.3105812413801,0.8493603960901969,3,0.1
0.9990470831457854,0.5044587476791932,-0.09875822812318802,0.9999218583106995,0.9184399005124697,0.6171405031324664,0.12596742808818817,0.9999611377716064,0.9419230623264232,0.6178512419297834,-0.3069833219051361,0.9999868869781494,0.9455097781841936,0.973041007969561,0.14192430675029755,0.9999597668647766,0.9576470914993117,0.9753881580495661,-0.14204242825508118,0.9999786019325256,0.9462826913874508,1.2446986380571818,0.30204764008522034,0.6449949145317078,0.9542597789792627,1.268829304170339,-0.1223163977265358,0.9518661499023438,0.9320889052661351,1.5044587476791933,0.42282533645629883,0.7140957117080688,0.9453851113446612,1.5493426262426666,-0.11119057238101959,0.9667367339134216,0.9851608297638264,1.0061887120961392,0.10976622998714447,0.6155988574028015,1.0093759852231632,1.0196230481847937,-0.4248517155647278,0.9897837042808533,0.00039961934089660645,0.9515784348417526,0.9742145830095635,176.70934398256676,178.84928352628606,1.0,0.010940531808166409,0.015940320073960616,0.08384790144594474,-0.2257975829479352,105.29448462078352,0.8540456772428381,4,0.13333333333333333
1.0008187867483265,0.4975443284343511,-0.16450540721416473,0.9999229311943054,0.918241897025488,0.6166863293444673,0.07903456687927246,0.9999613165855408,0.9426998666610866,0.6175654549971896,-0.35694557428359985,0.9999880790710449,0.9464714984761645,0.9713437352165711,0.14452460408210754,0.9999609589576721,0.9591926771137556,0.9736469967489038,-0.1445935070514679,0.999980092048645,0.9458663082708798,1.2422477221931152,0.3049539029598236,0.5871785283088684,0.9570662472432961,1.2655086612020845,-0.13015474379062653,0.9495512247085571,0.9323099205317028,1.497544328434351,0.4420231282711029,0.668479323387146,0.9432143630961115,1.5484277715767207,-0.09775622934103012,0.9636362195014954,0.9878675892144341,1.004815139926396,0.0762576013803482,0.5595885515213013,1.0091154655657686,1.0196331881985792,-0.44881120324134827,0.9906813502311707,0.0004945695400238037,0.95283208779496,0.9724953659827374,177.08841446495063,177.61443870798763,1.0,0.013817714076747296,-0.009172862295455182,0.022391477418112034,-0.19496366980335617,104.81360427427111,0.8668425304086894,5,0.16666666666666666
0.9982479598659063,0.49700672237724375,-0.14854943752288818,0.9999274015426636,0.9095546845617394,0.6154288014314199,0.08838687837123871,0.9999617338180542,0.9417243448757355,0.6169196173619979,-0.34383755922317505,0.9999891519546509,0.9434734801713348,0.966204422357813,0.14279913902282715,0.9999610185623169,0.9570895673147995,0.9687318431089335,-0.14290712773799896,0.9999812245368958,0.9430921540998864,1.233803214726665,0.27486199140548706,0.537804365158081,0.9534316890521444,1.259274528733527,-0.1330098658800125,0.9480354189872742,0.9294181814475149,1.4970067223772439,0.39194968342781067,0.6315849423408508,0.9400288698694148,1.5453879166218398,-0.11916515976190567,0.9613428115844727,0.97820626434231,1.0023899426674667,0.08658888936042786,0.5097703337669373,1.0071286321110249,1.01685276382443,-0.4421612620353699,0.9915475845336914,0.0008412301540374756,0.9502815237430672,0.9674681327333733,177.10768406212568,178.03927749014545,1.0,0.00244516634270948,-0.015529516145746589,-0.08425588448004087,-0.04747426875787189,106.03870623416867,0.8536885435909748,6,0.2
0.9947432715516715,0.4934131279264527,-0.17862331867218018,0.9999297261238098,0.9093728950261506,0.6121684685908977,0.07275797426700592,0.9999626874923706,0.9361704611767616,0.614591252733179,-0.36198073625564575,0.9999901056289673,0.9407999836756057,0.9621631673700601,0.1433381587266922,0.9999609589576721,0.9514730031121532,0.9628695760832476,-0.1434243768453598,0.9999820590019226,0.9403153006276056,1.2251817666612954,0.26592686772346497,0.48826873302459717,0.9458822136046997,1.2536065130967502,-0.12702663242816925,0.9375619292259216,0.9256553213528548,1.4934131279264526,0.38846421241760254,0.5817437767982483,0.9343572122478396,1.5394421348605336,-0.09009528160095215,0.9496814012527466,0.9773923967871236,0.9984869432192968,0.07987672835588455,0.46686726808547974,1.0031283513918439,1.012994827943829,-0.4601832330226898,0.9922655820846558,0.0013729333877563477,0.9461364933938794,0.9625163717266539,176.97723840688204,178.79270894506627,1.0,-0.0008891765659044353,-0.0063796451398851406,-0.024866978665081516,0.06795867867789783,98.91768014975538,0.8510630550094602,7,0.23333333333333334
0.9927581840851725,0.49162582398059784,-0.17074647545814514,0.999931812286377,0.9093149656850081,0.610271317300712,0.08347616344690323,0.9999626278877258,0.9340416766442937,0.6149160294801889,-0.35207897424697876,0.9999909400939941,0.938462823519091,0.9605133617652855,0.1434400975704193,0.9999607801437378,0.9464208249323638,0.9605642555333068,-0.14352494478225708,0.9999827742576599,0.9381085609194206,1.2237569170926876,0.26066190004348755,0.4451400339603424,0.9421473224526304,1.2505989199607876,-0.11263121664524078,0.9296585917472839,0.9236175835974737,1.4916258239805977,0.3778233230113983,0.541437566280365,0.9316836686830393,1.5339362793234677,-0.07196174561977386,0.941055417060852,0.9771437661850052,0.9960111878143739,0.08823554217815399,0.4257882237434387,1.0000195180223752,1.010548546673363,-0.45507940649986267,0.9929251670837402,0.0026382505893707275,0.9424418242257274,0.9605388086492962,176.9805792224513,178.72918792183975,1.0,-0.011329381346210152,0.0022038340338247577,-0.0804943126623155,0.06605000107079181,95.12372746263446,0.8536729548643557,8,0.26666666666666666
0.9890161333868239,0.4890465765051269,-0.1756141632795334,0.9999353289604187,0.9072303688611766,0.6085773053908611,0.08168760687112808,0.9999633431434631,0.9307053374717825,0.6150715580808889,-0.3597363531589508,0.9999917149543762,0.9365104186926086,0.9586525912486008,0.14471431076526642,0.9999597072601318,0.9446877072677696,0.9589201137499394,-0.14480316638946533,0.9999831914901733,0.9361944175540412,1.2192155287440887,0.25837451219558716,0.40548932552337646,0.9394907554746438,1.2482835499785694,-0.10439421981573105,0.9186418056488037,0.9215843384055984,1.4890465765051268,0.3797372877597809,0.5022355914115906,0.9290471167854035,1.5315530225671197,-0.0469234362244606,0.9297551512718201,0.9724988439206192,0.9939652473088466,0.08716891705989838,0.39127784967422485,0.9975666969980991,1.0082490641816846,-0.4631604254245758,0.9935600161552429,0.003696918487548828,0.9405990629801891,0.95878635249927,176.9702161900196,178.91748193844327,1.0,0.0017221478338389125,0.002721468486192738,0.10014346142321252,0.0040165019452621095,96.65483129464872,0.8559096651170135,9,0.3
0.9820798850457286,0.4840147971099642,-0.18367834389209747,0.9999352097511292,0.8981434184634873,0.5983108585667994,0.07167863845825195,0.9999617338180542,0.9259646205379016,0.6121531784013734,-0.37299031019210815,0.9999923706054688,0.931814495296624,0.9533770736115148,0.14394314587116241,0.9999568462371826,0.942872297263206,0.9553580624567639,-0.14403851330280304,0.9999832510948181,0.9324168293253483,1.2116902839705759,0.27325156331062317,0.36986494064331055,0.9350790665052658,1.2434592862644074,-0.07598186284303665,0.9083529114723206,0.9174041384038085,1.4840147971099642,0.41278719902038574,0.46621131896972656,0.9240843334357726,1.5254894250660191,0.00348217086866498,0.9180523157119751,0.969727867612443,0.9867973343018492,0.08296360820531845,0.35929641127586365,0.9932594464698306,1.0039817844515675,-0.46356385946273804,0.9941478967666626,0.007914602756500244,0.937343396279915,0.9543675680341394,176.7109934247016,179.31698899388783,1.0,0.006332240495494099,-0.0015438388856159762,0.03357159097997329,-0.030923169743917265,105.573894311089,0.8580532636334435,10,0.3333333333333333
0.9796488180311534,0.48177029790825765,-0.17873641848564148,0.9999357461929321,0.890084888329145,0.5907462523192794,0.06729413568973541,0.9999595880508423,0.9240277339610752,0.610655689091292,-0.3700703978538513,0.9999929666519165,0.9259529751286685,0.9509154546203707,0.14160528779029846,0.9999560713768005,0.9424727159520636,0.9538251148922497,-0.14172230660915375,0.9999838471412659,0.9309324023197372,1.2069552575742315,0.2906937897205353,0.338894248008728,0.9330489918366361,1.242060344131526,-0.0577329583466053,0.9024046063423157,0.9146049462976019,1.4817702979082576,0.44506120681762695,0.43676087260246277,0.9219373650988935,1.5227935527155858,0.023961305618286133,0.9122232794761658,0.9647922158783961,0.9840190312009143,0.09116429090499878,0.3271256387233734,0.991189964065217,1.001995162913506,-0.4471886157989502,0.9946752190589905,0.011405020952224731,0.9342128455403661,0.9523702847563102,175.4857697291398,179.60596738631284,1.0,-0.01014426833047616,-0.0015106352390901725,-0.12198959531407597,0.0002245176450021844,105.6763328487882,0.859389445532051,11,0.36666666666666664
0.9789214959967718,0.48116097490804854,-0.17558470368385315,0.9999364018440247,0.8910092526366137,0.5892155008355628,0.07329943776130676,0.9999591708183289,0.923546301953932,0.6094301244770939,-0.3650389611721039,0.9999935030937195,0.9245585569271467,0.9508455662644499,0.1424841582775116,0.9999541640281677,0.9404654802279778,0.9546006452865422,-0.1426069140434265,0.9999839663505554,0.9321315388517074,1.2051436323966733,0.29220542311668396,0.3101278841495514,0.934440212442488,1.2419063157606238,-0.06336570531129837,0.8954801559448242,0.9139778297230492,1.4811609749080485,0.44435614347457886,0.41045352816581726,0.9211413122816473,1.5200279462254627,0.01694168522953987,0.9061851501464844,0.9635812357758908,0.9811963653472837,0.09881774336099625,0.3024551570415497,0.9900321696752353,1.0014492657901037,-0.44870027899742126,0.9951549172401428,0.011583983898162842,0.9325120185775623,0.952723105775496,174.5313051402471,178.46379122992676,1.0,-0.010488602412121517,0.005317119326812924,-0.0026695959491815535,0.052379620693710494,108.58270017321804,0.8645505422523521,12,0.4
0.9819160017286719,0.48535989247527134,-0.1762908548116684,0.999938428401947,0.8929558287613631,0.5911517777288321,0.07027287036180496,0.9999600648880005,0.9253229579645722,0.6109661686723266,-0.3657780885696411,0.9999940395355225,0.9261308743142045,0.9535875156848611,0.14225831627845764,0.9999524354934692,0.9418568247500434,0.9572425889031276,-0.14239272475242615,0.9999839067459106,0.9367379702121127,1.209309465646817,0.27866509556770325,0.2848888039588928,0.9375239861572757,1.2440768791798487,-0.06796354055404663,0.8878930807113647,0.9162084267750591,1.4853598924752713,0.38692140579223633,0.3869732916355133,0.9234359774004511,1.5246688241693698,-0.0032959389500319958,0.8983546495437622,0.9669535411076849,0.9841478615193625,0.09089811891317368,0.28277072310447693,0.9926152879006314,1.0041294776941252,-0.45199069380760193,0.9955854415893555,0.01132473349571228,0.9339938495321239,0.9554150522939944,173.37159902269588,177.9911254447136,1.0,-0.007361180236345665,0.0013277855167187298,0.023699553320052674,-0.030071231702505336,108.31446439484695,0.8594137058332082,13,0.43333333333333335
0.981070108823081,0.4855232218295653,-0.16849899291992188,0.9999400973320007,0.892605038681127,0.5897416783445335,0.07584310322999954,0.9999608397483826,0.924482815186108,0.6099321592382306,-0.3631570637226105,0.9999945163726807,0.9249154966269757,0.9522288121144136,0.14275507628917694,0.9999502897262573,0.9403268948397087,0.9558476875896221,-0.14288966357707977,0.9999837875366211,0.9357722272378749,1.2082997531173667,0.2577970623970032,0.261519193649292,0.9373178157703269,1.2426888114549208,-0.08213888108730316,0.8802579641342163,0.9150491512260185,1.4855232218295653,0.36246126890182495,0.3645700514316559,0.9221790704183576,1.523822249296502,-0.030398109927773476,0.8900370001792908,0.9652118599722835,0.9823026206086494,0.0924435630440712,0.263447642326355,0.9910856475356979,1.0029854811049328,-0.4514264166355133,0.9959781765937805,0.01155102252960205,0.9326211957333421,0.9540382498520178,173.29722741933682,177.51869221908748,1.0,-0.0032039428660476923,-0.003085318995792927,0.02916755780422482,-0.03100749421969917,108.30829930700389,0.8551218685210382,14,0.4666666666666667
0.9972792499432515,0.4944838768071999,-0.15097740292549133,0.9999392628669739,0.9057076751823128,0.595082725694564,0.07902681827545166,0.9999609589576721,0.9414688131138331,0.6196517787356319,-0.36205294728279114,0.9999949336051941,0.9377984592161304,0.9642442641650651,0.14323686063289642,0.999951958656311,0.955810849930922,0.9703786096465132,-0.14336499571800232,0.9999847412109375,0.9531488873958388,1.2130761667019214,0.28424689173698425,0.23978212475776672,0.9559200570207184,1.2566406861128727,-0.15339304506778717,0.8848668336868286,0.9299971962059487,1.4944838768072,0.4211600422859192,0.34254708886146545,0.9375933913928077,1.5466996950145746,-0.14607331156730652,0.8918986320495605,0.9749040836566559,0.9940356616758003,0.09995205700397491,0.2417161613702774,1.007927523777434,1.0196074921359772,-0.448924720287323,0.996311366558075,0.01382535696029663,0.9468046545735261,0.9673114369057892,171.7667112280912,176.36285469394417,1.0,-0.01045903725796153,-0.02009365344347655,-0.05473793703206536,-0.12888500600541902,113.77508598732707,0.859204748444225,15,0.5
0.9919610723704725,0.49153881518389536,-0.15838292241096497,0.9999406933784485,0.8996051996714659,0.5923787621940558,0.07745961099863052,0.9999604821205139,0.936694505104094,0.6164282199395476,-0.36889544129371643,0.9999953508377075,0.9297133408142559,0.9546956047480978,0.1429566740989685,0.9999514222145081,0.9501360384063074,0.9619582913890141,-0.14307598769664764,0.9999851584434509,0.9480227242903163,1.2050329284746213,0.27005067467689514,0.22120440006256104,0.9520915230006237,1.2496878310119943,-0.13207827508449554,0.8828205466270447,0.9245132900517302,1.4915388151838953,0.38732120394706726,0.32222601771354675,0.9327006174684935,1.5381176996273465,-0.09003360569477081,0.8866316676139832,0.9637260241758373,0.9891848321193824,0.09257836639881134,0.22112467885017395,1.0020878696370294,1.0139153906278027,-0.44787272810935974,0.9966198801994324,0.013605326414108276,0.9399246896102817,0.958326948068556,171.12596641869027,175.76444795886164,1.0,-0.01427552017928427,-0.02971648045544386,-0.029962385919595946,-0.07528841484343195,114.3266249854658,0.8438093865953782,16,0.5333333333333333
0.9916833177050773,0.49116592405904935,-0.1584160029888153,0.9999430179595947,0.8997436804550726,0.5931875371235799,0.08393363654613495,0.9999619126319885,0.9365859622439799,0.6163783455713573,-0.3597773015499115,0.9999957084655762,0.9295315277357797,0.9549208577008725,0.14283715188503265,0.9999505281448364,0.949189906293121,0.9615718657483932,-0.1429586261510849,0.9999852180480957,0.9478230372094304,1.2075614397385805,0.25256896018981934,0.20284442603588104,0.9514213358681137,1.2485860460673843,-0.12084987014532089,0.8768760561943054,0.9243608031019294,1.4911659240590494,0.35910579562187195,0.3037649989128113,0.9331214019316977,1.5377909026227405,-0.0791463628411293,0.8815149068832397,0.9664415211441642,0.9884085184165864,0.09434104710817337,0.20694981515407562,1.0007124462854937,1.0128647338246235,-0.4465239942073822,0.996905505657196,0.013126343488693237,0.9393607170144505,0.9582463617246328,171.12969936827875,175.93389370389005,1.0,-0.0006318792987203013,0.0033167335953522893,0.10924354288424384,0.2645143456456914,113.39973593030386,0.8448178675812954,17,0.5666666666666667
0.9890977292396923,0.49024669364894313,-0.1526675522327423,0.9999433755874634,0.8977914741705386,0.5927663393597998,0.08753453195095062,0.9999629259109497,0.9334909183975346,0.6143087525347738,-0.3545715808868408,0.9999960064888,0.9255815946414077,0.9528096514480648,0.14325085282325745,0.9999504685401917,0.9443989652231509,0.9588061524127203,-0.14337320625782013,0.99998539686203,0.9457988734152183,1.2061473507866423,0.2534022629261017,0.18637420237064362,0.9492415133585163,1.2457139232474341,-0.117280974984169,0.8708307147026062,0.9229578957395007,1.4902466936489431,0.37118348479270935,0.2844606637954712,0.931061400309366,1.5339770740616545,-0.07147686183452606,0.8723593950271606,0.9644125064206217,0.9860030184667109,0.09683916717767715,0.1939164251089096,0.9970365634385778,1.0090255746318573,-0.4372710585594177,0.9971195459365845,0.012226581573486328,0.9349902799322793,0.9558079019303926,170.84068514868707,175.42429266506022,1.0,-0.013950704670500821,0.001289557545247162,-0.10235675457716144,-0.01550776016034861,112.08908754939073,0.8424263551635749,18,0.6
0.9870995347411741,0.4885555297313618,-0.14474697411060333,0.9999445676803589,0.8963934797389165,0.5906063092715551,0.10006426274776459,0.9999637603759766,0.9298328897082946,0.6105447935681486,-0.34597986936569214,0.9999963045120239,0.9183617909619026,0.9486882560991626,0.1444931924343109,0.9999513030052185,0.9381309400908379,0.9538981347574491,-0.14461645483970642,0.9999858140945435,0.941383011532927,1.2018767353914839,0.2390468567609787,0.17181909084320068,0.9462656133949553,1.2403208357882143,-0.12974300980567932,0.8686344623565674,0.9186513331930221,1.4885555297313617,0.34710925817489624,0.2673858404159546,0.9269731114046138,1.527051371429321,-0.09154410660266876,0.8646291494369507,0.960807427709432,0.9829126704568825,0.10943517833948135,0.1808016002178192,0.9919025908855555,1.0040603332840137,-0.43854227662086487,0.9973189234733582,0.011369466781616211,0.9282463655263703,0.9512931954283058,170.27097425037292,174.52387117570316,1.0,-0.01573368879406013,-0.00027604790323264923,-0.012279517634209354,-0.010361440625402915,108.27450467292579,0.8381544693588858,19,0.6333333333333333
0.9830156938616924,0.486920535116765,-0.12778456509113312,0.9999485611915588,0.8952901998640773,0.5908940442248403,0.12286555767059326,0.9999657273292542,0.9258654211903654,0.6070314052825725,-0.3292010724544525,0.9999966025352478,0.909978616234186,0.9461430620792094,0.1460256427526474,0.9999536275863647,0.9273361330367181,0.9488887371941311,-0.1461547315120697,0.999986469745636,0.9356831890310975,1.2051353662716682,0.21971718966960907,0.1668194830417633,0.9419183630764154,1.2362927422058765,-0.12894216179847717,0.8759987354278564,0.9153219082244638,1.486920535116765,0.30858734250068665,0.27322128415107727,0.9236747826479068,1.5179785821548157,-0.09614698588848114,0.8711473345756531,0.9550706102732054,0.9774250147356911,0.11898750066757202,0.1775464415550232,0.985525203096942,0.9980519691693912,-0.4380332827568054,0.9975358247756958,0.009257525205612183,0.918657374635452,0.9475158996366703,170.1991417152615,173.38980646978465,1.0,-0.030397443314289608,0.014618788795196314,-0.1116564365103746,0.11267776372748493,101.35642550039745,0.8380605034213817,20,0.6666666666666666
0.986249375728317,0.49153165057432996,-0.12258662283420563,0.9999524354934692,0.8966547361411686,0.5923373252039288,0.11572617292404175,0.9999673366546631,0.9289486224404861,0.607867591976028,-0.3259749710559845,0.9999969005584717,0.9069359705343766,0.9503453262859997,0.1456441879272461,0.9999548196792603,0.9254428167138339,0.9532652530381222,-0.145765483379364,0.9999868273735046,0.9382161436657234,1.208833444314966,0.21066820621490479,0.1605263650417328,0.9464734892625271,1.2388002538704845,-0.11265313625335693,0.8790050745010376,0.9211612493757283,1.49153165057433,0.2920209467411041,0.2722981572151184,0.9267527467954053,1.5202783211253537,-0.07441135495901108,0.8737249374389648,0.9510539786915265,0.9784919677043449,0.11596812307834625,0.17010913789272308,0.9866740885633428,0.9994234851007159,-0.4276546537876129,0.9977481365203857,0.008896857500076294,0.9161893936241052,0.9518052896620609,169.64765974658025,171.77989477747647,1.0,-0.029836698298949152,0.023637768476359195,0.004801176054677738,0.07163678225602865,100.61092221109581,0.8401519634417466,21,0.7
0.9867364574588909,0.493144406124194,-0.11101869493722916,0.9999564290046692,0.8958630243080914,0.5917081677577976,0.12225525081157684,0.9999691247940063,0.9316351369263116,0.6074785650611146,-0.32526645064353943,0.9999971389770508,0.8981365962434603,0.9558447795950298,0.1471337229013443,0.9999564290046692,0.9215712284513565,0.9600335785887116,-0.1472863405942917,0.9999873042106628,0.9378603785648012,1.210977495588262,0.23094399273395538,0.15692564845085144,0.9470287887017925,1.2402921233259436,-0.08244668692350388,0.8836467862129211,0.9261327185921943,1.493144406124194,0.3006494641304016,0.27717405557632446,0.9281909925175885,1.5191321546174459,-0.017925946041941643,0.8782250881195068,0.940387193354974,0.9939138548063903,0.13008122146129608,0.1626461148262024,0.9857013428836523,0.9987441815738793,-0.41539230942726135,0.9979361891746521,0.009041965007781982,0.9098539123474084,0.9579391790918707,168.77018289527103,170.9448261993962,1.0,-0.04170629002191899,0.051863588850451836,-0.08904375643139656,0.2114500421834851,100.49198621255235,0.8589477359478471,22,0.7333333333333333
0.9871182153148422,0.4961464684559776,-0.09611128270626068,0.9999598264694214,0.8970401896318295,0.5946507011016942,0.1366051733493805,0.9999708533287048,0.9327408688192296,0.6071375405871203,-0.3125499188899994,0.9999973773956299,0.8960383191829903,0.9596929590442502,0.14839620888233185,0.999958336353302,0.9138933302273377,0.9610471606819155,-0.14855384826660156,0.999987781047821,0.9377068284774123,1.2122062513975422,0.2338750809431076,0.15571819245815277,0.9469984476250449,1.2393205966750482,-0.08174897730350494,0.8886661529541016,0.9261749892193301,1.4961464684559775,0.3275530934333801,0.2780320346355438,0.9271707348773205,1.5183148894080774,-0.026836996898055077,0.8815637230873108,0.9362836969901948,0.9912258737740816,0.13388992846012115,0.1588711142539978,0.9825810948260881,0.9977860438231899,-0.4206599295139313,0.9980644583702087,0.007169574499130249,0.904965824705164,0.9603700598630829,168.30406129683905,169.15053665751418,1.0,-0.02784011867644921,0.029470903759463665,0.10710740778375859,-0.1731409314497819,94.1800074053383,0.8613972540188566,23,0.7666666666666667
1.0053161442935907,0.5123331262185531,-0.09405328333377838,0.9999604821205139,0.9137006295893947,0.6085514384575461,0.13455145061016083,0.999971330165863,0.9456994170258636,0.6151358830581561,-0.304198294878006,0.9999974966049194,0.9041481229486098,0.9785416036981928,0.14791476726531982,0.9999602437019348,0.9161876864026461,0.9804201744666051,-0.14808355271816254,0.9999881982803345,0.9501310680200171,1.2292576926853669,0.23526892066001892,0.1493530422449112,0.9588427995669326,1.2551699402225702,-0.06683313846588135,0.8876195549964905,0.9358284445130687,1.512333126218553,0.33196112513542175,0.27599745988845825,0.9372463209135667,1.535274635090751,-0.010650819167494774,0.8822122812271118,0.9481843745255223,1.0015041057063174,0.13563251495361328,0.14980807900428772,0.9934310903199758,1.0111328174305168,-0.40782642364501953,0.9980999231338501,0.003738969564437866,0.910167904675628,0.9794808890823989,166.71463219756097,166.7663712516494,1.0,-0.03772342963818276,0.06518535826835523,-0.0741188585396571,0.27396772211179016,97.38957969003691,0.8748099582808999,24,0.8
1.0198013990181287,0.5309402575383504,-0.0726151242852211,0.9999620318412781,0.9257408723058065,0.6237828296636251,0.13748937845230103,0.9999710321426392,0.9615103593931059,0.6287388685586303,-0.29380661249160767,0.9999976754188538,0.9055573969938582,0.9939226155669133,0.14681246876716614,0.999962329864502,0.9218991605699817,0.998050804768797,-0.1470009833574295,0.9999887943267822,0.962413071794507,1.2454005957752974,0.23900720477104187,0.14510874450206757,0.9727869801840325,1.271621791045633,-0.07457993924617767,0.8907694816589355,0.9474494626208052,1.5309402575383504,0.33699560165405273,0.2762206196784973,0.9493069935699952,1.5555196838411716,-0.022597037255764008,0.8864518404006958,0.9339549277580182,1.0143335501587059,0.16713453829288483,0.13941390812397003,1.0050538708433252,1.0340339270562866,-0.3906708061695099,0.998135507106781,0.0027779340744018555,0.91372827878192,0.9959867101678551,164.2605782843697,164.7347303843221,1.0,-0.06307418617966466,0.027879163074088543,-0.18780045102291307,-0.28829886611195304,101.0560101473747,0.8698790236638175,25,0.8333333333333334
1.0361027017462718,0.5516009809484873,-0.05021589994430542,0.9999575018882751,0.9419840392206981,0.6398706659204021,0.13346074521541595,0.9999678134918213,0.9818239184965342,0.6461210983019609,-0.2845725417137146,0.9999977350234985,0.9153943783177539,1.0092328683691527,0.1410818248987198,0.9999642968177795,0.9306867307514506,1.0174799606637845,-0.14126698672771454,0.99998939037323,0.9752285506958084,1.2706146057359065,0.24544775485992432,0.14369429647922516,0.9870230575480727,1.293577110684722,-0.04634910821914673,0.8929176330566406,0.9600664784626031,1.5516009809484872,0.34726446866989136,0.28719282150268555,0.9617936340072487,1.5761440896862262,0.0010721187572926283,0.8918916583061218,0.9542561323827872,0.9256567727708562,0.11364088207483292,0.12906412780284882,1.0149323308043816,1.0571955942231883,-0.4117397367954254,0.9979796409606934,0.003457307815551758,0.9230405545346023,1.0133564145164686,164.01760339662923,163.3651663191361,1.0,-0.021527611320441047,0.030393104134787553,0.31624420875634685,0.01597888098396117,114.2202640567128,0.8615047108984567,26,0.8666666666666667
1.0398378788282323,0.5562370509998082,0.02741769514977932,0.9999441504478455,0.9441826274773713,0.6445774121085979,0.1600000560283661,0.9999668002128601,0.9921030648440928,0.6557971462727922,-0.24077975749969482,0.9999977946281433,0.9028409075254669,1.0123242365090401,0.13891354203224182,0.9999664425849915,0.9254595164640539,1.0220093904038439,-0.13908717036247253,0.9999900460243225,0.978273906749317,1.2752165394539636,0.2404501885175705,0.1426459699869156,0.9907239630657009,1.29843804622422,-0.06298861652612686,0.8939965963363647,0.9623181832203269,1.5562370509998082,0.3283138573169708,0.28885287046432495,0.9644236796442947,1.5818562111361172,-0.01283668540418148,0.8927740454673767,0.8861487410537066,0.959547878488427,0.11753039062023163,0.118986576795578,1.0164130290975457,1.0682526265087369,-0.38281500339508057,0.9975681304931641,0.006189465522766113,0.9141502119947604,1.017166813456442,160.74032381899906,161.4141283319053,1.0,-0.07532178092586946,0.007338606050780606,-0.3565004583887781,-0.1534863568236479,106.76611911237893,0.8622684155600301,27,0.9
1.066458583880467,0.5833300323412746,0.0022908879909664392,0.9999445080757141,0.9640448966506675,0.6680351597249512,0.15723943710327148,0.9999678134918213,1.0138111120372866,0.6811821801081135,-0.2552105784416199,0.9999979138374329,0.9151042506548773,1.039762253645218,0.13917677104473114,0.9999688267707825,0.9353106744056244,1.0517561213477369,-0.13934601843357086,0.999990701675415,0.9985527606054264,1.3030220908265164,0.24485579133033752,0.15605242550373077,1.009996579272374,1.3262461263386165,-0.06518737971782684,0.9014132022857666,0.9811190049048794,1.5833300323412747,0.3430256247520447,0.31095218658447266,0.9830793258968363,1.6144032852207544,-0.017611725255846977,0.8999316096305847,0.8835913001238657,1.0151212248243344,0.1754392683506012,0.11452201008796692,1.0363852699027922,1.1075832336194995,-0.3839581608772278,0.9975579977035522,0.0071118175983428955,0.9252074625302509,1.0457591874964776,158.85341825662405,159.44227686352292,1.0,-0.05548597246549105,0.06650084439388257,0.16790652062952718,0.46462460014766843,113.19169300020637,0.8695991379713461,28,0.9333333333333333
1.0984625946341935,0.613357999833709,0.017921168357133865,0.9999427199363708,0.9850607748711806,0.6929305532771689,0.18237662315368652,0.9999668002128601,1.0365839106702652,0.7106935795938454,-0.2354489266872406,0.9999979734420776,0.9181784167747183,1.068677851609989,0.13936272263526917,0.9999707937240601,0.9494952843014541,1.081938436370092,-0.1395307034254074,0.9999912977218628,1.0149442812745082,1.335937735251223,0.2591012716293335,0.17207469046115875,1.0310545097448782,1.3630551928863401,-0.0687793642282486,0.9093822240829468,0.9961408125338481,1.613357999833709,0.36834949254989624,0.3343776762485504,1.002386163688784,1.6498391022082997,-0.023835012689232826,0.9076371788978577,0.9133719323240518,1.0790169953910422,0.20355284214019775,0.10496921092271805,1.056163666312362,1.1449713822154008,-0.34540417790412903,0.997406542301178,0.009423017501831055,0.9338368505380863,1.0753081439900405,156.218811354997,158.1125860948828,1.0,-0.07278315651269204,0.06759087582956921,-0.1226638771020115,-0.0016749924979963496,102.85654427835819,0.8755298949021955,29,0.9666666666666667
1.1196685841078877,0.6284966454448002,-0.08465473353862762,0.9999472498893738,1.0176354066335138,0.7272547641091093,0.16507209837436676,0.9999674558639526,1.0415242839820462,0.7336800194753419,-0.25276896357536316,0.9999980926513672,0.9323526759831869,1.0862630068857062,0.1385180503129959,0.9999724626541138,0.9382707845702177,1.1023739733178533,-0.13866464793682098,0.999991774559021,1.0279779180594573,1.3537240676635685,0.1961422562599182,0.19734440743923187,1.0389767770358052,1.3785593171268617,-0.08451320230960846,0.9155343770980835,1.0025620534554214,1.6284966454448002,0.2807238698005676,0.3663803040981293,1.0098104035162025,1.6625037802528477,-0.029415398836135864,0.9146467447280884,1.1588105800553548,0.98178148777281,0.21922986209392548,0.12371113151311874,1.0614211916828606,1.1688128050486462,-0.4296197295188904,0.9975917339324951,0.0033831000328063965,0.9353117302767023,1.0943184901017797,155.04182973882433,154.10175759970963,1.0,-0.0407651227585059,0.08052588077624076,0.2397691095318007,0.09150254620440598,146.46701190197638,0.9014880935942813,30,1.0
1.1421253030325735,0.6605217866443185,-0.06567377597093582,0.9999507665634155,1.0331201490292006,0.7637026055902089,0.15839557349681854,0.9999688863754272,1.0614105669173157,0.772644299990432,-0.25870320200920105,0.9999982118606567,0.9347085411668958,1.1167604823621498,0.1365344077348709,0.9999741911888123,0.9500617880967999,1.1342315278374973,-0.13665203750133514,0.999992311000824,1.047384092562258,1.3776542656265671,0.19066384434700012,0.2121349573135376,1.058672408963424,1.4057683107756827,-0.08623434603214264,0.9224817752838135,1.0209088152939372,1.6605217866443185,0.2590557634830475,0.3853953778743744,1.027006931563919,1.6954727538701135,-0.04414214938879013,0.9218912124633789,1.0135499221308593,1.1430982350045706,0.19715407490730286,0.11491016298532486,1.0809198126529573,1.2130129651254609,-0.35109183192253113,0.997737467288971,0.004623383283615112,0.9423851646318478,1.1254960050998235,151.29423217793473,151.96151419780134,1.0,-0.06705273916840739,0.07416780084396367,-0.17020797843144905,-0.052202601362417916,123.11624497682241,0.9061184949677209,31,1.0333333333333334
1.147946189851707,0.6728552113150607,-0.09984100610017776,0.9999518990516663,1.0482760623844525,0.7835507552619999,0.11323505640029907,0.9999707937240601,1.0706150291401442,0.7963258293649583,-0.30303284525871277,0.9999982714653015,0.9331034653026784,1.1376988508050754,0.1374921202659607,0.999975860118866,0.9501024879133391,1.1552503815884827,-0.13753928244113922,0.9999927282333374,1.0473991132333869,1.3908240423254605,0.26057952642440796,0.2244395613670349,1.0694236888387365,1.4235316431613971,-0.08773811161518097,0.9294293522834778,1.0200484773494014,1.6728552113150608,0.38547080755233765,0.41045692563056946,1.0351705057880909,1.7066115959330146,0.002103698905557394,0.928261399269104,1.0209551693439582,1.2226755488556702,0.1156466156244278,0.11611159145832062,1.0889014172871565,1.2365409421568498,-0.40002375841140747,0.9976617693901062,0.006553918123245239,0.9416029766080087,1.1464746161967792,150.1599424413805,149.1229882878734,1.0,-0.05214856299766393,0.07717125198948213,0.09820622517374086,0.015401471322352105,117.90109829981866,0.9392575713802194,32,1.0666666666666667
1.1879325008982455,0.7279333539989274,-0.08141962438821793,0.9999478459358215,1.0792700313829464,0.8246768311233206,0.1233469620347023,0.9999719262123108,1.1066704014318653,0.8403722638610412,-0.29540807008743286,0.9999983310699463,0.9523947622017844,1.1864984278530293,0.13752496242523193,0.999977171421051,0.9751853889170223,1.1987997557324377,-0.1375824213027954,0.9999930262565613,1.0724748624765106,1.4399304033024476,0.2580300271511078,0.247305765748024,1.1068045458147762,1.4675975022987824,-0.08382156491279602,0.9361645579338074,1.0460437395878373,1.7279333539989274,0.3685099482536316,0.4451052248477936,1.0699785530968484,1.7620690199247004,8.795172107056715e-06,0.9349000453948975,1.0501461819814937,1.2904395670256068,0.12189307063817978,0.11384011059999466,1.1242537543779154,1.303204280957611,-0.36205053329467773,0.997657299041748,0.007796913385391235,0.9637900755594033,1.1926490917927335,149.4040990204893,146.782633435363,1.0,-0.06858541954227493,0.06868048678931725,-0.11700005073739601,-0.08750725768109957,99.03455095076531,0.9207856091208715,33,1.1
1.1801200707310124,0.7226781756845124,0.014263609424233437,0.9999284148216248,1.0771513867016858,0.8253930545776593,0.19115790724754333,0.9999721646308899,1.1014806095861902,0.8373868103741207,-0.23189301788806915,0.9999982118606567,0.9455534833112672,1.1819270438629021,0.13805432617664337,0.9999780654907227,0.9619417705326863,1.1898752652263673,-0.13812175393104553,0.9999932050704956,1.068254471598608,1.4377111434787309,0.25610992312431335,0.25643858313560486,1.1054651710676477,1.4597012982282014,-0.0862593948841095,0.9422327280044556,1.0407109410318105,1.7226781756845124,0.3584287464618683,0.46486425399780273,1.0651382222771635,1.7539922353543986,-0.009208444505929947,0.9407930374145508,1.0433638914717294,1.2971622197020864,0.20317745208740234,0.11392118781805038,1.1184878230267545,1.3009412288826663,-0.30603161454200745,0.9974020719528198,0.0059854090213775635,0.9537476269219767,1.1859011545446347,148.85193644649755,144.1883073864416,1.0,-0.038514273924656305,-0.008864687770180927,0.20327870515356294,-0.5275767696364166,95.6138335966254,0.9185939946887098,34,1.1333333333333333
1.2010970695215133,0.7547098657334131,0.007347722537815571,0.9999094605445862,1.1069056482420903,0.8614263179667979,0.17637363076210022,0.9999719262123108,1.1201813268156908,0.8675077484393,-0.2510140538215637,0.9999980330467224,0.96223887047188,1.2120087093350853,0.1359892636537552,0.9999787211418152,0.9736204017213312,1.21616190803871,-0.13607218861579895,0.9999932050704956,1.0823553700103425,1.4686084390533372,0.25120872259140015,0.2851107120513916,1.1251441677839296,1.4845835327415116,-0.07689804583787918,0.9478079080581665,1.0533352297489034,1.754709865733413,0.36223286390304565,0.5005632042884827,1.0925927332328378,1.784842459083933,0.012888719327747822,0.9463935494422913,1.0683242440468115,1.317095487663041,0.17887528240680695,0.12229083478450775,1.1375613557977975,1.3350292521696632,-0.31521373987197876,0.9974297881126404,0.0029830634593963623,0.9679296360966057,1.2140853086868977,149.1234329905254,144.36797052690173,1.0,-0.0186379671126673,0.059056930220456695,0.1601405502205932,0.5306095311403508,87.62402664596864,0.9109345035963713,35,1.1666666666666667
1.2366394462559764,0.806891216030907,-0.01743718981742859,0.9998810291290283,1.1345354178582698,0.9118430207994876,0.16676655411720276,0.9999719262123108,1.1525875130522563,0.9205113138317484,-0.24871742725372314,0.9999977350234985,0.9741748112641402,1.258791708975418,0.13445578515529633,0.9999796152114868,0.9868712205528747,1.2649302018967872,-0.13456220924854279,0.9999933242797852,1.1152979792183375,1.5103573386437787,0.23044779896736145,0.30613335967063904,1.161000499417867,1.5277204435781335,-0.07630147784948349,0.9528511762619019,1.0852388402622741,1.806891216030907,0.3386240005493164,0.5297110080718994,1.1250688067728192,1.8378377364143172,0.00586955901235342,0.9515002369880676,1.1207636183621907,1.3757651929200871,0.15502798557281494,0.12620684504508972,1.1709879811353265,1.3929924511910505,-0.30649468302726746,0.9971569180488586,0.004130423069000244,0.9805230159085074,1.2618609554361024,144.92026218610445,139.86177170046125,1.0,-0.12285200767610188,0.0931459854630799,-0.80145860380239,0.2501130342785283,90.99645322607381,0.9092814117197447,36,1.2
1.292126865005428,0.8858945090255959,0.06554357707500458,0.9998222589492798,1.167673332990195,0.9901624808039273,0.21748311817646027,0.9999709129333496,1.2019541619923877,1.009010193890389,-0.201935812830925,0.9999970197677612,0.9938702715987986,1.3439108890202291,0.13607868552207947,0.9999802708625793,1.018224962765456,1.3549108493216946,-0.13620349764823914,0.9999933242797852,1.1685886883244518,1.577800396422894,0.27758046984672546,0.289350688457489,1.2183093041657889,1.5949771085955045,-0.0447952002286911,0.9571333527565002,1.1317423006589107,1.8858945090255959,0.41558170318603516,0.5323178172111511,1.1770251828012868,1.9213946781858253,0.06572499126195908,0.9556996822357178,1.1705562183241502,1.471622578512027,0.21645767986774445,0.12107893079519272,1.2244715369683281,1.487467068038252,-0.23245735466480255,0.9944716691970825,0.008588612079620361,1.0060476171821273,1.3494108691709619,136.41993067021463,132.9820351482271,1.0,-0.1495820652581577,0.23232473304711942,-0.16401377377376564,1.0478543338660204,88.1409047645005,0.9493646685597678,37,1.2333333333333334
1.3333643919472846,0.9442235906917604,0.033728502690792084,0.9997256994247437,1.2017520299167372,1.0492321567925256,0.21401579678058624,0.9999673366546631,1.2356296857151847,1.0646555268871045,-0.21797502040863037,0.999995231628418,1.0186151828278813,1.3978179028062538,0.13963854312896729,0.9999797940254211,1.0401263788505424,1.4151103937921663,-0.13977405428886414,0.9999926090240479,1.2148956302285658,1.6280080098815006,0.265525758266449,0.27347680926322937,1.257224875032966,1.6438080669483277,-0.058615535497665405,0.9609766602516174,1.1740274906543955,1.9442235906917604,0.3832557201385498,0.529900074005127,1.2147304794248162,1.9801693450670077,0.036768149584531784,0.9594736695289612,1.2315568211265553,1.5152576791410213,0.2112615555524826,0.12031174451112747,1.2643399983768497,1.5340955387271884,-0.2561195492744446,0.9913437962532043,0.006807774305343628,1.0293707808392119,1.40646414829921,132.18199049874733,129.29009395729773,1.0,-0.07205930425283126,0.10410053541607461,0.6416483484463981,-1.0574938631664061,101.0790850882877,0.9543382121679612,38,1.2666666666666666
1.3737363249276733,1.0078008097233795,0.02437010407447815,0.9995832443237305,1.23570319074554,1.1091120396460217,0.220616415143013,0.9999565482139587,1.2695080951404036,1.1201049905029858,-0.22565820813179016,0.9999924898147583,1.0436103446976517,1.4604252931793156,0.14375829696655273,0.9999794960021973,1.0664305322375134,1.4813049078838476,-0.1438930332660675,0.9999920725822449,1.260814105543158,1.6819006867715873,0.2634117305278778,0.25573068857192993,1.3009506783282463,1.6970855819834454,-0.09554643929004669,0.9643563032150269,1.2177920035280605,2.0078008097233795,0.3774217963218689,0.5252593755722046,1.2552650860174086,2.0460282105280787,0.023988889530301094,0.9627978205680847,1.269688266268085,1.5729888450207314,0.21345195174217224,0.11208061873912811,1.308741021099979,1.5946843237162982,-0.28115805983543396,0.9875547885894775,0.004694998264312744,1.0550204384675825,1.4708651005315816,128.0377612012282,125.15791655422542,1.0,-0.0709045837884839,0.13910312555010348,0.028680647453012725,0.25336015697773806,103.7881619266901,0.9610546148597915,39,1.3
1.3726449183819094,1.0220432764970555,0.05441015958786011,0.9994770884513855,1.2314965716698152,1.1328864227217106,0.24789957702159882,0.9999457001686096,1.2716887276773399,1.14670853806409,-0.2018592357635498,0.9999882578849792,1.0341589751998206,1.4956594256642954,0.14494603872299194,0.9999793767929077,1.0673820216356482,1.5078206662938507,-0.14509612321853638,0.9999914765357971,1.2699532148067205,1.6934622104266133,0.2281436026096344,0.2505373954772949,1.3100898490207817,1.697920399599484,-0.093289315700531,0.967704713344574,1.2292519450373602,2.0220432764970555,0.33938276767730713,0.5417668223381042,1.2649288439020239,2.0617690494394862,0.02035379968583584,0.9662483334541321,1.290213749768337,1.5846583304793491,0.23097386956214905,0.10693340748548508,1.3181344649283941,1.6009645892543403,-0.22968149185180664,0.9827683568000793,0.005861222743988037,1.0507704984177344,1.501740045979073,122.9313258596896,120.99426766030896,1.0,-0.08645510313003876,0.14850205560416477,-0.10996297880872463,0.061410338924352235,81.56020745856333,1.0051159538668366,40,1.3333333333333333
1.3897735510840432,1.0579888679960687,0.04357678443193436,0.9993765950202942,1.2441536352337077,1.1804230774574844,0.2533670961856842,0.9999313950538635,1.2872509376343353,1.183862418893896,-0.20943574607372284,0.9999856352806091,1.0455181128908446,1.5579001288186316,0.15031372010707855,0.9999786615371704,1.0783183761145934,1.5660422169295443,-0.15047147870063782,0.999990701675415,1.3061829648568506,1.7253093444860599,0.21172241866588593,0.246405228972435,1.3359668122638546,1.728628433235694,-0.12011560052633286,0.9706739187240601,1.256302379570766,2.0579888679960687,0.3289966285228729,0.5518121123313904,1.289409469780908,2.1020808513460496,0.01869027689099312,0.9691258668899536,1.3174447471492092,1.6300823949350343,0.24507446587085724,0.10232667624950409,1.3430617924053303,1.640273147639502,-0.261995404958725,0.9817572832107544,0.0014311373233795166,1.0619182445027189,1.561971172874088,114.18300094788673,115.14727228009126,1.0,-0.0692544225368211,0.24574946397855627,0.14668816239749782,0.734713614281691,76.18669642982799,1.07486143254893,41,1.3666666666666667
1.3935096801455662,1.089258826664698,0.11110812425613403,0.9990524053573608,1.246073929883063,1.2244749861155875,0.29084640741348267,0.9999257922172546,1.2958485679220229,1.207611128338471,-0.15681734681129456,0.9999852776527405,1.0497061968218282,1.6101458945877383,0.14916804432868958,0.9999772310256958,1.0847298635331537,1.6050873475584504,-0.14933238923549652,0.9999897480010986,1.3238610785696454,1.7504884610432883,0.20994532108306885,0.23819951713085175,1.355844632915314,1.750881671093307,-0.1251344084739685,0.9731878638267517,1.276169610995234,2.089258826664698,0.3027366101741791,0.5503066182136536,1.3072595061363146,2.1316910734924988,0.009158930741250515,0.9710716009140015,1.2575245378474118,1.6953608770240653,0.3928748071193695,0.09500022977590561,1.3615979091571442,1.662868300207881,-0.26845359802246094,0.9807521104812622,0.006917357444763184,1.067218030177491,1.6076166210730944,109.0950171625582,110.99879260799402,1.0,-0.0775029195795352,0.17860981418822502,-0.05604051487973813,-0.5464563521005691,54.79815570093207,1.1122327104902825,42,1.4
1.3736771078316727,1.088633303166632,0.14262984693050385,0.9985610842704773,1.2263889877498013,1.2217554695909483,0.30058664083480835,0.9999162554740906,1.286301654423247,1.216492372860428,-0.13357414305210114,0.9999812245368958,1.043006288522466,1.6160660200436667,0.14844590425491333,0.9999758005142212,1.0836245654760261,1.6007630771197434,-0.14859920740127563,0.9999884963035583,1.2771031831922568,1.80276294057063,0.24889087677001953,0.23049944639205933,1.3551607575279963,1.7463302425780474,-0.12001875787973404,0.9753142595291138,1.2757002136848359,2.088633303166632,0.3616521954536438,0.5508105754852295,1.3067660085677306,2.1283765036744784,0.015161891467869282,0.9731222987174988,1.2164077559896398,1.7081213311504844,0.33718958497047424,0.0883140116930008,1.3574117841884843,1.6692982392427624,-0.2105306088924408,0.9653518795967102,0.0021595358848571777,1.063315426999246,1.608414548581705,128.2918668095102,110.97585502141764,1.0,-0.028179949300267865,0.01026836921335632,0.3892529862157288,-1.3287494440579573,44.4142829465848,1.1015476337453933,43,1.4333333333333333
1.3826169454680746,1.1569186835245924,0.1920478641986847,0.9945172667503357,1.2541068156340134,1.2732746170687361,0.33775538206100464,0.9998900294303894,1.3025333751524824,1.268333249230156,-0.09804771095514297,0.9999748468399048,1.0738355165293485,1.6833405152198133,0.1477966010570526,0.9999712705612183,1.1091479788281935,1.6576007440469385,-0.14794310927391052,0.9999854564666748,1.3057923295352938,1.8847880446221217,0.22832560539245605,0.21652533113956451,1.396977069374924,1.8005237091105786,-0.13746514916419983,0.9764199256896973,1.3163846810848756,2.1569186835245926,0.3109528720378876,0.5320819616317749,1.3471926871774946,2.190767000732485,-0.06068278104066849,0.9728921055793762,1.2263624396059833,1.7772702927907782,0.3296872079372406,0.08181820809841156,1.3958183200414072,1.721292067740723,-0.21140770614147186,0.9531867504119873,0.0019640326499938965,1.091491747678771,1.6704706296333758,133.2023772249188,109.13681907626288,1.0,-0.04874630955669425,0.0791171117601292,-0.15458258539382058,0.5388605301499171,30.180112380784045,1.0583384752095757,44,1.4666666666666666
1.3554479046067378,1.1202670899360196,0.1682628095149994,0.992935836315155,1.2265023440541842,1.2472677135682557,0.31965285539627075,0.9998757839202881,1.2771036353007525,1.2447927813371515,-0.11637355387210846,0.9999707937240601,1.0548202572547436,1.6556940054318257,0.14741547405719757,0.9999700784683228,1.0918571605910103,1.6294394198194229,-0.1475684940814972,0.9999843835830688,1.2796740462533995,1.8572025839665736,0.24283556640148163,0.20850405097007751,1.3722739664667827,1.7686715601967187,-0.12715941667556763,0.9781686067581177,1.2860323692020712,2.1202670899360196,0.339019775390625,0.5291966795921326,1.3236029514417766,2.1503938681443278,-0.03810964524745941,0.9741929769515991,1.1945869605977144,1.7434635569286352,0.3201504051685333,0.07598885893821716,1.3655894245528395,1.6916292198776974,-0.21076750755310059,0.9430601000785828,0.0010011792182922363,1.073338708922877,1.6425667126256243,133.25051531956257,109.13903195712237,1.0,0.0065965801642775615,0.009201697368727965,0.4004779422523118,-0.5036798611737995,31.868611908870403,1.0903529211093579,45,1.5
1.3347496851501701,1.1055502006721918,0.16397912800312042,0.9933030605316162,1.2210769184516812,1.2553362081217907,0.295501172542572,0.9998639225959778,1.2500254739973944,1.2412192612240847,-0.14410874247550964,0.9999674558639526,1.0516497092380015,1.66159193428506,0.1473771631717682,0.9999690055847168,1.0731864104837148,1.6356443729018697,-0.14751869440078735,0.9999831318855286,1.2929591626768377,1.8198986555508114,0.19515517354011536,0.19926200807094574,1.3623348972258615,1.7565252019212039,-0.14653649926185608,0.9796194434165955,1.2770336899741734,2.105550200672192,0.29898157715797424,0.5123353600502014,1.3141448969749618,2.1345230415506684,-0.04394562914967537,0.9751158952713013,1.2705743766478093,1.7279750136111245,0.235157772898674,0.07501804083585739,1.3517409328479095,1.678947608271438,-0.20561301708221436,0.9409542083740234,0.005751550197601318,1.0624180598608581,1.6486181535934648,120.0751398551617,105.42245104260073,1.0,-0.024734038587868063,0.13291246497340492,-0.23467798596733763,0.928517728769452,17.0546001576228,1.1551360867160523,46,1.5333333333333334
1.3257288798702513,1.115313438468986,0.14333441853523254,0.9939221143722534,1.19488996328566,1.2577423210225411,0.2931612730026245,0.9998670220375061,1.2418020305424482,1.2432712493095626,-0.1420818269252777,0.9999659061431885,1.042466140885763,1.673154983078324,0.14608965814113617,0.9999681711196899,1.0733714948978372,1.6553203974632662,-0.1462492197751999,0.9999818205833435,1.2963038884003713,1.8214346408060702,0.19874748587608337,0.20161622762680054,1.3652785775147065,1.7608100116848346,-0.13175953924655914,0.981148898601532,1.2789647608905108,2.115313438468986,0.3033265471458435,0.5157350301742554,1.3153068108553858,2.1392492409402943,-0.016719339415431023,0.9765565395355225,1.261250264114801,1.7530963199002456,0.24692098796367645,0.08373528718948364,1.3517234947875725,1.6809653031231455,-0.1904231309890747,0.9411919713020325,0.0058825016021728516,1.0579188178918002,1.6642376902707952,116.91480257596,102.34666520866017,1.0,-0.053738162957664086,0.09247682996902447,-0.2252514960996951,-0.31698164255446326,39.8628281919452,1.1718809128414425,47,1.5666666666666667
1.3370956288850746,1.1566211880978154,0.059440724551677704,0.9944848418235779,1.1917402555984788,1.2869794610046472,0.2687993049621582,0.9998709559440613,1.2192771206774793,1.268697618814377,-0.16778823733329773,0.9999644756317139,1.0542101581681005,1.7246051962121194,0.1423618495464325,0.9999680519104004,1.0740291988507327,1.7080788926850587,-0.1425323784351349,0.9999812245368958,1.3295876262545312,1.8382735972708824,0.16769033670425415,0.1905672699213028,1.3867936476908733,1.7926334776156865,-0.14680849015712738,0.9818355441093445,1.3041960542299598,2.1566211880978154,0.27193576097488403,0.48902595043182373,1.3355097110938103,2.1796685548383907,-0.03706422820687294,0.9768304824829102,1.3081228894997732,1.766365854885085,0.1921408772468567,0.08832777291536331,1.3673743742615048,1.7107324505725152,-0.20932063460350037,0.9411182403564453,0.0072914958000183105,1.0641196785094167,1.716342044448589,107.86922898387986,97.58005923853024,1.0,-0.1060862955693883,0.15119803045512573,-0.38542840215571206,0.4277059520035792,32.730561768098944,1.1995101150633345,48,1.6
1.2878974834148167,1.1225892909679966,0.01381012611091137,0.9949410557746887,1.1712863185558529,1.2553933742632009,0.22939428687095642,0.9998772740364075,1.1696646774683281,1.2467123657202748,-0.20001447200775146,0.9999646544456482,1.0475630571307395,1.6981769499111006,0.1392556130886078,0.9999681711196899,1.0507260673355163,1.6956150221112456,-0.1393786370754242,0.9999810457229614,1.3167547412197378,1.7838393670974915,0.1753539741039276,0.17631259560585022,1.3575103670513167,1.7666956308555732,-0.17258484661579132,0.9821341633796692,1.2867529082203433,2.122589290967997,0.27906373143196106,0.4570607841014862,1.3107543746198589,2.148267189598049,-0.07556962221860886,0.9765671491622925,1.3027978758416499,1.7282553726802965,0.1877303421497345,0.09140657633543015,1.3364054668304803,1.6847955388226548,-0.3010844588279724,0.9440581798553467,0.003513038158416748,1.049144562233128,1.6968959860111732,102.59088682910277,96.05907524460804,1.0,0.0029553905270978875,0.04057444227441402,0.8177520011064291,-0.824830281811955,35.382228543714184,1.2325836320217998,49,1.6333333333333333
1.2605442056741014,1.1093983114850567,-0.008330737240612507,0.9953490495681763,1.1306010671501197,1.2413534117215346,0.21589341759681702,0.9998815655708313,1.1413252524642648,1.2364563534809656,-0.22287973761558533,0.9999641180038452,1.043458534193054,1.6875085959741567,0.1389310210943222,0.9999683499336243,1.0457398516945784,1.6961540668217783,-0.13906697928905487,0.9999808669090271,1.318641083924039,1.756477013861345,0.16617359220981598,0.16616874933242798,1.3494537448478194,1.7577837851185616,-0.16662219166755676,0.9827370643615723,1.2816725147989976,2.109398311485057,0.28271248936653137,0.43320348858833313,1.304620514257062,2.1381075645525143,-0.05500148981809616,0.9765985012054443,1.2941634132331803,1.6935724718383613,0.165317565202713,0.09525361657142639,1.3258521399386856,1.6753080097369626,-0.29467254877090454,0.9469191431999207,0.001991748809814453,1.0445991929438163,1.6918313313979676,98.09016195446402,94.74762854422849,1.0,0.005569701909684371,0.026611173988493997,0.020235599771302105,-0.10590160725616753,154.16624643902392,1.2465124475135456,50,1.6666666666666667
1.2519337022278885,1.123593811061394,-0.013279223814606667,0.9957607388496399,1.1161969911968714,1.2455013643090498,0.21019423007965088,0.9998883605003357,1.1324242266242004,1.2416269168783676,-0.22605159878730774,0.999965250492096,1.0409657769680856,1.7068669595315087,0.13708528876304626,0.9999691247940063,1.0493104853819184,1.7169079555453324,-0.1372818797826767,0.9999810457229614,1.3262834752412882,1.7642540040418564,0.1766558736562729,0.18060798943042755,1.3583703839291554,1.7692308429791976,-0.15581223368644714,0.9839639067649841,1.284551157109153,2.123593811061394,0.2844722270965576,0.4507514238357544,1.321019754917748,2.1534159055152835,0.007149902172386646,0.9778398275375366,1.2998108869052365,1.6877885361165597,0.19850191473960876,0.11476101726293564,1.326302944826367,1.6803536620630193,-0.28917592763900757,0.9517626762390137,0.001565694808959961,1.045138131175002,1.7118874575384206,94.74795318755925,94.0560203519762,1.0,-0.04695237274586981,0.06870859057378949,-0.39659179214478235,0.3163579264965104,131.00999863158216,1.251205775071075,51,1.7
1.206877871895482,1.1076924782596278,-0.05974400043487549,0.9961743950843811,1.0944413855599096,1.2378254539543325,0.17056308686733246,0.9998970031738281,1.1006339563692522,1.2342422638020039,-0.24964621663093567,0.9999675750732422,1.040337358211891,1.691689549562263,0.13337215781211853,0.9999697208404541,1.0454476003044706,1.7097102015483887,-0.13351291418075562,0.9999815821647644,1.3225205211830182,1.750253511327373,0.16849131882190704,0.21004176139831543,1.348785256540394,1.766709518787739,-0.14923690259456635,0.9854632616043091,1.2805031708831915,2.1076924782596276,0.2781224846839905,0.4846724271774292,1.3163497570101912,2.1483120011318895,-0.006046278867870569,0.9799071550369263,1.293549413361095,1.659443775112049,0.15320880711078644,0.14590860903263092,1.3160685468490623,1.661919011914133,-0.29657894372940063,0.9564508199691772,0.0014544129371643066,1.0428924792581808,1.7006998755553258,95.02023876948735,95.78383296232651,1.0,0.01793689857385668,-0.02755035480362042,0.4903729438626145,-0.727467369473059,157.36987449104197,1.235759141852461,52,1.7333333333333334
1.1919926934450922,1.1097174970630153,-0.048773206770420074,0.9965394139289856,1.078750151912999,1.2395929836449544,0.17149296402931213,0.999903678894043,1.0889002235422798,1.2390600176034943,-0.24032893776893616,0.9999692440032959,1.044704183960197,1.7043627940207045,0.13139747083187103,0.9999693632125854,1.0478896062046792,1.721275406298221,-0.1315595954656601,0.9999815225601196,1.3278327447088243,1.7351403307836502,0.17533078789710999,0.22639420628547668,1.3530253335641182,1.7678516003343927,-0.1469181478023529,0.9866649508476257,1.2928349359387488,2.1097174970630155,0.28534775972366333,0.5074493885040283,1.3225195829665939,2.153593948522669,0.008723326958715916,0.9814387559890747,1.289786364289213,1.6685936723172163,0.1775328367948532,0.16160061955451965,1.3210856715659376,1.666522499696174,-0.2851552963256836,0.9605388641357422,0.00021564960479736328,1.046296895082438,1.7128191001594626,90.8661755965443,94.15696673042167,1.0,0.0008598621981800609,0.05164469850065223,-0.1310760653693278,0.6065240781244072,165.14390064939366,1.2567189339071794,53,1.7666666666666666
1.1883374093681878,1.10597612061744,-0.06877239048480988,0.9968715310096741,1.067697579670487,1.238200648738398,0.15458370745182037,0.9999094605445862,1.072182568259897,1.2401379375563146,-0.24624423682689667,0.9999710321426392,1.0461915674024642,1.706891530827889,0.12855009734630585,0.9999696612358093,1.0491314532656324,1.7260598193896508,-0.12871353328227997,0.9999818801879883,1.3278291273553813,1.7285997122642962,0.1804957538843155,0.2484559714794159,1.3530056331916258,1.7683438876195725,-0.1456395387649536,0.9876384139060974,1.2926810047446784,2.10597612061744,0.29012763500213623,0.5261240601539612,1.3236075110596477,2.1537907124146893,0.014342310838401318,0.9826410412788391,1.2702766837893027,1.6590896068255256,0.14500944316387177,0.17002369463443756,1.3159851810367824,1.6632674750389203,-0.29370689392089844,0.9642525911331177,0.0007839202880859375,1.0476615103340483,1.71647567510877,89.08648468439623,93.56031641796163,1.0,0.010835613969287238,0.02849531189487132,0.07542963246999086,-0.17501288611485724,168.65316764311984,1.2821506333716355,54,1.8
1.1730124474191364,1.10752050596425,-0.07316380739212036,0.9971668720245361,1.067100488496521,1.2440656338612117,0.14593714475631714,0.9999156594276428,1.0585448179046142,1.2477864285704787,-0.25209760665893555,0.9999728798866272,1.0499205145932073,1.7097236384236254,0.12706950306892395,0.9999698400497437,1.0439219853576636,1.7342904581016085,-0.12721660733222961,0.9999820590019226,1.3316208891106545,1.7217715250012966,0.18160146474838257,0.2538563013076782,1.3571095592449602,1.77388200698325,-0.14473596215248108,0.9883947968482971,1.2985762663180016,2.1075205059642497,0.2882539629936218,0.5309776663780212,1.3276811198259315,2.1604562058975674,0.006861207075417042,0.9834849238395691,1.275555271207104,1.6586520297480358,0.12520256638526917,0.1759818196296692,1.319218683348136,1.668107978402192,-0.31029096245765686,0.967528760433197,0.0015009641647338867,1.0469212499754355,1.722007048262617,87.55275281655253,92.85150250235671,1.0,-0.02967836552229782,0.0016050241430631974,-0.3019910874366068,-0.2009315058019563,168.3913735807264,1.27885953558122,55,1.8333333333333333
1.1648007231644257,1.0893462719247382,-0.08881358802318573,0.997437059879303,1.062446915732496,1.2379418526713957,0.12778843939304352,0.9999220967292786,1.0482061664505373,1.2409208837802075,-0.2701254189014435,0.9999746680259705,1.044142770366817,1.7009887435663997,0.1265268176794052,0.999970018863678,1.0400769521872406,1.7273493669228608,-0.1266653686761856,0.9999820590019226,1.3198873740106472,1.7136645253382052,0.20156995952129364,0.2513943016529083,1.3485486948426386,1.7623565788967632,-0.14441847801208496,0.988698422908783,1.288502443087353,2.089346271924738,0.3032543361186981,0.5240018367767334,1.3189455457070038,2.1441961739105926,0.004806532524526119,0.9834782481193542,1.2673397842308936,1.6460588390204633,0.09815283119678497,0.18391583859920502,1.311403579593446,1.6570484016956433,-0.3421640992164612,0.9704146385192871,0.0012096166610717773,1.0421098612770288,1.7141690552446303,87.85651968217573,92.0414230774643,1.0,0.014935052301255379,0.025130325968906953,0.33040031110985085,0.17506085759167356,173.49560066933174,1.326190090775475,56,1.8666666666666667
1.1570198242091874,1.1027432919769578,-0.08116481453180313,0.9976816177368164,1.0577736797042416,1.249106697263384,0.1247391477227211,0.9999276399612427,1.0427001883567941,1.250689703708397,-0.2571888864040375,0.9999762773513794,1.0516463606729092,1.7150871975424555,0.12211696803569794,0.9999710917472839,1.0486685125721107,1.7398611450196664,-0.12227407842874527,0.9999826550483704,1.3238474057407394,1.728144711424778,0.19930556416511536,0.25418171286582947,1.3570205331503085,1.7698412311589666,-0.14047452807426453,0.9889357089996338,1.29315069828485,2.1027432919769575,0.2956905961036682,0.524865984916687,1.3285816554690895,2.156371290779438,0.00218866765499115,0.9835864305496216,1.2759300753648721,1.6543566425789151,0.10252127796411514,0.18270675837993622,1.318172184370182,1.665918586087828,-0.32251328229904175,0.9727973937988281,0.0006388425827026367,1.05015743662251,1.727474171281061,88.06170943579721,91.34528752570083,1.0,0.01217179752002995,0.02052298402679934,-0.021170985492796196,-0.03531006803564218,173.89924182971515,1.3226028890459933,57,1.9
1.15153360251829,1.1075209641680641,-0.12124093621969223,0.9979009628295898,1.0583803501660385,1.254215337427729,0.08917222917079926,0.9999332427978516,1.0352549624715028,1.2579538277375084,-0.2961001992225647,0.999977707862854,1.0612438446593382,1.720930729584439,0.12249207496643066,0.9999722242355347,1.0546317674611236,1.7482484685346948,-0.12263491004705429,0.9999831914901733,1.3304253877761651,1.7363688289549035,0.1993851512670517,0.25461915135383606,1.3628019397880284,1.775833952791189,-0.14091596007347107,0.9887652397155762,1.300264116496517,2.107520964168064,0.30168434977531433,0.5125154852867126,1.3351044002620165,2.1668293694338305,0.0007749240612611175,0.9827280640602112,1.2749642629030344,1.6544165026095892,0.04185737669467926,0.18175825476646423,1.313064835549987,1.668118413181618,-0.3547542691230774,0.974665641784668,0.0015013813972473145,1.057937806060231,1.7345895990595668,88.63656186951319,91.06315023417667,1.0,0.020234671366959358,-0.010104445914244004,0.06110597253178692,-0.23460554269402342,166.04208960045003,1.3233204732097645,58,1.9333333333333333
1.1366642474703987,1.1090669018272117,-0.13728004693984985,0.998103141784668,1.049529550071119,1.25558664865302,0.07667087763547897,0.9999386072158813,1.022479571121397,1.262632694055021,-0.3106047809123993,0.9999793767929077,1.0652351982056125,1.721575880900619,0.1233440414071083,0.9999735951423645,1.0562772345405331,1.7519898161846905,-0.12348537147045135,0.9999839663505554,1.3327272954317329,1.7386431074016107,0.1984439492225647,0.2629256844520569,1.3640823981618468,1.776156457083597,-0.14318233728408813,0.9889066815376282,1.3034782611281046,2.109066901827212,0.30444222688674927,0.5090654492378235,1.335662292886671,2.170382675026521,-0.00016061737551353872,0.9822564721107483,1.2749359572049037,1.6527688251328427,0.03613593056797981,0.18395552039146423,1.307856451375047,1.66706071518617,-0.3746054768562317,0.9767188429832458,0.0028250813484191895,1.0607562163730728,1.7367828485426549,89.13602074543317,90.36587364560214,1.0,0.009052905953253683,-0.0053343234437439385,-0.09320633139364043,0.03978166589234619,161.65810198392552,1.3202825456005851,59,1.9666666666666666
1.1258864991887079,1.1040356264149418,-0.13116368651390076,0.9982866048812866,1.0514949682100307,1.2529898808140278,0.08148027956485748,0.9999438524246216,1.0121273051944562,1.2668580255632058,-0.29866141080856323,0.9999809861183167,1.0727811061078039,1.7162158685532682,0.12133806943893433,0.9999748468399048,1.0528544245164777,1.7474121878787003,-0.121454156935215,0.9999845623970032,1.3381804000594615,1.7296370890760464,0.1613362729549408,0.2777808606624603,1.3607143373484596,1.7652341440322308,-0.14859043061733246,0.9890534281730652,1.3019396496597466,2.104035626414942,0.25919076800346375,0.5157915353775024,1.3303013958226524,2.1650809679453458,-0.014989934861660004,0.9825499653816223,1.276527544077976,1.6391972119876228,0.0451454296708107,0.2064705342054367,1.3031090074730802,1.661646628105736,-0.35955244302749634,0.9787762761116028,0.005574524402618408,1.0628177653121407,1.7318140282159842,87.36612759077043,88.96351815189902,1.0,0.035985592497100496,-0.004236206867007839,0.20402209123461032,0.008208928175378407,144.8005497226764,1.3261110482763991,60,2.0
1.0982176476258916,1.0942652565827269,-0.1308356374502182,0.9984530210494995,1.013235782112956,1.24961791561786,0.0890686884522438,0.9999482035636902,0.9946998307772409,1.2658880241430273,-0.30419373512268066,0.999982476234436,1.0641089687472272,1.7071719751828256,0.1223120465874672,0.9999756813049316,1.0444174523297134,1.7369403702012463,-0.12243441492319107,0.9999850988388062,1.3312916653789766,1.7200620539997842,0.16144078969955444,0.2840513586997986,1.353256474155341,1.749337893735365,-0.15008454024791718,0.9889243841171265,1.2961421887171207,2.094265256582727,0.2636423707008362,0.5141280889511108,1.321737951591065,2.1494199420277624,-0.014175621792674065,0.9823973178863525,1.268229100015644,1.624515475108957,0.056561313569545746,0.21935726702213287,1.2877801076260584,1.6493513840560046,-0.3672536015510559,0.9806957840919495,0.006574034690856934,1.0542632105384704,1.7220561726920358,87.39592629378248,87.79428631966462,1.0,-0.023189769078370587,-0.0060720524353569585,-0.4474143483112301,-0.014090481022049748,140.17135641127854,1.3276489037823531,61,2.033333333333333
1.0910675017681513,1.1034991160538221,-0.16176216304302216,0.9986016154289246,1.0229607784437118,1.2534444829353153,0.04911953955888748,0.999952495098114,0.986948487896865,1.272514995720264,-0.31407153606414795,0.9999837875366211,1.072078655712377,1.706496580908464,0.11768446862697601,0.9999767541885376,1.047893246198484,1.7407716041231933,-0.11778835952281952,0.9999855756759644,1.3411146043857254,1.726522387298989,0.14397959411144257,0.29857000708580017,1.3565451777904667,1.7558981464981285,-0.1504334658384323,0.9874019622802734,1.3050920315242451,2.1034991160538223,0.23146145045757294,0.5179399847984314,1.3256087259716547,2.155795560066952,-0.02483317069709301,0.9809879064559937,1.270240311008209,1.6246829403898713,0.02833804488182068,0.24679280817508698,1.2814754041485958,1.6504690621796716,-0.3639282286167145,0.9824040532112122,0.007683098316192627,1.0599859509554304,1.7236340925158287,88.79857524630918,88.38208420478244,1.0,0.01978611464528916,-0.025884422819584998,0.3224426350498156,-0.14828269171696515,138.60455805138994,1.2945247412216265,62,2.066666666666667
1.0880331415892581,1.1026020029244232,-0.1570698320865631,0.9987310171127319,1.0165988273165003,1.2525427829476348,0.05170632153749466,0.9999564290046692,0.9732078514306027,1.2731735095393608,-0.3150833249092102,0.9999849796295166,1.0781285792065063,1.6999517231263976,0.1179661899805069,0.9999779462814331,1.0491854581210511,1.7401535555174061,-0.1180657148361206,0.9999861121177673,1.3416828828490324,1.7275987577155534,0.15889696776866913,0.3010730445384979,1.359652353255353,1.756258815226202,-0.15021458268165588,0.9855943918228149,1.3042127212039765,2.102602002924423,0.25530868768692017,0.5201796889305115,1.3249734780451172,2.1556621849623343,-0.0219739843159914,0.9795942306518555,1.2635277502525715,1.624532255379114,0.04463560879230499,0.2710472345352173,1.2767724924039923,1.6484890344484746,-0.36173704266548157,0.9838727116584778,0.008312642574310303,1.0636570186637786,1.7200526393219018,90.28243602534872,88.00715998785046,1.0,0.028684456677165134,-0.025557184963253425,0.06728477102030836,0.0024509865729384706,136.4177142273055,1.2875886437248818,63,2.1
1.0785721893423523,1.099117679468625,-0.1684914529323578,0.9988518953323364,1.011383744383918,1.2465736693971763,0.04845791310071945,0.9999600648880005,0.9629860253488872,1.2695817407818124,-0.3287144899368286,0.9999861121177673,1.0737380560939305,1.6938559666368518,0.11896543204784393,0.9999792575836182,1.0458839844874332,1.7357428448968144,-0.11907261610031128,0.9999867677688599,1.3365739752850008,1.7219232015177932,0.15927092730998993,0.31618058681488037,1.3571660488101147,1.7509598428252537,-0.1518244594335556,0.9846839308738708,1.2970893852133825,2.099117679468625,0.2590230107307434,0.5305035710334778,1.320391845988797,2.1506605887124444,-0.023281285539269447,0.9781398177146912,1.255134990508264,1.6188261794279013,0.02052169479429722,0.3054811656475067,1.266071033049521,1.640102262353722,-0.3917364478111267,0.9852787852287292,0.009302854537963867,1.0598110202906819,1.7147994057668332,90.11935830853018,87.54201004623799,1.0,-0.001224612378170301,0.0058711912598803095,-0.242242806190824,0.25467757234527577,138.44047207519606,1.2839850127808774,64,2.1333333333333333
1.0683333205230547,1.0888755173980054,-0.15848104655742645,0.998957097530365,1.0075989841083004,1.2380168078176372,0.06852234899997711,0.9999632835388184,0.9509099140942712,1.261805129308783,-0.32368746399879456,0.9999871253967285,1.0696569517173276,1.6831007901745894,0.12207673490047455,0.9999803304672241,1.0386148648277695,1.7266321667561557,-0.12217341363430023,0.9999872446060181,1.338422454442074,1.7103928326856823,0.16422070562839508,0.3177310824394226,1.3501964913744733,1.7393772960136975,-0.159623920917511,0.9821972846984863,1.2881035334042656,2.0888755173980056,0.2575562596321106,0.5258064270019531,1.3107187261751692,2.135998896119986,-0.02138664945960045,0.9732143878936768,1.2466081859144764,1.6091540055362363,0.044758688658475876,0.32854971289634705,1.2509661695180516,1.6278378335842318,-0.392680287361145,0.9865054488182068,0.009684860706329346,1.0541359082725485,1.7048664784653724,88.22526764382991,86.65813842344461,1.0,0.011706731568194885,0.013467907097952056,0.09425983550887139,0.05570459963625088,136.5698870840188,1.2952996593217294,65,2.1666666666666665
1.0679796877023353,1.0877356192821028,-0.16113431751728058,0.9990535974502563,1.0074771975089365,1.237352030860513,0.07156893610954285,0.9999662041664124,0.9487964059145758,1.261511729058418,-0.3240068554878235,0.9999880194664001,1.0721658507630054,1.6820994824091726,0.12367121130228043,0.9999814629554749,1.0377825875768403,1.7254901874761401,-0.12376443296670914,0.9999878406524658,1.3438384083001718,1.7090428390186285,0.16647404432296753,0.320163756608963,1.3511581064600544,1.7378076017492226,-0.1621847152709961,0.9798392653465271,1.287171546404507,2.087735619282103,0.2644447684288025,0.520857036113739,1.3088463523655283,2.1336480688013313,-0.01256908942013979,0.9684268832206726,1.245950734876315,1.6089816160822483,0.052820295095443726,0.35027700662612915,1.2470557163818408,1.6263024497875769,-0.3922012448310852,0.9875200390815735,0.009847104549407959,1.054974219169923,1.7037948349426564,87.15335195178982,86.14965416372158,1.0,0.014938025900760921,0.006215732170375417,0.023982772410949916,-0.05349632642468525,133.33065985839545,1.3001158831611357,66,2.2
1.0598169932959784,1.0860781550677654,-0.16834136843681335,0.9991434216499329,1.0025404813187506,1.2361526965519807,0.07075835019350052,0.999968945980072,0.9474295333309323,1.2605268523578919,-0.3359817862510681,0.9999889135360718,1.0724098907165662,1.6806480196190177,0.12776419520378113,0.9999825954437256,1.0369750162017324,1.7235181944121685,-0.12785249948501587,0.9999884963035583,1.342774304954629,1.707705917243063,0.16780473291873932,0.3198491930961609,1.3507029444233276,1.7365555573494573,-0.16829806566238403,0.9779205918312073,1.2866364984357868,2.0860781550677654,0.26804959774017334,0.5110709071159363,1.307618865121153,2.132024229945594,-0.018946785479784012,0.963882327079773,1.241994159851687,1.608595513075315,0.04346456751227379,0.361631840467453,1.2418525796131323,1.6252084710568862,-0.4222659468650818,0.9883615374565125,0.00994330644607544,1.0546924534591493,1.702083107015593,87.27587829632604,86.16209904667657,1.0,0.005099368539466681,-0.0016066229294611433,-0.07695208057217545,-0.06122097723868788,131.49102021813448,1.3004319331781737,67,2.2333333333333334
1.0464808627444109,1.0677442547827118,-0.18670284748077393,0.9992256760597229,0.9877133549667768,1.2216557078959414,0.04482250288128853,0.9999714493751526,0.9396903255089089,1.2496874138066245,-0.3500220775604248,0.9999898672103882,1.0623173804730281,1.6624658548416844,0.12764272093772888,0.9999836683273315,1.0282381536404135,1.7079726985006507,-0.12774229049682617,0.9999892115592957,1.328966672993096,1.6936950023356616,0.16842171549797058,0.3267214298248291,1.338669209403676,1.721356391273409,-0.1644112914800644,0.9769078493118286,1.2752957666050124,2.0677442547827116,0.27265530824661255,0.5073202252388,1.295972111380976,2.1129311804936077,-0.020411483943462372,0.9619520306587219,1.2179557243118306,1.5950687450664531,0.01859910413622856,0.36121344566345215,1.2282426287262422,1.611250742317534,-0.43680328130722046,0.9893242716789246,0.011536836624145508,1.0452777670567208,1.6852192766711676,88.51445489878597,86.24576356468665,1.0,-0.0010431924954970623,-0.014131399635070138,-0.045445100779275355,-0.09345000238812354,133.56525960677925,1.3108322460960475,68,2.2666666666666666
1.0405264103372815,1.058864835656018,-0.1673787385225296,0.9992967844009399,0.9794126414833707,1.2140706980721794,0.05282554775476456,0.9999735951423645,0.9333286063221901,1.243341561647395,-0.33440500497817993,0.9999906420707703,1.058056127636795,1.654225043632979,0.12403686344623566,0.9999843239784241,1.0234683853387425,1.6996961526236605,-0.12412607669830322,0.9999896287918091,1.3213781745104427,1.6883288437536186,0.1689208596944809,0.3267372250556946,1.3320016997063848,1.7134762548034828,-0.1540667712688446,0.974915087223053,1.2691474395848705,2.058864835656018,0.2715543508529663,0.5008399486541748,1.2904057310398394,2.102660882130896,-0.008703084662556648,0.959430992603302,1.2139252848330462,1.5883982429065469,0.0351891927421093,0.36036789417266846,1.2213840184220848,1.6054584296479868,-0.3922877311706543,0.9901171326637268,0.012106060981750488,1.0407622564877688,1.6769605981283198,89.35596082121077,86.4567152759189,1.0,0.004832831321988309,-0.00010759658157143476,0.04738600566753979,0.11263238272784758,132.61116747836783,1.3172268292360305,69,2.3
1.0289421107726044,1.0459787360056088,-0.18508633971214294,0.9993624687194824,0.962395765679861,1.2029613466824585,0.03907528892159462,0.9999754428863525,0.925224894980834,1.23379409564235,-0.34749746322631836,0.9999913573265076,1.0494326297634422,1.6415992748096024,0.12395449727773666,0.999984860420227,1.018111381315792,1.6867726409965704,-0.12403856217861176,0.9999901056289673,1.2950669918657791,1.6863947708028484,0.1956503689289093,0.31824547052383423,1.3215598115454648,1.7054988122547223,-0.1510302871465683,0.9726260304450989,1.2594821176005844,2.0459787360056088,0.3184899091720581,0.4841270446777344,1.2827167007612754,2.08708363302883,-0.0009563321364112198,0.9552972316741943,1.1845291618676055,1.5785718995300078,0.010709152556955814,0.3490718603134155,1.21094238852579,1.5933362977502707,-0.4304327964782715,0.9909489154815674,0.012849390506744385,1.0337720055396171,1.6641859579030864,94.68359870904371,87.71895834697537,1.0,0.006504067310418906,-0.0005024913585407329,0.01241002079615463,-0.0028754068436148586,134.0410899236668,1.323462911540123,70,2.3333333333333335
1.021733744549751,1.0343006416850062,-0.18194587528705597,0.999415934085846,0.9582688985984419,1.1939044936291812,0.040604520589113235,0.9999769330024719,0.9178678310736833,1.2263290546039014,-0.3438285291194916,0.9999918937683105,1.0447979495198505,1.6318826800498971,0.12383830547332764,0.9999855160713196,1.014819757980612,1.6769922196323919,-0.12391557544469833,0.9999905228614807,1.2859857197485185,1.677485019612828,0.1993090659379959,0.3098078966140747,1.314349870497824,1.6972128009415806,-0.14751864969730377,0.9703472256660461,1.2520116682409679,2.0343006416850065,0.3196496367454529,0.4722276031970978,1.275442985025691,2.074805643654571,0.0008306046947836876,0.9526461958885193,1.1706599318283881,1.5730047412448205,0.01694561541080475,0.3278709948062897,1.2020221860939837,1.5845235497892556,-0.4177670478820801,0.991222083568573,0.013592898845672607,1.0298088537502312,1.6544374498411445,95.26775468725161,87.97909197378208,1.0,0.016049053687615368,0.00046476316082039604,0.07217988087785465,0.007262875159743263,135.21769799010318,1.3381180189916728,71,2.3666666666666667
1.0186564303577665,1.0365178886858353,-0.1864762008190155,0.9994716644287109,0.9526070533978754,1.1955668920060252,0.04147685691714287,0.9999786019325256,0.9179631290435073,1.2276570541346197,-0.34601908922195435,0.9999924302101135,1.0457402902971913,1.6307998416604779,0.1239539161324501,0.9999862909317017,1.0168840442038047,1.6749254873883965,-0.12403242290019989,0.9999909996986389,1.2892769249616305,1.6797116916624675,0.19307591021060944,0.30170613527297974,1.3171127623833017,1.701470634190218,-0.1478385329246521,0.9665996432304382,1.255621732832594,2.0365178886858355,0.3072095215320587,0.45601019263267517,1.277200155207469,2.0773624240325854,-0.0016041757771745324,0.9474276900291443,1.1773140694033075,1.5743665084434102,0.0235577579587698,0.31783604621887207,1.1982792500127952,1.584573300115537,-0.4320998191833496,0.9911054372787476,0.0134352445602417,1.031312167250498,1.6528626645244373,95.9677981507893,88.99172884621558,1.0,0.0012792266734376727,-0.029005224937296126,-0.11514093447119413,-0.22941935260732593,134.73879374435373,1.3186744047390144,72,2.4
1.0172537880175339,1.0351767117994282,-0.18137408792972565,0.9995203018188477,0.9563526183315176,1.1967154594757141,0.06207423657178879,0.9999801516532898,0.9150381790744717,1.226482897101813,-0.34127455949783325,0.9999929070472717,1.0481196666241581,1.629231076377566,0.12800267338752747,0.9999869465827942,1.0162591882589433,1.6728857838308833,-0.1280837208032608,0.9999913573265076,1.2915721397415505,1.678410136837837,0.19149073958396912,0.2908433973789215,1.3167940345636218,1.6994089656368772,-0.16000685095787048,0.9630104303359985,1.2549329736918264,2.035176711799428,0.30123427510261536,0.4410003423690796,1.2761450326164567,2.0754241469390275,-0.020778575912117958,0.9423131346702576,1.1813804580919944,1.5726892465373399,0.04846276342868805,0.3179735541343689,1.1959524398668642,1.583584466690332,-0.4379907548427582,0.9913102984428406,0.012473106384277344,1.0321894274415506,1.6510584301042246,95.55685192506301,88.87349172630022,1.0,0.013385764712611454,-0.0033766289450738356,0.0936477746048273,0.198042061314282,131.89810801986263,1.3198677073949978,73,2.433333333333333
1.013266226189913,1.0343969924953025,-0.19439005851745605,0.9995653033256531,0.9535902634265784,1.1955699170543888,0.04132631793618202,0.9999815821647644,0.9141814734107939,1.2247844958319785,-0.35853323340415955,0.9999933838844299,1.0478569909525115,1.625518472222163,0.1282728612422943,0.9999875426292419,1.0165744188501207,1.6678449270661926,-0.1283556967973709,0.9999917149543762,1.28910424507589,1.6786271320099142,0.19732269644737244,0.28428053855895996,1.3157310264773323,1.6971842360862206,-0.15898089110851288,0.9614163637161255,1.2532242696639428,2.0343969924953025,0.3076830208301544,0.4325374364852905,1.2744676199296197,2.0723362954634985,-0.02000744454562664,0.9395597577095032,1.1820240422514463,1.5726543007570046,0.022070296108722687,0.31342318654060364,1.1948988172078296,1.581650505008317,-0.46253013610839844,0.9915383458137512,0.012257516384124756,1.032215704901316,1.6466816996441778,96.65627867721588,89.324482440789,1.0,0.010201491045057827,-0.016362626375220977,-0.02342071268719884,-0.09607554455612247,131.16620206897736,1.3088570260359396,74,2.466666666666667
1.0130552582292391,1.0359288386032324,-0.19836139678955078,0.9996051788330078,0.9485361862817536,1.196437763287263,0.02795911766588688,0.9999828338623047,0.9156313891925358,1.2259853111279224,-0.3586677610874176,0.9999937415122986,1.048931833135312,1.6252035884325577,0.1277439296245575,0.9999881386756897,1.018582766390731,1.6675757231642447,-0.1278335303068161,0.9999920725822449,1.288956453247563,1.6812388046360958,0.2001085728406906,0.27637678384780884,1.317508217666424,1.7005814922942333,-0.15329387784004211,0.9591124057769775,1.2543748092108402,2.0359288386032324,0.31582802534103394,0.42166221141815186,1.2761219113666005,2.0740344068628565,-0.014224259182810783,0.9364822506904602,1.1846167104887695,1.574830059433423,0.00791622418910265,0.30248790979385376,1.1969740528164836,1.5834682886284364,-0.4501613974571228,0.9911522269248962,0.01238393783569336,1.0337572997630216,1.6463896557984012,97.57205838025222,89.97702115852472,1.0,0.00343533663379069,-0.01627104950555355,-0.053578165420944436,0.0008627245005191675,131.20943947532768,1.3006663653399053,75,2.5
1.0124938003420938,1.036861346300671,-0.19044411182403564,0.9996401071548462,0.9385612923206916,1.1967282454884527,0.031159868463873863,0.9999836683273315,0.9175115193930564,1.2266064166521584,-0.3525969684123993,0.9999940395355225,1.0437487562442143,1.6288892425734485,0.12667709589004517,0.9999880790710449,1.0200694247848716,1.6686204141652516,-0.1267738789319992,0.9999921321868896,1.2773491625276916,1.6859698513241814,0.22221621870994568,0.2665676474571228,1.3179914552687968,1.7027705951906378,-0.1418411284685135,0.9573377966880798,1.2538566656879075,2.036861346300671,0.35172680020332336,0.40875232219696045,1.2782405045360046,2.0747792402405056,-0.0077399262227118015,0.9341678619384766,1.1827973269131284,1.5764205887766467,0.012211499735713005,0.2878301441669464,1.1984278286537284,1.5844752526305013,-0.4425913691520691,0.9912036061286926,0.01251530647277832,1.031909090514543,1.64875482836935,99.90095582289179,90.43996262069493,1.0,-0.01715929929015209,0.009957870492016446,-0.1446630864442506,0.18428811849240753,135.52581216883718,1.3036607704781125,76,2.533333333333333
1.013595480806872,1.037319878399484,-0.17855527997016907,0.9996718764305115,0.9298093549905164,1.1968001122667749,0.03661131113767624,0.9999845027923584,0.9185924980090368,1.226737112359927,-0.34175461530685425,0.9999942779541016,1.0390695634853453,1.6326881053793334,0.12495273351669312,0.9999880790710449,1.0206808977043735,1.66900458524664,-0.12506946921348572,0.9999921321868896,1.2720096001755734,1.6888610594052493,0.22872793674468994,0.2602159380912781,1.3177877723862303,1.7042810887913054,-0.13043034076690674,0.9558359980583191,1.2520061032249443,2.037319878399484,0.3526354134082794,0.402231365442276,1.279315907076187,2.0752295558794422,-0.0015605611260980368,0.9334410429000854,1.182351885033585,1.579066060841675,0.03002239391207695,0.2758312523365021,1.199092415353193,1.5848889035010283,-0.4282737374305725,0.9911676645278931,0.01253730058670044,1.0298752305948595,1.6508463453129867,100.27239973071862,90.85012112222614,1.0,-0.017183108074827518,0.013302613485100959,-0.00015402404578180343,0.02550699506141085,139.07296342528485,1.3085944324511642,77,2.566666666666667
1.0145718641893886,1.0379486991100344,-0.19264273345470428,0.9996978640556335,0.9357748584973898,1.1973935783045657,0.03167011961340904,0.9999851584434509,0.9186658288709749,1.2272005378750859,-0.35238736867904663,0.9999943375587463,1.0396450075692079,1.633362579294429,0.12510494887828827,0.9999880790710449,1.021259492834597,1.669764688193061,-0.1252182275056839,0.9999920725822449,1.272297980747216,1.6902948118177603,0.22297222912311554,0.24503129720687866,1.3182994285219598,1.7054625589048398,-0.13553006947040558,0.9494349360466003,1.2512724983170045,2.0379486991100344,0.34985464811325073,0.3839477598667145,1.2801209193768304,2.0760594328049127,0.0014434237964451313,0.9260264039039612,1.1832535690324286,1.5826007604519428,0.016848977655172348,0.26544275879859924,1.1995266539772798,1.585678705636981,-0.44899338483810425,0.9903877973556519,0.012477636337280273,1.0304522502019025,1.651563633743745,100.28963016672076,90.97106289978586,1.0,0.00118625870034359,0.00023083643468781593,0.14785208557408477,-0.10521624360848339,139.80219671368837,1.3094907266106386,78,2.6
