nose_x,nose_y,nose_z,nose_visibility,left_shoulder_x,left_shoulder_y,left_shoulder_z,left_shoulder_visibility,right_shoulder_x,right_shoulder_y,right_shoulder_z,right_shoulder_visibility,left_hip_x,left_hip_y,left_hip_z,left_hip_visibility,right_hip_x,right_hip_y,right_hip_z,right_hip_visibility,left_knee_x,left_knee_y,left_knee_z,left_knee_visibility,right_knee_x,right_knee_y,right_knee_z,right_knee_visibility,left_ankle_x,left_ankle_y,left_ankle_z,left_ankle_visibility,right_ankle_x,right_ankle_y,right_ankle_z,right_ankle_visibility,left_wrist_x,left_wrist_y,left_wrist_z,left_wrist_visibility,right_wrist_x,right_wrist_y,right_wrist_z,right_wrist_visibility,trunk_lateral_inclination,center_mass_x,center_mass_y,left_knee_angle,right_knee_angle,person_height,center_mass_velocity_x,center_mass_velocity_y,center_mass_acceleration_x,center_mass_acceleration_y,body_orientation,torso_leg_ratio,frame,timestamp
1.2808460075544776,0.881747330107428,-0.41086292266845703,0.9999362230300903,1.3666837631722002,1.0230955624406584,-0.20686765015125275,0.9999960064888,1.203535378701648,1.0277529425986458,-0.21841979026794434,0.9999944567680359,1.3289824307437221,1.353578365850064,0.0052473279647529125,0.9999747276306152,1.2416622921792293,1.3574241010748218,-0.005358104594051838,0.9999752044677734,1.3272752892167217,1.6261933619292084,0.015139201655983925,0.9679841995239258,1.2505398797443743,1.643097374961292,0.022640667855739594,0.8991660475730896,1.3325269322651705,1.881747330107428,0.20948894321918488,0.9595547914505005,1.2664715447056558,1.8888771299187392,0.18717584013938904,0.8880860805511475,1.4211472984635878,1.3670316647655774,-0.3123825192451477,0.952237069606781,1.1693601817217532,1.39114345814786,-0.3140130639076233,0.9860133528709412,0.0018440186977386475,1.2853223614614757,1.3555012334624428,178.46394838055528,178.07117643402123,1.0,0.19296309389905433,0.04616610676234995,1.101783584805614,0.2784521788069756,99.02992099712971,0.8939098547231386,0,0.0
1.2600018845007785,0.8556250871360078,-0.4137710928916931,0.999942421913147,1.3523475917379706,0.9962846092407884,-0.2020409107208252,0.9999962449073792,1.1722568107866698,1.0014310981618142,-0.21149906516075134,0.9999948143959045,1.321820303694094,1.3278619304849606,0.004807037767022848,0.9999768137931824,1.2148827119797538,1.3332927190924149,-0.004926411435008049,0.9999773502349854,1.311475191935518,1.605467208504947,-0.0006851033540442586,0.9706406593322754,1.2255940903473388,1.615960746853061,0.004650706425309181,0.9084399342536926,1.310196803319557,1.8556250871360078,0.18886268138885498,0.9629245400428772,1.2374877123460204,1.859112004329035,0.17012004554271698,0.8987927436828613,1.4054289277367795,1.340577437031681,-0.29219380021095276,0.9562433362007141,1.1407507195366609,1.3695060008648618,-0.3064696192741394,0.9869234561920166,0.002077043056488037,1.2683515078369239,1.3305773247886878,178.15862678558193,179.3697566720939,1.0,0.055918591402634256,0.005816485416280161,-1.0090770270423026,-0.29862641700040266,98.16746317667638,0.9016809142198037,1,0.03333333333333333
1.2611804311831434,0.8512804244521964,-0.4285801351070404,0.9999477863311768,1.3513468123804897,0.992969588430969,-0.21460294723510742,0.9999964833259583,1.1673000121717345,1.0002323761798786,-0.21935054659843445,0.9999949932098389,1.3177065267258778,1.3251138123531383,0.0038319756276905537,0.9999786019325256,1.2069971180782844,1.3308494934427821,-0.00394811388105154,0.9999791383743286,1.3081785135635957,1.5973709643161753,-0.016326339915394783,0.972943127155304,1.2164865738985373,1.6140762460748737,-0.0014934161445125937,0.9164937138557434,1.3072248275664795,1.8512804244521963,0.15617986023426056,0.9660419821739197,1.2345151170952564,1.8616366463723328,0.14701728522777557,0.9084591269493103,1.4062206189183257,1.3382470475802761,-0.3265325427055359,0.9600170254707336,1.1344919163389722,1.3640155901414996,-0.3238472044467926,0.9877667427062988,0.002935945987701416,1.262351822402081,1.3279816528979602,178.21087585993817,177.75376354854245,1.0,-0.029439526979042327,-0.003159051141627355,-0.6392028630803231,-0.0672139347583805,98.74907211610383,0.9019098868792463,2,0.06666666666666667
1.2538020313977294,0.8516763151443457,-0.4412451386451721,0.9999525547027588,1.3488588732574214,0.9918239360059713,-0.2244398593902588,0.9999966621398926,1.1662030394748208,0.997256087974263,-0.2238980531692505,0.9999951720237732,1.3133960508315576,1.3235185021676397,0.0036296523176133633,0.9999802112579346,1.202721643192464,1.3290465338347455,-0.003733935998752713,0.9999807476997375,1.308466273137697,1.594659957346053,-0.016472360119223595,0.9750931859016418,1.2132310007785991,1.6112556875181938,0.0049460348673164845,0.9239046573638916,1.304753475399751,1.8516763151443456,0.15267165005207062,0.968952476978302,1.23228675953644,1.8601060700465266,0.1510709971189499,0.917214035987854,1.4017109739617395,1.3370599263582055,-0.3277571499347687,0.963623583316803,1.1317633756782366,1.3584134104327863,-0.3297678530216217,0.9887195229530334,0.0021983981132507324,1.2580588470120109,1.3262825180011926,179.78601122839365,177.75379861259248,1.0,-0.021098099364437257,-0.001488545269763388,0.061069337312979886,0.012252793544815363,98.96201210752885,0.8960021530718228,3,0.1
1.2494438569114015,0.8479034381378426,-0.4309552311897278,0.9999569058418274,1.3476161321520794,0.9883588333781854,-0.21920649707317352,0.9999968409538269,1.163366145585665,0.9950564405386871,-0.22297248244285583,0.9999952912330627,1.3113422904781495,1.3208052682883658,0.003030097112059593,0.9999815821647644,1.1999636429472793,1.3265278654462673,-0.003137537743896246,0.9999821186065674,1.306524135650766,1.5938652582339425,-0.018098749220371246,0.9766525030136108,1.2083259120889993,1.612693301209361,1.862121621343249e-06,0.9299654960632324,1.3035694084142981,1.8479034381378425,0.15835441648960114,0.9710888862609863,1.2288315544521842,1.8568590637889857,0.15332698822021484,0.9247545599937439,1.3970179130890021,1.3341900444745403,-0.32690170407295227,0.9669332504272461,1.1247650408928633,1.3534422285623682,-0.3677821159362793,0.9895069003105164,0.0027154088020324707,1.2556529667127145,1.3236665668673164,179.65549773193783,176.87323384208133,1.0,-0.0010575452355376146,-0.0016947497065704052,0.1457084180208154,-0.0015215727955624119,99.16826549507392,0.8997419373351254,4,0.13333333333333333
1.2527037272826314,0.8533122701469459,-0.43320924043655396,0.9999608397483826,1.3521077164093773,0.9903545712594902,-0.2196170538663864,0.9999970197677612,1.16805488525262,0.9994965812890662,-0.21628662943840027,0.9999954700469971,1.3180040307426928,1.325327611251294,0.0027718008495867252,0.9999828338623047,1.2046005020320045,1.3310517585982993,-0.002896189456805587,0.9999833703041077,1.3132753616261288,1.6008424389423177,-0.020679129287600517,0.9779137372970581,1.2128406365189301,1.6174891126944644,-0.0003060812596231699,0.9353153705596924,1.3087089666727962,1.853312270146946,0.1617382913827896,0.9728019833564758,1.2335952069522973,1.8635578182474788,0.15888406336307526,0.9314374327659607,1.40334416070807,1.338602375413458,-0.31398555636405945,0.9697251915931702,1.128888098171148,1.3560641080309261,-0.32470840215682983,0.9901787638664246,0.0036937296390533447,1.2613022663873485,1.3281896849247967,179.94708293309222,176.82663198249207,1.0,0.010360246272561642,-0.0002538189831504505,0.08912085467260017,0.011289023136467156,98.7028715643004,0.8955686378481013,5,0.16666666666666666
1.2564159559532035,0.8581138247525557,-0.44254016876220703,0.9999644160270691,1.3563366772840197,0.9938608978275987,-0.2270357310771942,0.9999971389770508,1.1715961414063891,1.0029835684339776,-0.22093565762043,0.9999955892562866,1.3232753855641195,1.3290844682624119,0.0008346772519871593,0.9999840259552002,1.2093143334857146,1.3352068474749144,-0.0009739421075209975,0.9999845623970032,1.3177241028317004,1.6060311872842756,-0.02949218824505806,0.9792898893356323,1.215875431411668,1.6223353332316144,0.003086281940340996,0.940227210521698,1.3126742129146536,1.8581138247525557,0.15050600469112396,0.9746770262718201,1.2369410332154982,1.869632688325317,0.16039805114269257,0.9376261234283447,1.4085173438552816,1.3426194104431481,-0.3175041079521179,0.9720463752746582,1.1330988517838145,1.3595013124563704,-0.33491629362106323,0.9907587170600891,0.003674238920211792,1.266294859524917,1.3321456578686632,179.99931782363694,176.440134012123,1.0,0.007705936328440679,-0.0020753882652988355,-0.021041404711282526,-0.014256811229031562,98.70772823995931,0.8915689125409857,6,0.2
1.2604100612193936,0.861538421579326,-0.4611004889011383,0.9999677538871765,1.3607337273627573,0.9969229638958079,-0.24233710765838623,0.9999972581863403,1.1750462048910952,1.0047199673773617,-0.23995330929756165,0.9999958276748657,1.3278736177029018,1.33028172646185,0.0004656467936001718,0.9999851584434509,1.2125522947347018,1.3364113094286179,-0.0006034469115547836,0.9999856948852539,1.3224169694118242,1.6105309675736468,-0.015115047805011272,0.9804312586784363,1.2192808251835487,1.6259574087562396,0.0023988732136785984,0.9447622895240784,1.3174971549809076,1.861538421579326,0.1706548035144806,0.9763414859771729,1.2387232051519428,1.874278021907482,0.15823476016521454,0.9432632327079773,1.4119782817531774,1.3466402430223285,-0.3463471531867981,0.9741655588150024,1.1364846287338208,1.3625744278144354,-0.37820321321487427,0.9914000630378723,0.0031312406063079834,1.2702129562188018,1.333346517945234,179.9925787658857,176.85434416302598,1.0,0.001759131107941051,-0.018818501944860733,-0.04223801037283473,-0.11843285681622277,98.67215350119432,0.8826974219788299,7,0.23333333333333334
1.2618005439396291,0.8608054317659051,-0.4629615843296051,0.9999707341194153,1.3614603608504496,0.996794124543485,-0.2447049617767334,0.9999973773956299,1.175073266178515,1.0039594131758207,-0.24633169174194336,0.9999960064888,1.327197701442744,1.3299274200366362,0.00043930095853284,0.9999861121177673,1.2115917140837995,1.3366057891025174,-0.0005754883750341833,0.9999867081642151,1.3214697162379734,1.6105428774615695,-0.009801414795219898,0.9808270931243896,1.2187335474443366,1.6265836112523253,0.0022616155911237,0.9480910301208496,1.316481314350299,1.860805431765905,0.177903413772583,0.9773985743522644,1.239512171912891,1.8728204689703454,0.16152365505695343,0.9480258226394653,1.4130839295685693,1.3471388391021055,-0.3681226372718811,0.9758865237236023,1.1390380265625015,1.3622330487600214,-0.39605841040611267,0.9919297099113464,0.0028769373893737793,1.269394707763272,1.333266604569577,179.97253505629666,176.5873863731652,1.0,-0.008385492267263041,-0.0027945916614634564,-0.07823824101200082,0.12360719002012001,99.17841534156675,0.8855061995603007,8,0.26666666666666666
1.2637973318303817,0.8604148446456492,-0.4640769958496094,0.9999732971191406,1.3607135281012124,0.9965449769945848,-0.24635417759418488,0.9999974370002747,1.1727585700560172,1.0040641873751017,-0.25079333782196045,0.9999960660934448,1.3258205039681383,1.3294449206709948,0.00041325396159663796,0.9999867081642151,1.21026513934839,1.3363527407462479,-0.00054866389837116,0.9999873042106628,1.3228117810459954,1.6097227085273142,-0.019220221787691116,0.9807066917419434,1.218373629074102,1.6261072267298655,0.003968621138483286,0.94922935962677,1.316065712289368,1.8604148446456492,0.16615600883960724,0.9775533080101013,1.2386175485786326,1.871535470394723,0.17157447338104248,0.9514329433441162,1.4133745635960553,1.3468698411624311,-0.3831820785999298,0.9776787161827087,1.1376450299050735,1.3612734250967855,-0.40839043259620667,0.992436945438385,0.003020167350769043,1.2680428216582642,1.3328988307086214,179.07358999663973,176.88763232704696,1.0,-0.007063735610214336,0.0010424790801304706,0.010604873741615247,0.03085069096488865,99.40465945863264,0.8862314064073313,9,0.3
1.267014485372047,0.8593197478199371,-0.467482328414917,0.9999756217002869,1.35953541856858,0.9972414327364377,-0.24817955493927002,0.9999974966049194,1.1727848076374974,1.0044526196260306,-0.255209356546402,0.9999961853027344,1.326119178327468,1.3295660517545982,0.0007344772457145154,0.9999874830245972,1.2105420663327982,1.3372907227593152,-0.0008646972710266709,0.9999880790710449,1.32408156650647,1.6119360124589648,-0.014048789627850056,0.9814277291297913,1.2180262457165445,1.6274709846228574,0.00492613110691309,0.9521785378456116,1.3167945442461173,1.8593197478199373,0.1845100373029709,0.9784249067306519,1.2389823338461496,1.8717827196419028,0.17389515042304993,0.9552996754646301,1.4131299520701164,1.3495282661503925,-0.3807436525821686,0.979277491569519,1.1357463525004636,1.3612733990518797,-0.41728657484054565,0.992938756942749,0.002896249294281006,1.268330622330133,1.3334283872569568,178.7262085526801,176.5748118877112,1.0,0.0014739985908526125,0.003210813655447227,0.062481782271476695,0.015867129839153452,99.56567647585562,0.8908314894914355,10,0.3333333333333333
1.2654851027633949,0.8563568356649686,-0.4673060476779938,0.999977707862854,1.3556806257778893,0.9954598023632512,-0.24976405501365662,0.9999975562095642,1.1701019352995925,1.0023043035556416,-0.2595122754573822,0.9999962449073792,1.322775372381866,1.3259602628315703,0.0010274301748722792,0.9999881982803345,1.20714648015855,1.3337543526823807,-0.001155167119577527,0.9999887943267822,1.3203187022693066,1.6083951455629977,-0.011746613308787346,0.9821068644523621,1.2151789666630413,1.6236116634008053,0.0019445891957730055,0.9547441601753235,1.314236181933961,1.8563568356649687,0.1730426698923111,0.9795457720756531,1.2364865190023975,1.8685566733627499,0.17286667227745056,0.958913266658783,1.4085071031467544,1.3478046518590756,-0.3656788170337677,0.9808201789855957,1.1356693145229984,1.357934288553681,-0.4018181264400482,0.9933276176452637,0.0027551651000976562,1.2649609262702082,1.3298573077569755,179.0931682599263,176.61577182945135,1.0,-0.0042370555640250575,-0.004685883431961737,-0.046445504192525806,-0.06419894638149899,99.54198955133675,0.8888636727443167,11,0.36666666666666664
1.26342372018666,0.8549527382897119,-0.44649219512939453,0.9999796152114868,1.3540118811951465,0.9941565565502803,-0.23486897349357605,0.9999976754188538,1.1688973421027375,1.000000443626135,-0.24166765809059143,0.9999963641166687,1.3216524600326125,1.323857873424887,0.001926342025399208,0.9999887347221375,1.206461754769092,1.3320380436028298,-0.002056065946817398,0.9999893307685852,1.3184494793381867,1.6067165588334762,0.0009084647754207253,0.9827144145965576,1.2143961560682657,1.6218610678288095,0.0018181086052209139,0.9575920104980469,1.3123369026999234,1.8549527382897117,0.1932542622089386,0.9805099964141846,1.2351681365232812,1.8659974024211043,0.16750767827033997,0.9622127413749695,1.406447750970765,1.3443968762213583,-0.35219472646713257,0.9823692440986633,1.1329067670878503,1.3557491211396577,-0.3828267455101013,0.9937714338302612,0.002355515956878662,1.2640571074008522,1.3279479585138583,179.23819889118596,176.70496401473832,1.0,0.005629705289180905,-0.0010062100668568725,0.07119307338898762,0.02652063926703696,99.66748706320065,0.8880581994974721,12,0.4
1.2628777432272373,0.8553274825450744,-0.4509551525115967,0.9999813437461853,1.3547205492389576,0.9939493042620674,-0.2353208065032959,0.9999977350234985,1.1694478803927595,0.9997712490445598,-0.23814144730567932,0.9999964237213135,1.3216601565461195,1.3238287422284396,0.0018666982650756836,0.9999892115592957,1.2072681862741292,1.3319584609564719,-0.0019962636288255453,0.9999898076057434,1.3186045230268937,1.6069925461800698,0.0011418613139539957,0.9833423495292664,1.2153844447131572,1.621910392193624,0.0011883138213306665,0.9603791832923889,1.3130804795856597,1.8553274825450745,0.18975284695625305,0.9814927577972412,1.2350908255187851,1.8663516071548092,0.1660662591457367,0.9652517437934875,1.4062733082099257,1.3438254067392412,-0.3439272940158844,0.9838044047355652,1.1336199931145445,1.355332622600491,-0.36570149660110474,0.9941667318344116,0.002346038818359375,1.2644641714101243,1.3278936015924556,179.34396148755047,176.994282199714,1.0,0.0005223878346593924,-0.0032593728654699006,-0.04036402752323317,-0.01779970465618677,99.78816852485707,0.886561941206965,13,0.43333333333333335
1.2614326508498062,0.854269633064484,-0.44543927907943726,0.9999829530715942,1.3540676043832096,0.9924941985106924,-0.23068328201770782,0.9999977946281433,1.168686042108866,0.9990476424124856,-0.23333799839019775,0.9999964833259583,1.3210674681209973,1.3226931561195479,0.0015404924051836133,0.9999895095825195,1.2067154658793213,1.3306928711807786,-0.001672278856858611,0.9999901056289673,1.316276565589269,1.6062477258841747,0.0010375643614679575,0.9839738011360168,1.2145268967123564,1.6202512545138705,0.00039063874282874167,0.9630380272865295,1.3124504349897714,1.854269633064484,0.18246203660964966,0.9823859930038452,1.2334879608936318,1.8654796385533978,0.15731418132781982,0.9680847525596619,1.404699361518428,1.3422153043450502,-0.34028270840644836,0.9850928783416748,1.1332895678418815,1.353253725855208,-0.3345492482185364,0.9945840835571289,0.0026430487632751465,1.2638914670001593,1.3266930136501631,179.9158377880539,177.1239820905651,1.0,0.0037292789166031314,-0.0005553658487162604,0.023937532687037875,0.020160383909713964,99.70891567624292,0.8859253702229266,14,0.4666666666666667
1.2605661998024438,0.8533635527972407,-0.4655904173851013,0.9999845027923584,1.35409308662542,0.9913959182153871,-0.24251464009284973,0.9999978542327881,1.1688948375066077,0.998759733396605,-0.24238547682762146,0.9999966025352478,1.320466570715289,1.3199635203538165,0.0003490060626063496,0.9999899864196777,1.2063400301327905,1.327481944111622,-0.00048354495083913207,0.9999905824661255,1.314999055949542,1.6054356622964567,-0.01369465421885252,0.9846978783607483,1.2130590396450962,1.6186997928407587,0.0004903114750050008,0.9652743339538574,1.3119232834163577,1.8533635527972407,0.16439877450466156,0.9832777976989746,1.2327347354132385,1.86457160349408,0.15815508365631104,0.9706020355224609,1.4058245401706029,1.3397837045958267,-0.34331217408180237,0.9862321615219116,1.1323870470958555,1.3517464047042373,-0.35299673676490784,0.9949662089347839,0.0029709041118621826,1.2634033004240397,1.3237227322327192,179.61354496431235,176.74640070723342,1.0,-0.00039416911364950413,-0.01932536991088218,-0.031717320356976005,-0.14442440292846437,99.61254636114447,0.8786636131636422,15,0.5
1.2604764960598283,0.8530569422186925,-0.4632267355918884,0.9999858736991882,1.3543634388930645,0.9913803571681817,-0.2399100363254547,0.9999979138374329,1.1694912049314783,0.9989581560610573,-0.24260421097278595,0.9999967217445374,1.3210759895338449,1.3191700171126837,0.0003813564544543624,0.9999904632568359,1.2065063948019041,1.3267345205848566,-0.0005141149740666151,0.9999909996986389,1.3149346869844332,1.6057306513219785,-0.010053289122879505,0.9852977395057678,1.2132372753960263,1.6184689938971064,0.0004382653278298676,0.9674298167228699,1.3113740255933894,1.8530569422186924,0.18030884861946106,0.9840639233589172,1.2319325573534903,1.8642144592722856,0.16042935848236084,0.9728991389274597,1.4064964084636875,1.3396236923215104,-0.344217985868454,0.987270712852478,1.1330595363029985,1.3513877760129338,-0.3614577353000641,0.9952224493026733,0.0030574798583984375,1.2637911921678744,1.3229522688487703,179.597086066876,176.97124817087487,1.0,0.0036964783959959565,-0.005022431604044649,0.030918877082899702,0.10809691127070103,99.57607363122001,0.8771117668441231,16,0.5333333333333333
1.259739030172215,0.8511458800306242,-0.44930505752563477,0.999987006187439,1.3537885269944931,0.9899393235003828,-0.2371598780155182,0.9999979734420776,1.168908099731577,0.9959077953344218,-0.23917870223522186,0.9999967813491821,1.3210376068849101,1.3179216131204399,0.0007594297640025616,0.9999907612800598,1.2060381326618148,1.325489110883582,-0.0008902486297301948,0.9999913573265076,1.313407089686471,1.6046519264650265,-0.005520861130207777,0.9856560826301575,1.2122961692079217,1.6166378688509468,0.0008143990417011082,0.9690606594085693,1.3096737415944877,1.8511458800306242,0.18457606434822083,0.9845711588859558,1.2308415197719789,1.8622932359262436,0.16136334836483002,0.9748302102088928,1.4046494912877845,1.3381319607788877,-0.3516119122505188,0.9881205558776855,1.1322549187813045,1.348317200284104,-0.3812917172908783,0.995482325553894,0.0024104416370391846,1.2635378697733626,1.321705362002011,179.34331856567002,176.914080663563,1.0,0.007281815600178573,7.994207183596207e-05,0.02757369646854591,0.039165659331209045,99.46730985456023,0.8794823183564914,17,0.5666666666666667
1.2605022583740475,0.8509093855268669,-0.44945579767227173,0.9999880194664001,1.3559715789905542,0.9899008487755666,-0.2359386682510376,0.9999980330467224,1.169018555472945,0.9952448409220979,-0.23956024646759033,0.9999968409538269,1.3232659604014927,1.3178920838698995,0.0012151505798101425,0.9999911189079285,1.2081310172762736,1.3254970326650348,-0.0013497297186404467,0.9999916553497314,1.313834448475926,1.605320394550623,-0.005275847390294075,0.9858493208885193,1.2127186762206186,1.616438713988578,0.0012798015959560871,0.9703481793403625,1.3094751652643388,1.8509093855268668,0.18321093916893005,0.9849674701690674,1.2308463228334117,1.8623511942095425,0.16135157644748688,0.9765573740005493,1.4054922924850437,1.3380871396201421,-0.3635473847389221,0.9890143275260925,1.1329382150300304,1.34808505287839,-0.3827572464942932,0.9956825375556946,0.0021583735942840576,1.2656984888388831,1.321694558267467,179.13751428999632,176.68740147819756,1.0,0.01663941703770712,0.0005376747624754006,0.06950997921629405,0.0033999931991148665,99.47345926649723,0.8800969198210632,18,0.6
1.2609703808197175,0.8503083666140016,-0.45273226499557495,0.9999890327453613,1.3563867767629807,0.9892141731554261,-0.23696009814739227,0.9999980926513672,1.1685415767737164,0.9941429366482166,-0.24297623336315155,0.9999969601631165,1.3229668021094747,1.31702096409286,0.0013286753091961145,0.9999913573265076,1.2082150777132237,1.3246641383091582,-0.0014607489574700594,0.9999918937683105,1.3136724486205567,1.6053616653301312,-0.0044827936217188835,0.9857985377311707,1.2119096226722825,1.6154184191798107,0.005245943553745747,0.9709792733192444,1.3081902444016662,1.8503083666140017,0.18179306387901306,0.9851315021514893,1.229979912151423,1.8611573090010136,0.16669973731040955,0.9779021739959717,1.4064577522549797,1.3374179018683086,-0.3735085725784302,0.989695131778717,1.1328175898887722,1.347056441516224,-0.41001424193382263,0.9958879351615906,0.001992166042327881,1.2655909399113492,1.3208425512010091,179.43590617527755,176.52235687384118,1.0,0.006445054941479522,0.0010839781528436938,-0.07771919610895926,0.0041730821412246134,99.63182934791877,0.8797031209568305,19,0.6333333333333333
1.2621844698054794,0.8501737737242452,-0.456193745136261,0.9999899864196777,1.3578715523722145,0.9886536587135069,-0.23737402260303497,0.999998152256012,1.1695570963120576,0.9917687294577608,-0.24137941002845764,0.9999969601631165,1.3228873993740813,1.3166846807105932,0.0004815697611775249,0.9999915957450867,1.2082905097416636,1.3242939249154204,-0.0006140007171779871,0.9999921321868896,1.3137529448207055,1.6048518349187215,-0.01626303419470787,0.9862601161003113,1.212018687033471,1.6151299392230583,0.006891717668622732,0.9721706509590149,1.3077337821633985,1.8501737737242452,0.16134098172187805,0.985573947429657,1.2297554311568408,1.861241242572432,0.165683314204216,0.9793152809143066,1.4078363818619537,1.3360425413528092,-0.3643154501914978,0.9904412031173706,1.1329446025024654,1.3467330200742451,-0.3915138840675354,0.995997428894043,0.0012593567371368408,1.2655889545578725,1.320489302813007,179.58993411615816,176.61236012480967,1.0,0.0020807906598655506,-0.0005359698421888048,-0.03363819291162228,-0.012488148397851817,99.88639120997583,0.8787397326291153,20,0.6666666666666666
1.263579539816464,0.8502754339406037,-0.4562423825263977,0.9999906420707703,1.3598467283584827,0.9887513754740898,-0.23880262672901154,0.999998152256012,1.1706320671132568,0.9919742939134709,-0.2468194216489792,0.9999969601631165,1.3241680768516797,1.31677859434252,0.0009936813730746508,0.999991774559021,1.2091428350682898,1.3242916354514098,-0.0011239091400057077,0.999992311000824,1.3146461026624519,1.6048395455933444,-0.01611509546637535,0.9860074520111084,1.2136322291549049,1.6156153889139626,0.006779891904443502,0.9721709489822388,1.3080718415111776,1.8502754339406038,0.16159723699092865,0.9854280352592468,1.2298843871913672,1.8614408259730202,0.1652446836233139,0.9801474213600159,1.4093478715704195,1.3361171370912153,-0.3647805452346802,0.9908923506736755,1.1337114157677581,1.3479842181166102,-0.40332770347595215,0.9960874915122986,0.001302868127822876,1.2666554559599847,1.3205351148969648,179.64111506933358,177.10040848541024,1.0,0.007333923067991761,-0.0003332598204233391,0.03931457924911108,0.0015174026075045596,99.94455681166004,0.8784661368749199,21,0.7
1.2681538849500658,0.8500860204955745,-0.463289737701416,0.999991238117218,1.3629259956893556,0.9888723630400311,-0.24895158410072327,0.9999982118606567,1.1725994480446749,0.9910268006973045,-0.25256142020225525,0.9999970197677612,1.3256028529658035,1.3163408424015621,0.0010736023541539907,0.9999920725822449,1.2106893632905849,1.3233520711740634,-0.0012020152062177658,0.9999926090240479,1.3150654436146136,1.6039974486127144,-0.013144607655704021,0.986347496509552,1.2156599687467589,1.6153931832138886,0.007947724312543869,0.9733431935310364,1.3081059620359883,1.8500860204955745,0.16821898519992828,0.9858249425888062,1.230275381316742,1.8614369370143033,0.16525651514530182,0.981360912322998,1.4118465543850844,1.3362175145380497,-0.38621214032173157,0.9914831519126892,1.133894979586027,1.3478071168313792,-0.3914945125579834,0.9961506724357605,0.0008710324764251709,1.2681461081281942,1.3198464567878128,179.52199993872136,177.5756219531381,1.0,0.012388526969270107,-0.0040845288837184895,0.038320706834075124,-0.028435279084236566,99.99367995180123,0.8765519843456482,22,0.7333333333333333
1.2735922318503248,0.8501108546767685,-0.4725553095340729,0.9999917149543762,1.365045405193986,0.9888966935548014,-0.25560861825942993,0.9999982118606567,1.175168891487878,0.9903623474020524,-0.25783243775367737,0.9999970197677612,1.326804393261103,1.316191652945435,0.0008275966392830014,0.9999922513961792,1.2126345067090354,1.3226516459322928,-0.0009560448816046119,0.9999927878379822,1.3161027539593773,1.6039541325460294,-0.018356038257479668,0.9864194393157959,1.2188642174136013,1.6153682905867548,0.009418669156730175,0.9735154509544373,1.3082153646491193,1.8501108546767686,0.16166362166404724,0.9859305024147034,1.2311210729739048,1.8614123778495866,0.1713573932647705,0.9821264147758484,1.414687748945725,1.3362228206645768,-0.38946324586868286,0.9918463826179504,1.1358762767895731,1.349414810998618,-0.38664984703063965,0.9961217045783997,0.0005925595760345459,1.2697194499850692,1.3194216494388638,179.70545244685738,178.36733606796963,1.0,0.011641475159409519,-0.0031377977913683718,-0.005525577341242157,0.007002545458910628,99.90267309884652,0.8750505951869524,23,0.7666666666666667
1.272247893013405,0.8468006841108711,-0.43637385964393616,0.9999921321868896,1.362612380158666,0.9866677975824542,-0.22213312983512878,0.9999982118606567,1.1746636659635714,0.9883740287690558,-0.23394747078418732,0.9999969601631165,1.325296720106361,1.314009140849995,0.0015324781415984035,0.999992311000824,1.2116472604999535,1.3201715529609555,-0.0016674607759341598,0.9999927878379822,1.3140285616067968,1.6010773517708898,-0.01575871743261814,0.9863790273666382,1.2176848353976837,1.6128224958276638,0.007154812105000019,0.9737391471862793,1.3054653319996765,1.846800684110871,0.16641688346862793,0.9857911467552185,1.2286140134148877,1.858263050178454,0.1717718541622162,0.9826791882514954,1.4125983185008528,1.3335187623269391,-0.3444209694862366,0.9923131465911865,1.1365384398938243,1.3466039386030428,-0.37074998021125793,0.9962159991264343,0.0006912350654602051,1.2684719903031574,1.3170903469054753,179.74804561898583,178.63225154013784,1.0,0.010239130215914672,0.0027546087748006576,-0.01050286625588379,0.04484299628448506,99.60713393394091,0.8783423626411493,24,0.8
1.2769005662611426,0.8460613282157119,-0.43931588530540466,0.9999926090240479,1.3639306226784182,0.9862999011840995,-0.21734163165092468,0.9999982118606567,1.1771456279295296,0.9878340551742456,-0.2337433099746704,0.9999969005584717,1.3278786289547502,1.3148351948146875,0.003502925857901573,0.9999922513961792,1.2155174936793267,1.3216427411786698,-0.003633752465248108,0.9999927282333374,1.31436089614065,1.6019845833076576,-0.008084384724497795,0.9864287376403809,1.2203793859942615,1.6148803598140042,0.005560419987887144,0.9743378162384033,1.3049031599763101,1.846061328215712,0.18656229972839355,0.9858796000480652,1.2281400888563636,1.8570184364674351,0.1851603239774704,0.9832504987716675,1.4146157232142949,1.333632570450266,-0.3393459916114807,0.9926024079322815,1.1388100147760583,1.3463171553609796,-0.36388492584228516,0.9962499141693115,0.0006217658519744873,1.2716980613170383,1.3182389679966786,179.52380148317658,179.11413613349626,1.0,0.028624674982572866,0.012796527690313916,0.14140584589673724,0.0772252884624622,99.72942772431952,0.8853948302389358,25,0.8333333333333334
1.2753917224834828,0.8456946643400113,-0.4288567900657654,0.9999929666519165,1.3647366136135808,0.985398387049935,-0.2139902412891388,0.9999982118606567,1.1795454052537957,0.9876275797625091,-0.21789249777793884,0.9999967813491821,1.3323871830057599,1.316838488477799,0.003384233918040991,0.9999920725822449,1.2204717248508192,1.3253334029320416,-0.0035148344468325377,0.9999924898147583,1.3175179581209377,1.6026846476399972,-0.0051102908328175545,0.9860324859619141,1.2221140828207475,1.6153565138693193,0.005377575755119324,0.9745628237724304,1.3047181675052208,1.8456946643400112,0.19275759160518646,0.9855927228927612,1.227867224779689,1.8548056744022936,0.18979261815547943,0.9834854006767273,1.4176814293124027,1.3333627902514265,-0.3393486738204956,0.9928666353225708,1.138937793826325,1.3460220110816337,-0.3360932469367981,0.9960980415344238,0.0009036362171173096,1.2764294539282897,1.3210859457049204,179.96265457565906,178.94809781642192,1.0,0.03885816258935454,0.024255431826117644,0.07974596544732747,0.0892647851295737,99.91526079373753,0.8982145364967425,26,0.8666666666666667
1.2780917167062367,0.8460549253695344,-0.44025811553001404,0.9999929666519165,1.3669863184036615,0.9856004134400063,-0.23276777565479279,0.9999982118606567,1.1813232683320793,0.9880638170063234,-0.23167891800403595,0.9999966025352478,1.3361124447397914,1.3177286889670625,0.002597570652142167,0.999991774559021,1.2228210294659099,1.3265238485775976,-0.0027376667130738497,0.9999919533729553,1.320248566979318,1.6007489040979344,-0.05655030533671379,0.9850518703460693,1.2221485570595227,1.6155813878756866,-0.00015842336870264262,0.9710172414779663,1.3049559047084907,1.8460549253695344,0.12312648445367813,0.9839990735054016,1.2279425557819355,1.853176147105931,0.18863187730312347,0.9818530678749084,1.4205908624199404,1.3366733654085636,-0.3723387122154236,0.993120014667511,1.1404620212660115,1.3480897334825297,-0.3475859761238098,0.9957337379455566,0.000998377799987793,1.2794667371028505,1.32212626877233,179.64092285596607,178.46976443673148,1.0,0.020594155155130453,0.005748294575805704,-0.13523295384976616,-0.1370108367168271,99.74996369844746,0.902248123486426,27,0.9
1.2826048243543506,0.8486950027949234,-0.44473186135292053,0.9999930262565613,1.3708133411006915,0.9867012466315466,-0.2284066379070282,0.999998152256012,1.1856376291685415,0.98940057548171,-0.23200437426567078,0.9999964833259583,1.3392530226782804,1.3197412909968118,0.0028485688380897045,0.9999913573265076,1.226271027287142,1.3284994539036499,-0.0029903328977525234,0.9999915957450867,1.3250751388808082,1.6030884823382203,-0.039845313876867294,0.9849005341529846,1.2257079920077714,1.6174817114799542,0.0006050135125406086,0.971107006072998,1.3071198738565302,1.8486950027949234,0.1452123373746872,0.983904242515564,1.2298712862318173,1.8531630504507597,0.1842031627893448,0.9819867014884949,1.4240191071122146,1.3392201758850037,-0.3459573984146118,0.993215024471283,1.143640499948815,1.3508371881672006,-0.3354346454143524,0.9957514405250549,0.0010923147201538086,1.2827620249827112,1.3241203724502308,178.68331152204684,178.87634791961418,1.0,0.010275086625048354,-0.00030265266941620724,-0.08010566378316332,-0.046897451208067306,99.84603265477142,0.9021281764974178,28,0.9333333333333333
1.2839090052512854,0.8503276365808748,-0.44669994711875916,0.9999927878379822,1.3745115797225416,0.9878402386260067,-0.22876238822937012,0.9999980330467224,1.188559780282131,0.9917164068432415,-0.23259329795837402,0.9999963045120239,1.3417500602309729,1.321463929372059,0.002607054077088833,0.9999908804893494,1.2302025936153769,1.3297476700181905,-0.0027558738365769386,0.9999911189079285,1.3279165894498344,1.6029099358354857,-0.05064721778035164,0.9848356246948242,1.2299134406992058,1.6156804507039262,7.363814802374691e-05,0.9702836871147156,1.3089773315470403,1.8504650966767031,0.13643613457679749,0.9833278656005859,1.2317035929664972,1.8503276365808747,0.18730394542217255,0.9813185334205627,1.4269941982842709,1.341002289108817,-0.3472425043582916,0.9931266903877258,1.146490722660319,1.3557616981749443,-0.3373798727989197,0.9957382678985596,0.001566469669342041,1.2859763269231748,1.3256057996951247,178.43900132398898,179.50495090805902,1.0,0.012068080038461836,-0.0020742103937793346,0.01411053414603331,-0.014044888318628507,99.85551276703946,0.9052556077982288,29,0.9666666666666667
1.2944145152153026,0.8580237384684228,-0.455606073141098,0.999992847442627,1.3881435616034792,0.9966476452910843,-0.22883029282093048,0.9999979138374329,1.1998814155295812,1.0004663033002414,-0.23560264706611633,0.9999961853027344,1.3529549219064723,1.3329770839602602,0.0026797642931342125,0.9999904632568359,1.241035285575434,1.3390464662906532,-0.0028305286541581154,0.9999907612800598,1.340725991387375,1.615491119369702,-0.04179883748292923,0.9849915504455566,1.2451855932515468,1.6259015562909842,-0.0017712244298309088,0.9701583385467529,1.3210033257959537,1.8666390415934657,0.14512869715690613,0.9834001660346985,1.244793684223839,1.8580237384684228,0.19785268604755402,0.9809964299201965,1.4397978856403804,1.3548594152833362,-0.33143073320388794,0.9928260445594788,1.1578514041360983,1.369911459656544,-0.3359471559524536,0.995762050151825,0.0015297532081604004,1.2969951037409533,1.3360117751254565,177.98833682210415,179.07434826935025,1.0,-0.0024002432054038426,-0.009875600190654713,-0.11326823183907003,-0.06048732424137426,99.07696909440753,0.9078540333584777,30,1.0
1.3034582942015636,0.8644759770152499,-0.4580286145210266,0.9999917149543762,1.3996032915351575,1.0039800494671534,-0.23805558681488037,0.9999977946281433,1.208984559425483,1.0076111729458856,-0.24605011940002441,0.9999958872795105,1.3628485550297351,1.3417959376501634,0.002732001943513751,0.9999900460243225,1.2502116338039737,1.3461083511118719,-0.0028829346410930157,0.9999902248382568,1.3513818098647132,1.6242618671557225,-0.043023981153964996,0.9845224022865295,1.2562582603881172,1.6294785205178373,-0.005524400155991316,0.9683828353881836,1.3313759704504053,1.8803578050157213,0.13700313866138458,0.9830272793769836,1.2566069615530924,1.86447597701525,0.19164863228797913,0.9799215197563171,1.4497062456852634,1.369351947915302,-0.33253151178359985,0.9925609827041626,1.1670832395319954,1.3810136899492829,-0.34256917238235474,0.9955244064331055,0.001444011926651001,1.3065300944168545,1.3439521443810176,177.8578631384079,178.86261154565315,1.0,5.3772248192954894e-06,-0.014204929901583115,0.01830269772033397,-0.03215072130935286,98.4019718327526,0.9070592203417129,31,1.0333333333333334
1.3031622962758789,0.8643178654608804,-0.4588736593723297,0.9999914765357971,1.3998258948183475,1.0037441007555798,-0.23867113888263702,0.9999977350234985,1.2094318514458329,1.0072893804682344,-0.24439623951911926,0.9999956488609314,1.36335418668554,1.3418906569697755,0.0025544711388647556,0.9999898672103882,1.2502980067384821,1.3456365563326038,-0.0027051884680986404,0.9999899864196777,1.3515202502941848,1.6265590739810627,-0.04041144624352455,0.9844199419021606,1.256920703453281,1.6285298978735816,-0.006915138103067875,0.968326985836029,1.332046429847048,1.8804549696942172,0.14586065709590912,0.9831219911575317,1.2599753380969447,1.8643178654608803,0.19101271033287048,0.9798276424407959,1.4502296146978586,1.3713917128271722,-0.3214798867702484,0.9924724102020264,1.1669557927818595,1.3841492340406207,-0.32919520139694214,0.9952701926231384,0.0014098584651947021,1.306826096712011,1.3437636066511895,177.99446919063962,179.40114330151675,1.0,0.002196171102362681,-0.0015844682175066747,0.01707930744349769,0.09838963295791744,98.05368422520458,0.9068037465974785,32,1.0666666666666667
1.3011740809350252,0.8631589253415308,-0.4590756297111511,0.9999910593032837,1.3989514322182564,1.0020958031838783,-0.2415807694196701,0.9999976754188538,1.2088683186776568,1.0058937587446768,-0.24403712153434753,0.9999953508377075,1.3619964615590519,1.339339421160404,0.0017679417505860329,0.9999896883964539,1.249111347712454,1.3417755799668791,-0.001920138718560338,0.9999896883964539,1.3501373848053033,1.6244143143679326,-0.041793521493673325,0.9844963550567627,1.256719908955058,1.6217708133414015,-0.01592141017317772,0.9685264229774475,1.3310123480151586,1.8782321807700795,0.13473360240459442,0.9834080934524536,1.2607296230503469,1.8631589253415308,0.16812779009342194,0.9801347851753235,1.4482388486563476,1.3706166582182822,-0.32830458879470825,0.9924789071083069,1.1654648552691422,1.3830161720943421,-0.32762259244918823,0.9948492050170898,0.0015121400356292725,1.305553904635753,1.3405575005636414,178.0730602750777,179.39509003474643,1.0,0.0021287971665350834,-0.01209077946252426,-0.00048724176517057243,-0.07906107318950709,97.48979059949727,0.9004009189343227,33,1.1
1.300064684040006,0.8622829816051395,-0.4596764147281647,0.9999909400939941,1.3981208418738507,1.0010913561837733,-0.2413361519575119,0.999997615814209,1.2083864264042525,1.0047524219864703,-0.24328145384788513,0.9999951124191284,1.3612959665821067,1.338052645388749,0.0014535802183672786,0.9999896287918091,1.2482649448704688,1.3396956259886232,-0.0016043989453464746,0.9999895095825195,1.3492069024632294,1.6233677527023238,-0.038707636296749115,0.9846964478492737,1.256174528430311,1.6191665811492995,-0.017064785584807396,0.9690608978271484,1.330528114370478,1.8768370401995451,0.14085909724235535,0.9837689995765686,1.2605335206637385,1.8622829816051396,0.17004694044589996,0.9805347919464111,1.4470808559475659,1.3705077577466018,-0.32418498396873474,0.9924224019050598,1.1645016561447894,1.3823618111650877,-0.3275403678417206,0.9945566654205322,0.0014587342739105225,1.3047804557262879,1.338874135688686,178.21157226279357,179.4060315788472,1.0,0.0015842454693838165,-0.005154002542341013,-0.004140456417473588,0.052829365841509233,97.06960222579544,0.8979697297365525,34,1.1333333333333333
1.2952134666475574,0.8580583162904487,-0.4586469233036041,0.999990701675415,1.393029599952242,0.9971076844236867,-0.23719759285449982,0.9999975562095642,1.2043824751969854,1.0011803133833765,-0.23861674964427948,0.9999949932098389,1.3562435015501628,1.3323085616580523,0.0016242790734395385,0.9999892711639404,1.243684220371969,1.3325512275907587,-0.0017750842962414026,0.9999892115592957,1.3442063471301884,1.6164536743952338,-0.03779450058937073,0.9843854904174805,1.2516611921500551,1.609357037382851,-0.033846013247966766,0.9695780873298645,1.3259537848097238,1.8699350846271354,0.13545677065849304,0.9836830496788025,1.256379762644993,1.8580583162904487,0.1295953094959259,0.9809777736663818,1.4404716841425638,1.3653735836816998,-0.3228837847709656,0.9923868775367737,1.1599176694709636,1.3775521938572874,-0.31752675771713257,0.9944821000099182,0.0016285479068756104,1.299963860961066,1.3324298946244055,178.3071364465331,179.43624427351065,1.0,-0.001114361118597424,-0.012524560468777434,-0.020408008480052454,-0.05599642458250434,96.38629766038164,0.8923209202141299,35,1.1666666666666667
1.28277302174808,0.8495113678062216,-0.4578922390937805,0.999990701675415,1.3796191112990672,0.9875599556119752,-0.2365201711654663,0.9999975562095642,1.1928354515428883,0.9925295069417004,-0.23855844140052795,0.9999949336051941,1.3432817862275028,1.319931789545606,0.003187483176589012,0.9999890923500061,1.2316918774830872,1.3202989584995,-0.0033241682685911655,0.9999890923500061,1.3312796280949062,1.6012254319199444,-0.018738824874162674,0.9841015934944153,1.2410437607962916,1.5937053334058715,-0.045028943568468094,0.9708592891693115,1.3133475511034003,1.8514645826272984,0.16479891538619995,0.9837045073509216,1.2458526849358935,1.8495113678062216,0.11576251685619354,0.9817513227462769,1.4250894503737646,1.3539599511238625,-0.334330677986145,0.992629885673523,1.1473045081836821,1.3643649907428985,-0.3253418207168579,0.9944928288459778,0.002006351947784424,1.287486831855295,1.3201153740225529,178.34440296439388,179.11794025020237,1.0,-0.000550455147644349,0.003067508141726342,0.004238034297076844,0.11851892896040572,96.42773733907954,0.8872505686285214,36,1.2
1.2740003938438944,0.8422401535727257,-0.4701533317565918,0.9999913573265076,1.3701543161317198,0.9807369133049294,-0.24838986992835999,0.9999976754188538,1.184639398964305,0.9872428889256112,-0.24218598008155823,0.999995231628418,1.3340322620613227,1.3129258363794163,0.003397217718884349,0.9999894499778748,1.2228062594492843,1.313314841536484,-0.00352637842297554,0.9999895691871643,1.320096405243373,1.5952462191499335,-0.0030509098432958126,0.9838266968727112,1.232526549638627,1.5846163929676431,-0.03702183812856674,0.9725295305252075,1.3030913226629888,1.8422401535727257,0.18201838433742523,0.9832292199134827,1.2363207062327777,1.8729513262612498,0.07446909695863724,0.9829797744750977,1.4097727245067824,1.3488537544422907,-0.35600337386131287,0.993023693561554,1.1373275448349338,1.354930475408877,-0.3286594748497009,0.9946072697639465,0.0026446878910064697,1.2784192607553035,1.31312033895795,178.88743702883642,178.70196692256172,1.0,-0.00216345133413815,0.015146647653600565,-0.012194040195366386,0.09126246469130019,96.40631744260006,0.8647562489406871,37,1.2333333333333334
1.2723731363346042,0.8398766922745101,-0.4689551889896393,0.9999920129776001,1.368179250413432,0.9791056133919465,-0.24836504459381104,0.9999977946281433,1.182973863951511,0.9873156834154828,-0.23637858033180237,0.9999954700469971,1.3320978449408134,1.3112090957091804,0.0026418864727020264,0.9999894499778748,1.2207129509425254,1.3118640563515076,-0.00276470510289073,0.9999897480010986,1.3175942664514018,1.5930042647850813,-0.011381504125893116,0.9831604957580566,1.2307177566228924,1.5831104495287887,-0.056594353169202805,0.9739643335342407,1.2998281844807273,1.83987669227451,0.15355250239372253,0.982219398021698,1.2340073487960468,1.8855987435532573,0.017093950882554054,0.9840285181999207,1.4049173736327165,1.3464523624121412,-0.3514276146888733,0.9933854937553406,1.1347360053228548,1.3505522725362542,-0.3111424744129181,0.9947272539138794,0.0033420324325561523,1.2764053979416694,1.3115365760303441,178.83015544199418,178.5107006889322,1.0,-0.0018235054788134821,0.001756090037306401,0.002522513264096761,-0.10008888153741886,96.53748776271745,0.8555953979848168,38,1.2666666666666666
1.2719161851904521,0.8392228676384968,-0.4600534439086914,0.9999926686286926,1.3674562210571761,0.9785734271384617,-0.24464066326618195,0.9999979138374329,1.1820292971839066,0.989533614752622,-0.22777321934700012,0.9999956488609314,1.331480007005597,1.3110992236829577,0.001999638509005308,0.9999891519546509,1.2198150220871717,1.3132219810338028,-0.002128442283719778,0.9999895691871643,1.31714517387047,1.591258402672666,-0.051311932504177094,0.9829365015029907,1.2301321761168427,1.5829137501380517,-0.047500915825366974,0.9744201302528381,1.2983325259429213,1.839222867638497,0.08356909453868866,0.9809142351150513,1.2312835765665564,1.8937573266197094,0.019966719672083855,0.9846360087394714,1.4000746961161312,1.344806157138057,-0.3490024209022522,0.9937433004379272,1.1321175660951943,1.3493542328274866,-0.3075770139694214,0.9948115348815918,0.004462987184524536,1.2756475145463844,1.3121606023583803,178.59046111900423,178.02142719892683,1.0,-0.002552269281162534,0.008059475068215178,-0.005554084766552564,0.04800427081112912,97.26391983203932,0.853030497881036,39,1.3
1.2699959440646318,0.8364969872804405,-0.4467020630836487,0.9999933242797852,1.3653973903161802,0.9771180934911372,-0.23534254729747772,0.9999980330467224,1.1801569025808172,0.9885002174127517,-0.22101470828056335,0.9999958872795105,1.3294777343764272,1.3107700065406525,0.0017473228508606553,0.9999889135360718,1.217852838972058,1.3136511091704333,-0.0018697974737733603,0.9999895691871643,1.3153437861973962,1.5888810368578559,-0.01299573015421629,0.9808982014656067,1.2282287255227955,1.5831501098025746,-0.049540724605321884,0.9749434590339661,1.2963910944813701,1.8364969872804404,0.11657319217920303,0.978818416595459,1.2288335349121031,1.8995754787648031,0.0020120013505220413,0.9851662516593933,1.3935793446923883,1.34147818747191,-0.3598741888999939,0.9941433072090149,1.1293156431215357,1.342290543824199,-0.3148845136165619,0.9950447678565979,0.004641681909561157,1.2736652866742426,1.312210557855543,178.53241617171764,177.9046781791348,1.0,-0.0007247472615225191,0.015927524123246602,0.014556418201362603,0.06289531616367319,97.62308226594592,0.8557207988967097,40,1.3333333333333333
1.2653805830752463,0.8340902114684019,-0.4064183831214905,0.9999938011169434,1.3619755544450638,0.975900652877162,-0.20152246952056885,0.999998152256012,1.1770595041851746,0.9885874728515069,-0.19965675473213196,0.9999959468841553,1.3257404013427756,1.3134812155082713,0.003813945921137929,0.9999886751174927,1.214700428823431,1.3166583014979014,-0.003926874604076147,0.9999895095825195,1.313244086869049,1.5877425944543564,0.013349590823054314,0.9791762828826904,1.225664381549174,1.5851662829925284,-0.06639677286148071,0.9760480523109436,1.2940541781300123,1.834090211468402,0.14806503057479858,0.9779322743415833,1.2263432261212737,1.9013684949138825,-0.01695416122674942,0.9859832525253296,1.3866637831824138,1.3390187295873284,-0.324450820684433,0.9945144653320312,1.1254492219663421,1.3368466312520517,-0.31779423356056213,0.995187520980835,0.005182057619094849,1.2702204150831033,1.3150697585030864,178.1545796372806,177.78475390232538,1.0,-0.011268961903704293,0.03992633396384561,-0.08480687936697254,0.19320612257857342,97.76545069460735,0.8701969657558352,41,1.3666666666666667
1.2627614957753142,0.8340469684502997,-0.427144855260849,0.9999940395355225,1.3600848862223165,0.9759060053179374,-0.21528799831867218,0.9999982118606567,1.1754679313608745,0.9899754268277291,-0.21000930666923523,0.9999960064888,1.3211260264782096,1.3193256086131735,0.006226151715964079,0.9999882578849792,1.2110284823217174,1.322031123489055,-0.006326125003397465,0.99998939037323,1.3130099195889229,1.5899325430599576,0.03322122246026993,0.9774788618087769,1.2253869570603477,1.5929981706914034,-0.06111972779035568,0.9773503541946411,1.2939239435440086,1.8340469684502998,0.20440292358398438,0.9763510823249817,1.225532578020661,1.9048390370398147,0.0026040496304631233,0.9868048429489136,1.384635004273056,1.3387213575025216,-0.3459353446960449,0.9948049187660217,1.1221949543650467,1.3371431648103884,-0.3290632367134094,0.9953917264938354,0.005747288465499878,1.2660772543999637,1.320678366051114,177.24736331987282,176.9935036904737,1.0,-0.029280217161048006,0.041528031732595984,-0.13073633845594398,0.011650329168984456,97.87987842434576,0.8867334443591189,42,1.4
1.2608282443981826,0.8343877491679899,-0.44140753149986267,0.999994158744812,1.3584610823694985,0.9760354952086678,-0.2341863214969635,0.9999982714653015,1.1738213350527955,0.9928970035230051,-0.21121816337108612,0.9999960064888,1.3201906945178865,1.3222452639940823,0.0029449001885950565,0.9999881386756897,1.2096459840638434,1.327040280958983,-0.0030609709210693836,0.9999892711639404,1.3128065610215087,1.5927319112260792,-0.03794761374592781,0.9782673120498657,1.2240251247331186,1.6053098924550573,-0.03137452155351639,0.9780709147453308,1.2941031054148537,1.8343877491679899,0.14433887600898743,0.9757006168365479,1.2250258499396682,1.910629803107042,0.0329589769244194,0.9874374866485596,1.382992749904579,1.3387725891916862,-0.3746539056301117,0.9949944019317627,1.1186491617950478,1.349078563021354,-0.3313444256782532,0.9953538179397583,0.006886959075927734,1.264918339290865,1.3246427724765326,177.13805134866064,177.22975602164982,1.0,-0.01037903960745681,0.029812763112690523,0.1485096764093017,-0.0920723476221168,98.79164552908644,0.8948291782191113,43,1.4333333333333333
1.2556800077358667,0.8329834814779,-0.4331182837486267,0.9999942183494568,1.353199986718542,0.9741977824625337,-0.23145118355751038,0.9999983310699463,1.1696074950529483,0.9917892337472527,-0.20940056443214417,0.9999959468841553,1.3138388131968761,1.3219097746288035,0.0017894447082653642,0.9999879002571106,1.2033836116128875,1.3269047387426538,-0.001906279707327485,0.9999890923500061,1.3080635634268258,1.5892988729983881,-0.03294412046670914,0.9776818752288818,1.2198928133914377,1.6023324686793512,-0.03935236111283302,0.9786264300346375,1.2913676639604725,1.8329834814779,0.13989847898483276,0.9739817380905151,1.2215638450752877,1.9120527192328909,0.024792257696390152,0.987928569316864,1.3743428445271364,1.335442298764067,-0.37761491537094116,0.9952033758163452,1.1140119964186666,1.3505891316897336,-0.3141769766807556,0.9951139092445374,0.007199972867965698,1.2586112124048818,1.3244072566857286,177.31786100118032,176.87890642529266,1.0,-0.02613627783504168,0.017695174296052288,-0.11163895789765264,-0.08529987136454964,99.04766249546572,0.8965824475536958,44,1.4666666666666666
1.2518325941236939,0.8316835856218989,-0.43607863783836365,0.9999943375587463,1.3491290736041772,0.9723502361076816,-0.23332802951335907,0.9999983906745911,1.1659022167859618,0.9912162506847203,-0.21297100186347961,0.9999958872795105,1.3105862077535406,1.3193910309747177,0.0003269899752922356,0.9999876618385315,1.1995687988178847,1.3250369483705293,-0.0004494635504670441,0.999988853931427,1.304946539860857,1.5860616895720645,-0.03340880200266838,0.9771087169647217,1.2161486579482708,1.6000313637854664,-0.03633185103535652,0.9786401987075806,1.2886702176440332,1.831683585621899,0.12518389523029327,0.9731040000915527,1.2187897270376904,1.9089874685835297,0.033144690096378326,0.9882863759994507,1.3696762771913338,1.3322770704131517,-0.3841497302055359,0.9953756332397461,1.1102576582937373,1.349642114209815,-0.3141673505306244,0.9948157072067261,0.007737189531326294,1.2550775032857127,1.3222139896726235,177.42032989525342,177.0394944194328,1.0,-0.007250272305508052,0.0033878697842274087,0.13604450200587637,-0.10309259321463723,99.24871727540884,0.8949428886691427,45,1.5
1.2485799498791306,0.8316600942916478,-0.437167227268219,0.9999943971633911,1.3474720905995101,0.9727831296461469,-0.23381641507148743,0.9999983906745911,1.1624824669246008,0.9910300996996323,-0.211990088224411,0.9999958872795105,1.3088544883001647,1.320991424107926,0.00028181757079437375,0.9999874830245972,1.196542450643966,1.3270448496468388,-0.00039979355642572045,0.999988853931427,1.3040886020003875,1.5877845532206867,-0.0012049913639202714,0.9760098457336426,1.2143685251520695,1.605195036978784,-0.03559032827615738,0.9794401526451111,1.2888301211222855,1.8316600942916477,0.18814513087272644,0.9711124897003174,1.2183134035320053,1.9107698537053706,0.03942451998591423,0.9887515902519226,1.36577465200179,1.3321945705928013,-0.40029358863830566,0.9955520033836365,1.1072774961714638,1.3516602628824048,-0.3142440915107727,0.994789183139801,0.007483333349227905,1.2526984694720653,1.3240181368773822,177.44326066362353,177.07267608882486,1.0,-0.017959213974336034,0.013669396833133887,-0.08096561276865147,0.07773403969875779,99.41361364161428,0.8998086488646765,46,1.5333333333333334
1.2420955258490318,0.8297191320692366,-0.4075241982936859,0.9999943375587463,1.3421737424552613,0.9720187873690376,-0.20706816017627716,0.9999983906745911,1.1585363313922736,0.9889488838985903,-0.19297555088996887,0.9999958276748657,1.303925031062783,1.3215065335429075,0.0022316654212772846,0.9999873042106628,1.1920246345664862,1.3260708015935898,-0.002342694904655218,0.999988853931427,1.3014250602697446,1.5874904515004433,0.020510075613856316,0.9750597476959229,1.2104278504234938,1.6029015683303944,-0.05236440151929855,0.9804951548576355,1.287363196224124,1.8297191320692368,0.19447216391563416,0.9707021713256836,1.2159326189225845,1.9102483491535895,0.014825411140918732,0.9893285632133484,1.3600814921397717,1.3310842400613425,-0.3428298234939575,0.995662271976471,1.1037318805270546,1.3490628120927126,-0.2895791232585907,0.9947376847267151,0.0069532692432403564,1.2479748328146347,1.3237886675682486,177.21609774224044,177.22276756250804,1.0,-0.021362516597325777,0.01225164921422924,-0.02507576975379257,-0.010223540161196025,98.58144339953776,0.9046056346927949,47,1.5666666666666667
1.2340588286014442,0.8259279039665538,-0.4114253520965576,0.999993622303009,1.3363311387700556,0.9697951989503047,-0.2091730535030365,0.9999983310699463,1.149907067886668,0.9866049324932702,-0.19475629925727844,0.9999956488609314,1.2964661471619272,1.3220319080074519,0.004225360229611397,0.9999868869781494,1.1844435848534665,1.3261299995489682,-0.004318387247622013,0.9999887943267822,1.29623838692468,1.5868507484848624,0.05093516781926155,0.9730981588363647,1.20514515154128,1.6057542690022155,-0.050256360322237015,0.9814311265945435,1.2845473221846653,1.825927903966554,0.25782662630081177,0.968477189540863,1.2116311781321794,1.9067171967159957,0.017054755240678787,0.989649772644043,1.353409826312186,1.3280894905156975,-0.348879873752594,0.9955428242683411,1.0965168393800202,1.3456570010463504,-0.2852059304714203,0.9946343302726746,0.006919771432876587,1.2404548660076968,1.3240809537782101,177.24969834757624,177.00050195441568,1.0,-0.03712330752710828,0.026695275658230672,-0.1263290634696471,0.11563665997781444,98.55217379053568,0.9186726183080243,48,1.6
1.226912241996798,0.82263378238702,-0.42764002084732056,0.9999936819076538,1.3315735987700967,0.9641682083887051,-0.21433214843273163,0.9999983310699463,1.1431072720060915,0.9822701241773864,-0.20077040791511536,0.9999956488609314,1.2893408378282132,1.3232105167157413,0.004351547919213772,0.999987006187439,1.1786890585506944,1.3256740871992194,-0.004439730662852526,0.9999890923500061,1.2921653015550403,1.5917787853257015,0.04600789397954941,0.9733567237854004,1.1971946449406907,1.6145450255216522,-0.0501592755317688,0.9826824069023132,1.284634025588243,1.82263378238702,0.27527108788490295,0.9676504135131836,1.2111390502992243,1.9057573546655548,0.06600024551153183,0.9901230335235596,1.3513060484723198,1.3279804454635733,-0.3526938259601593,0.9954484701156616,1.090039245149728,1.3476968265135658,-0.2911553978919983,0.9945035576820374,0.007453292608261108,1.2340149481894538,1.3244423019574803,177.5289364652655,179.0759951364698,1.0,-0.04629215212833813,0.0048275930970980655,-0.0687939701678031,-0.16388913754178716,97.98408712517268,0.9294818677316781,49,1.6333333333333333
1.2227262292830667,0.8190252606884604,-0.421514093875885,0.9999937415122986,1.3244345629813807,0.9591721703933661,-0.19752703607082367,0.9999982714653015,1.1379877929729565,0.9757326138256298,-0.19761177897453308,0.9999955296516418,1.2870529225753409,1.3239243381791417,0.005902059376239777,0.999987006187439,1.1753274455263716,1.3260552940926928,-0.005995795130729675,0.9999892711639404,1.2907300449653705,1.594743671037047,0.04227428883314133,0.9742273688316345,1.1912637178115149,1.619281372110901,-0.04347628727555275,0.9838398098945618,1.2850121681520834,1.8190252606884603,0.2688838839530945,0.9681386351585388,1.2100455358261715,1.9063901095730929,0.07826180011034012,0.9906665682792664,1.3520883418627796,1.3280702766615806,-0.3160354495048523,0.9954391717910767,1.0840494735628192,1.3486201452359823,-0.2889050543308258,0.994432806968689,0.006817519664764404,1.2311901840508563,1.3249898161359173,177.76170594936036,179.3680644939424,1.0,-0.024127982500185982,0.0026870534469250634,0.17705593349403764,-0.01709991018749119,96.94420880337607,0.9406412733847805,50,1.6666666666666667
1.2249245326099836,0.8198770131992834,-0.41923612356185913,0.9999935030937195,1.3243162094720338,0.9612928731889951,-0.1918325573205948,0.9999982118606567,1.1338379918020907,0.9738073871265523,-0.200442835688591,0.9999953508377075,1.2890519633653432,1.3284630383959803,0.009803414344787598,0.9999869465827942,1.175476637963644,1.3304277004859422,-0.009896227158606052,0.99998939037323,1.295438350154596,1.6012526355378196,0.05004115030169487,0.9745843410491943,1.192565870919434,1.6236406589158747,-0.04839152842760086,0.9848214387893677,1.2903418812794596,1.8198770131992834,0.28801390528678894,0.9671598672866821,1.2129531267106068,1.9138251144170122,0.06934397667646408,0.9910556674003601,1.356529432118651,1.3325553821636085,-0.28918713331222534,0.9952850341796875,1.0826338589504256,1.3530696973393155,-0.2941630780696869,0.9943133592605591,0.005133897066116333,1.2322643006644938,1.3294453694409611,177.32346003190025,179.31679734646247,1.0,-0.02584824280236769,-0.0015433686214534894,-0.013023952444963363,-0.033761169983868584,96.47707227819546,0.9476783532353846,51,1.7
1.2293539301306373,0.8245243683749293,-0.42672792077064514,0.9999932646751404,1.3291973373005759,0.9672618431962159,-0.19982048869132996,0.9999982118606567,1.1365840629681092,0.9747369707536229,-0.21411962807178497,0.9999954700469971,1.2943701796610891,1.3371326020307581,0.01016811653971672,0.9999875426292419,1.1795200875276657,1.339120072996249,-0.010271761566400528,0.999989926815033,1.3040714355102951,1.6160599349317064,0.03666762262582779,0.9760472774505615,1.196094820565873,1.637639089160842,-0.04205556958913803,0.9858666062355042,1.299139671404313,1.8245243683749293,0.3114883303642273,0.9655888080596924,1.220423248717555,1.9260277779584865,0.10032254457473755,0.9915228486061096,1.364946523581427,1.3409015603949592,-0.2989056706428528,0.9952847957611084,1.0848076301342118,1.3616032743346596,-0.3146509826183319,0.9944515824317932,0.003047734498977661,1.2369451335943775,1.3381263375135035,176.65279550863966,178.35593588611724,1.0,-0.022582600560372066,0.0036064367768113173,0.026385727505495463,0.03974309905669322,96.37052983752585,0.9553986879014909,52,1.7333333333333334
1.2306311293917553,0.8276825046622198,-0.42472147941589355,0.9999931454658508,1.3340189553398525,0.9714206583086732,-0.1966298669576645,0.9999982118606567,1.1349445890803223,0.9776063739069505,-0.2106074094772339,0.9999955892562866,1.296840375513813,1.342221614911354,0.00975012220442295,0.9999879598617554,1.1794747697070338,1.3445729060226224,-0.00985573697835207,0.9999904036521912,1.3087183584759055,1.6266372809094243,0.026121731847524643,0.9770185351371765,1.1970277742960143,1.645898200543116,-0.05472124367952347,0.9868305921554565,1.3070853706541843,1.8276825046622198,0.30225035548210144,0.9623635411262512,1.2246545642200422,1.9349847459622227,0.08260078728199005,0.991898775100708,1.3702121064192596,1.3469817318477244,-0.29150688648223877,0.9952684044837952,1.0861784885337131,1.3668903573287337,-0.3128708302974701,0.9945713877677917,0.002512037754058838,1.2381575726104233,1.3433972604669882,177.14318567625045,177.87492547996666,1.0,-0.029005341986784415,-0.00036274282870372835,-0.04960957480504202,-0.03120480863961545,96.8733642762553,0.9575189724348798,53,1.7666666666666666
1.2309999288910825,0.8272523933445289,-0.4612492620944977,0.9999936819076538,1.3356090147870516,0.9735513800902532,-0.21472325921058655,0.9999982714653015,1.1351612859816087,0.9789325676415305,-0.23092643916606903,0.9999958872795105,1.2986504674620816,1.3447633135637798,0.009592458605766296,0.9999886751174927,1.1794241971953967,1.3472902906472213,-0.009686397388577461,0.9999910593032837,1.311554934359557,1.6378002945394603,-0.02667991816997528,0.978682279586792,1.1982573241265793,1.653617212093634,-0.030642082914710045,0.987599790096283,1.3106778018181968,1.8272523933445288,0.2827582061290741,0.9590682983398438,1.2266320617975466,1.9395294766317492,0.13084083795547485,0.9921911358833313,1.3735961779728987,1.3479259323044577,-0.3072568476200104,0.9952402710914612,1.0842714942880862,1.374504783747634,-0.3351253569126129,0.9948104619979858,0.0021808743476867676,1.2390373323287391,1.3460268021055004,177.2132270921972,177.8505080438394,1.0,-0.01263067391786373,-0.000821231350919673,0.12639733958147711,-0.0035207026417290966,96.89992740445642,0.9640539521560656,54,1.8
1.234132255754587,0.8263737947695026,-0.45774930715560913,0.9999940395355225,1.3341590543972701,0.9746873902633856,-0.21448814868927002,0.9999983310699463,1.1338210573444585,0.9782845615455744,-0.2347535341978073,0.9999961256980896,1.2981639360044586,1.346041871388743,0.00921880267560482,0.9999893307685852,1.1776203879892915,1.3516093059666763,-0.009316674433648586,0.9999916553497314,1.312820239547922,1.6417494736874645,-0.03931863233447075,0.9802090525627136,1.1982745530879197,1.6603058224890588,-0.026135187596082687,0.9881588220596313,1.3124192535404053,1.8263737947695027,0.27207180857658386,0.9568436741828918,1.227770135801625,1.9422197416569629,0.14088547229766846,0.9923940300941467,1.3757456017583325,1.3465616517090593,-0.29651159048080444,0.9949014782905579,1.0833485629016255,1.3779106906711651,-0.33912596106529236,0.9948828220367432,0.001456528902053833,1.237892161996875,1.3488255886777096,177.03810194852852,177.85491342993944,1.0,-0.01718758524395909,0.01192216932601858,-0.03439720084255685,0.09644033453045037,98.18073127520576,0.97394725799858,55,1.8333333333333333
1.2370663723284088,0.8272750191513304,-0.4539433419704437,0.9999943971633911,1.335647592219306,0.9757054432840788,-0.21405954658985138,0.9999983906745911,1.1346071785431953,0.9787484936461973,-0.22933392226696014,0.9999963045120239,1.3004241865763202,1.3483669218678072,0.008667279034852982,0.9999898672103882,1.1779917165380411,1.354240512690093,-0.008777586743235588,0.9999921917915344,1.3153059261431495,1.6463531435280228,-0.02930556610226631,0.9814460277557373,1.199094569192214,1.6651081378241006,-0.028921401128172874,0.9887402653694153,1.3157307984731437,1.8272750191513305,0.27571266889572144,0.9548178911209106,1.2301514682391712,1.9460988763889184,0.1321949064731598,0.9926086068153381,1.3791504780256134,1.3482967242874264,-0.29988670349121094,0.9947828054428101,1.0849913517613288,1.380908956908935,-0.3332894444465637,0.9950131177902222,0.0012299120426177979,1.2392079515571808,1.3513037172789502,177.27551665352328,177.5763954361687,1.0,-0.0074575050742624795,0.00010047493305147065,0.07688520666264823,-0.09328374337210808,98.14607950470682,0.9768583072423085,56,1.8666666666666667
1.2353994405448343,0.8250820656255448,-0.4716235101222992,0.9999947547912598,1.332947410757798,0.972980411556967,-0.22969317436218262,0.9999984502792358,1.131162268438169,0.9781574450688191,-0.24129319190979004,0.9999964833259583,1.2995539132733283,1.3466874328363991,0.006453012116253376,0.9999904632568359,1.1765281300364645,1.3525490370237474,-0.006577613763511181,0.9999926686286926,1.3137735398961825,1.6438476686999042,-0.04959218576550484,0.982705295085907,1.1956718046660249,1.6635173469619975,-0.03479315713047981,0.9893129467964172,1.3144565639354027,1.8250820656255449,0.27138805389404297,0.953135073184967,1.2289084290425003,1.9448912873044066,0.11854231357574463,0.9928874969482422,1.3829970025452478,1.348086770419447,-0.316537082195282,0.9948530793190002,1.0841788462432167,1.379027744666259,-0.35308638215065,0.9951821565628052,0.0020948946475982666,1.2380410216548965,1.3496182349300732,177.47631997960846,176.78605776529926,1.0,0.0024486913901024827,-0.0006413309657907381,0.07936002690116992,-0.0059470812900720245,97.83405502951432,0.9778459414335128,57,1.9
1.2321514502276296,0.8223736217503164,-0.47564664483070374,0.9999951720237732,1.3277488056229052,0.9663596494548522,-0.225751593708992,0.9999985098838806,1.127218993842726,0.9741832705399821,-0.24453648924827576,0.9999967217445374,1.2973707349883417,1.3438740999862626,0.005265264306217432,0.9999910593032837,1.1738265101256438,1.3502472472124463,-0.005408855155110359,0.9999932050704956,1.3110068356906535,1.6402754268604032,-0.10232098400592804,0.9842043519020081,1.191899514369827,1.667265383427774,-0.015364465303719044,0.9898651242256165,1.311859450303189,1.8223736217503164,0.22574260830879211,0.9530760049819946,1.2268487018464767,1.941681748512647,0.17638294398784637,0.9931531548500061,1.3853939325739135,1.3455324354076443,-0.3118131160736084,0.9947245717048645,1.082736104972735,1.3761798146577535,-0.36463767290115356,0.9954060912132263,0.0031722187995910645,1.2355986225569926,1.3470606735993544,177.63420107103636,176.0048480807198,1.0,0.0003545892660084577,0.0011795577149600065,-0.01578503163911644,0.01374819323176911,97.55364012440714,0.9788539315257652,58,1.9333333333333333
1.2147385273576097,0.8094201829795731,-0.4710114598274231,0.9999953508377075,1.3076372428333243,0.9504504187831101,-0.2253991812467575,0.9999985098838806,1.1090907443732532,0.9604127205120558,-0.24346351623535156,0.9999967813491821,1.2793608217012744,1.3244577091206768,0.005369760561734438,0.9999912977218628,1.1562573223174997,1.3313262377139983,-0.005523398984223604,0.9999933838844299,1.2926846220551735,1.6166788486354444,-0.12044777721166611,0.9854199886322021,1.1744933853177864,1.6434951729326197,-0.019706880673766136,0.9895622730255127,1.2928560997237586,1.809420182979573,0.16287864744663239,0.9535015821456909,1.2098233656804769,1.9143185665162674,0.168491929769516,0.9929041862487793,1.3700375750622475,1.3268789795991582,-0.3051168620586395,0.9943162798881531,1.0682880462453384,1.3601033214557627,-0.3618849813938141,0.9953701496124268,0.004096537828445435,1.217809072009387,1.3278919734173376,177.4403861559514,175.91077694780424,1.0,-0.0042117451040923825,-0.0028653175711448767,-0.034901042915952536,-0.03082307814095994,97.51705331053907,0.9690659753248201,59,1.9666666666666666
1.1874468565783503,0.7907283917562737,-0.4603206515312195,0.9999951720237732,1.2790293072036587,0.9301036452231476,-0.21706965565681458,0.9999984502792358,1.0842860781407757,0.939638855471372,-0.23424753546714783,0.9999966025352478,1.251605228174947,1.292850371588374,0.004418655764311552,0.9999912977218628,1.131163582460833,1.3016473601201344,-0.004595332778990269,0.9999932050704956,1.2643672343261332,1.5716567378185087,-0.14449623227119446,0.9864745736122131,1.1495756004892084,1.6065923326877616,-0.02192225679755211,0.9886664152145386,1.2625939143281435,1.7907283917562737,0.10151921212673187,0.9547629356384277,1.1833346766501691,1.8721618887474212,0.15227006375789642,0.9924968481063843,1.3427595187111985,1.2974613154878476,-0.3036026060581207,0.9938927888870239,1.0454279981112753,1.335348946573773,-0.3602452278137207,0.994784951210022,0.004008769989013672,1.1913844053178901,1.2972488658542543,176.91540588882222,176.21066284346432,1.0,0.002125564351191429,-0.012407682404297795,0.050256832654717115,-0.07729773049230665,98.50083674674049,0.9465635639303344,60,2.0
1.129228299220929,0.7481637559897233,-0.4318002164363861,0.9999948740005493,1.2154952130413823,0.8844439872349568,-0.19441653788089752,0.9999983310699463,1.0292818183478991,0.8933693246484803,-0.2197200357913971,0.9999964833259583,1.1903832216222396,1.2265224856846952,0.004183409735560417,0.9999904036521912,1.0762469252118907,1.2377855687652695,-0.004374091979116201,0.9999922513961792,1.199780045084421,1.486762291012326,-0.18306350708007812,0.9872956275939941,1.0932945097761897,1.5281253832003872,-0.03321320563554764,0.9861429929733276,1.1986065207585654,1.7481637559897234,0.007638567127287388,0.9567787647247314,1.1262895672622306,1.7802876361513715,0.14819779992103577,0.9911963939666748,1.2789522196685454,1.2346508674123122,-0.26550906896591187,0.9932076930999756,1.0023775867100528,1.2713829608016045,-0.32661348581314087,0.9948635101318359,0.003945767879486084,1.1333150734170652,1.2321540272249825,177.6748243594405,175.90560376316824,1.0,0.0025236933792583387,-0.011713135334108225,0.003893721324318273,0.0006696828885099274,99.83431155017236,0.9083016552723989,61,2.033333333333333
1.1067751452475072,0.7313154305256054,-0.46036022901535034,0.9999949336051941,1.1903467978348379,0.8650267740732152,-0.21174296736717224,0.9999982714653015,1.0078568615052403,0.8723490056669186,-0.24635152518749237,0.9999964833259583,1.1657069534960434,1.198806347461122,0.004273919388651848,0.9999900460243225,1.0539592021729514,1.209957199901748,-0.004470365587621927,0.9999918341636658,1.1733999736084655,1.456103214004386,-0.1443706452846527,0.9880169630050659,1.0700579722601076,1.4967537026207427,-0.03161643072962761,0.9841476678848267,1.1724104560910018,1.7313154305256053,0.04992105811834335,0.9592780470848083,1.1029057950938281,1.7431994104878428,0.14830127358436584,0.9902962446212769,1.2525290292027809,1.209491816412881,-0.27922311425209045,0.9926254153251648,0.9878944842946935,1.2462175049279491,-0.3459492623806,0.9949932098388672,0.003305763006210327,1.1098330778344974,1.2043817736814348,178.08139677236065,175.6208242939533,1.0,0.0005449801384367948,-0.016267508230661157,-0.014483440499204287,-0.03607447271300509,99.92040550695198,0.8865682663326533,62,2.066666666666667
1.0945350412434758,0.7221891472176177,-0.47184690833091736,0.9999951720237732,1.1767785145640197,0.8551167314908479,-0.21823088824748993,0.9999982118606567,0.9968547530478329,0.8568157926284005,-0.25117653608322144,0.9999964833259583,1.1525050938878763,1.1836667731027057,0.004312788601964712,0.9999883770942688,1.0423064004473577,1.1924139752411893,-0.004509512800723314,0.9999901056289673,1.1577339682429055,1.4396524298838724,-0.11910849809646606,0.9881454706192017,1.057532823053772,1.4788767532661866,-0.03035145439207554,0.9801493883132935,1.1590359988089083,1.7265054516330427,0.04150336608290672,0.9615173935890198,1.0903191691175995,1.7221891472176176,0.1507268100976944,0.9876549243927002,1.2383451395111524,1.1956481690488827,-0.2847157120704651,0.992524266242981,0.9843539022447302,1.2240579121686672,-0.37760108709335327,0.9952502846717834,0.0007759332656860352,1.0974057471676169,1.1880403741719474,179.0898789164857,175.3682126932882,1.0,0.0017115777282406318,-0.018150589037417956,0.008218137356322278,-0.014496526488047279,98.76379140179512,0.8675200677499413,63,2.1
1.0959467217595789,0.7220915071077364,-0.4999740719795227,0.9999954700469971,1.1769474022614856,0.8523904873340155,-0.23505917191505432,0.999998152256012,0.9974619400342373,0.8543015064060198,-0.27552878856658936,0.9999964833259583,1.1530595333095075,1.183654507386791,0.004731911234557629,0.9999870657920837,1.0426505304487885,1.1921465184249562,-0.004918478894978762,0.9999885559082031,1.1565226842128453,1.4412581288971789,-0.1089579313993454,0.9883528351783752,1.0579435787219946,1.4788190925662101,-0.024654768407344818,0.976345419883728,1.159397829247874,1.7383567102873285,0.04130309075117111,0.9642434120178223,1.0906209865482561,1.7220915071077363,0.16788826882839203,0.9852294325828552,1.2384060262768386,1.1959374852109148,-0.30640825629234314,0.9923281073570251,0.9917223552219954,1.223658358668566,-0.40841159224510193,0.9954584836959839,0.000872492790222168,1.097855031879148,1.1879005129058737,179.78423548476772,175.40322356847213,1.0,0.0011607093885496354,-0.0035987811039792706,-0.004274521293070244,0.112859019778819,98.52272708149069,0.8578424942430776,64,2.1333333333333333
1.0962103936483194,0.7200090435883885,-0.49395751953125,0.999995768070221,1.1753299303214848,0.8506502474310402,-0.23069214820861816,0.9999980926513672,0.9962918419937293,0.8514119396874252,-0.27926167845726013,0.999996542930603,1.1517606809464902,1.1820344124310367,0.007756506558507681,0.9999861717224121,1.0412930141538415,1.1905571276687335,-0.007920549251139164,0.9999876022338867,1.1500688859955837,1.448915554743918,-0.05661515146493912,0.9877748489379883,1.055930318747386,1.4768668645750012,-0.022534634917974472,0.9721646904945374,1.1570553122055138,1.744249067045929,0.06843072921037674,0.9667108654975891,1.088926642198924,1.7200090435883886,0.1582198441028595,0.9833531379699707,1.2363624205663557,1.1947473149321466,-0.3015182614326477,0.9922254085540771,1.0011329903469666,1.2217384767080348,-0.4040862023830414,0.9956991672515869,0.0003482997417449951,1.0965268475501657,1.186295770049885,178.28165987701527,175.19836276736535,1.0,0.0028768517657303074,0.0018482457336148053,0.012960487926782262,0.04105096582076801,98.47993389219793,0.853260325547926,65,2.1666666666666665
1.0966680698295834,0.7190960748080333,-0.4916125237941742,0.9999960660934448,1.1745106599571862,0.8497138928237074,-0.22812888026237488,0.9999980330467224,0.9958109595706738,0.8511160354951594,-0.2742910087108612,0.999996542930603,1.1511920198929602,1.1812622527120726,0.007726532407104969,0.9999852180480957,1.0406485269654744,1.1896757599611978,-0.00788684468716383,0.9999865293502808,1.1477570927020073,1.452438638105355,-0.05426092818379402,0.987224817276001,1.055011323420543,1.4758023426221676,-0.02021436020731926,0.9682122468948364,1.1561289218446937,1.7449372822644549,0.06926795840263367,0.9688760638237,1.0881318726546296,1.7190960748080333,0.15783706307411194,0.9815958142280579,1.2350720744704407,1.1945418091319857,-0.2864975333213806,0.9920855164527893,1.0035615895613015,1.2207383224457964,-0.38985303044319153,0.995887041091919,0.0006416738033294678,1.0959202734292173,1.185469006336635,177.63482763176464,175.12143559948368,1.0,0.002211751161382877,0.0010110259394511736,-0.0053705249566568525,-0.006771869407431242,98.37554532910315,0.8523251394597468,66,2.2
1.0984005101371668,0.7182723627123682,-0.44555965065956116,0.9999962449073792,1.1747299854833249,0.8492540636829214,-0.19135481119155884,0.9999979734420776,0.9956931629343978,0.8510476407685618,-0.27044257521629333,0.9999964833259583,1.150807640159334,1.1832816954185092,0.009973830543458462,0.9999837875366211,1.0402320116539552,1.1917684470893783,-0.010140021331608295,0.999984622001648,1.1457126471592702,1.4537640027204366,-0.06359872967004776,0.9852463006973267,1.0545603207454242,1.4745928246111892,-0.0236496739089489,0.9578937292098999,1.155479818645378,1.748988379174797,0.015699151903390884,0.9703463315963745,1.087735638870062,1.7182723627123682,0.13695652782917023,0.9760612845420837,1.233995744908245,1.1952358385288555,-0.2592453062534332,0.9919323325157166,1.0067543577199545,1.2197614235258656,-0.39959660172462463,0.9960156679153442,0.000821232795715332,1.0955198259066445,1.1875250712539438,177.0259881789392,175.14744345530013,1.0,0.00116787854721802,0.018882315635612528,-0.007380543056248081,0.12649822097987184,98.48529137912361,0.8583054466447573,67,2.2333333333333334
1.099842920197239,0.7156150987010411,-0.391580194234848,0.9999952912330627,1.1726710885041338,0.847582199025026,-0.14430467784404755,0.9999976754188538,0.9950742179177214,0.8493628783716327,-0.24454092979431152,0.9999960064888,1.1484287571434815,1.1866087146593984,0.0189581997692585,0.9999815225601196,1.0380265727153377,1.195200081770593,-0.019118163734674454,0.999981701374054,1.1424770112744322,1.4567749358585935,-0.04819054156541824,0.9811087250709534,1.0534033015656223,1.471674561351615,-0.02835603430867195,0.9424126148223877,1.1526388517206014,1.7533603577177719,0.029213447123765945,0.9708686470985413,1.0853126001067979,1.7156150987010412,0.13335996866226196,0.9666953086853027,1.2276907749432615,1.19608181708908,-0.1867123544216156,0.990628719329834,1.0118139415094791,1.216832793488536,-0.39657559990882874,0.9959473013877869,0.0008172094821929932,1.0932276649294095,1.1909043982149958,176.77563658136907,175.73093399905702,1.0,0.001709980026363519,0.04524611474563334,0.004031362620597634,0.1954094053116696,98.53973591282481,0.873465129023704,68,2.2666666666666666
1.1020412934371897,0.7156330535823698,-0.41183900833129883,0.999994695186615,1.1737972045251535,0.8476542513173904,-0.14917303621768951,0.9999971985816956,0.9972024470714143,0.8495909587848156,-0.24464964866638184,0.9999955892562866,1.1487619014839778,1.192344995377891,0.021827802062034607,0.9999794363975525,1.0385821246634888,1.2001153335500168,-0.021983502432703972,0.9999793767929077,1.1427188390795007,1.4680114021760766,-0.03674056753516197,0.9789180755615234,1.05501332407721,1.4738367854929098,-0.024457810446619987,0.9342882633209229,1.1526790860205802,1.7575791383947401,0.05041677877306938,0.97186279296875,1.0853437748294268,1.7156330535823698,0.16710737347602844,0.9614159464836121,1.2235099908661804,1.196017096120708,-0.1834382563829422,0.9884645938873291,1.0190685452094852,1.2168554528384166,-0.3898535966873169,0.9959220886230469,0.0008887946605682373,1.0936720130737332,1.196230164463954,176.77415976794722,176.28555370709955,1.0,0.0032393920933895862,0.04100549131855727,0.011837898871635508,-0.032832263148750665,98.18822534501112,0.8885304073399237,69,2.3
1.1038242315967952,0.7158118288379794,-0.42207789421081543,0.9999945163726807,1.1774369861667582,0.8482055182937185,-0.1532249003648758,0.9999968409538269,0.9985101543512307,0.8497861614583769,-0.2516135573387146,0.9999951720237732,1.148938906326385,1.1949318099614488,0.021253587678074837,0.9999773502349854,1.0387777485294603,1.2024535852905947,-0.021405493840575218,0.9999763369560242,1.142500596061661,1.4695766296286843,-0.06600858271121979,0.9782767295837402,1.0565739317474163,1.4798844208673994,-0.020166154950857162,0.9265164136886597,1.1528960673049902,1.7694352310079102,-0.00628910306841135,0.9738060832023621,1.0854978766176069,1.7158118288379796,0.19321314990520477,0.9535121917724609,1.2214323444522621,1.1984062762776162,-0.18590083718299866,0.9861852526664734,1.024309638494042,1.217629889970687,-0.4019351005554199,0.9958680868148804,0.0007252991199493408,1.0938583274279225,1.1986926976260217,176.6715704867511,176.68088658136327,1.0,0.0003772799774723941,0.01743072643001835,-0.021567035514546768,-0.17765770394562644,98.60476350174925,0.886985125611422,70,2.3333333333333335
1.1099111584683183,0.7159813425768228,-0.3910244405269623,0.9999936819076538,1.1809577518802794,0.850235971921368,-0.13610665500164032,0.9999963045120239,0.9999822670296924,0.8499273662732676,-0.2360498458147049,0.9999945759773254,1.1494230743748055,1.198845707049252,0.019496414810419083,0.9999755024909973,1.0392724883293671,1.2058386032083555,-0.01964973472058773,0.9999738335609436,1.142712346798179,1.4763608463290674,-0.07904275506734848,0.9783281683921814,1.058037738359052,1.4889409922097048,-0.0010101702064275742,0.9202998876571655,1.153526470712798,1.7819152543297678,-0.01746467687189579,0.9756736755371094,1.0857574888347243,1.7159813425768227,0.2215501070022583,0.9456354379653931,1.2198506377243805,1.2009120852596016,-0.15800602734088898,0.9823740720748901,1.0273485922619814,1.2171071588455824,-0.3852895200252533,0.9958800077438354,0.00014159083366394043,1.0943477813520863,1.2023421551288038,176.5878176656839,176.8313741578314,1.0,0.002788301854268169,0.027277547159427516,0.018759055585094286,0.07659877979282326,98.80135713024926,0.8892831851467864,71,2.3666666666666667
1.1114016317108921,0.7167910929825795,-0.4030073583126068,0.9999922513961792,1.1850643167484534,0.852142382084119,-0.15170332789421082,0.9999955892562866,1.001906365342174,0.8512128014123228,-0.23588550090789795,0.9999940991401672,1.1520858868301689,1.2017932577995667,0.017354194074869156,0.999973714351654,1.0410339288167603,1.2097183280187656,-0.017506856471300125,0.9999721050262451,1.1440259666205312,1.480565379065989,-0.07791571319103241,0.9781254529953003,1.0597293130264245,1.4926004481258939,0.0007089429418556392,0.91580730676651,1.1571655832395376,1.7901939609700954,0.009361294098198414,0.9771878123283386,1.0868121845874004,1.7167910929825794,0.21424515545368195,0.9416488409042358,1.2208878603994409,1.2044958492665792,-0.1971476972103119,0.979445219039917,1.031225900196833,1.2182924207088233,-0.36259061098098755,0.9959943890571594,0.0004260838031768799,1.0965599078234647,1.2057557929091662,175.91392724496114,176.8930029951256,1.0,0.008555245705548001,0.0167465831262645,0.04307337025404336,-0.07889177953673256,99.47000778254933,0.8921468819988678,72,2.4
1.1146083549140149,0.7149224294838754,-0.4572409689426422,0.9999912977218628,1.1935342009030636,0.8537606942118008,-0.20083065330982208,0.9999950528144836,1.004779115815794,0.851150405211061,-0.2629377841949463,0.9999937415122986,1.1550789506136363,1.2023962081187047,0.012957891449332237,0.9999728798866272,1.0444191827443476,1.2105201264437149,-0.013110998086631298,0.9999712109565735,1.1449733604776346,1.4817487467147925,-0.0802229791879654,0.9776299595832825,1.0625650922698873,1.4959188312842817,0.00023475787020288408,0.9102051258087158,1.1569801438226726,1.7861026975868315,0.02628258801996708,0.9782058000564575,1.0866497765613679,1.7149224294838754,0.23104672133922577,0.9374914169311523,1.223370179921681,1.2170273219653083,-0.3047863245010376,0.9778448343276978,1.0333763224282226,1.218319790110766,-0.41800111532211304,0.9960472583770752,0.0011966824531555176,1.099749066678992,1.2064581672812098,175.66907534829306,177.3621987311802,1.0,0.025894709726728297,0.007097217245346296,0.13218148976784055,-0.07352755170301818,100.49315354624686,0.9031346031025513,73,2.433333333333333
1.1171517278633465,0.7072421588035704,-0.4625021517276764,0.9999909996986389,1.196837838151525,0.8524143349901997,-0.20688536763191223,0.9999946355819702,1.0037143166338867,0.8487184978661353,-0.26170608401298523,0.9999935030937195,1.1559507879630568,1.2026052607468563,0.008692307397723198,0.9999726414680481,1.044042896583411,1.2091612721087073,-0.008845649659633636,0.9999709725379944,1.143017854383667,1.4856450843498847,-0.0788649395108223,0.978320837020874,1.0610186930292111,1.493968774296908,0.01796005293726921,0.9099522829055786,1.154230183497642,1.7810594361337442,0.055442921817302704,0.9795072674751282,1.0837463503778606,1.7072421588035704,0.28092795610427856,0.9359312653541565,1.2271870289143378,1.2221196231191507,-0.2978857755661011,0.976962149143219,1.030214517282459,1.2151912982646702,-0.4283478260040283,0.996260941028595,0.0016987025737762451,1.0999968422732338,1.2058832664277817,175.2102104943678,177.3282320298906,1.0,0.023230748896290686,0.019068485018025952,-0.019684469571853283,0.09085497064217364,100.01228375524904,0.9263494593861534,74,2.466666666666667
1.119829675218018,0.6978316456277919,-0.4843378961086273,0.9999915957450867,1.1961444564410868,0.847973991726964,-0.2090030163526535,0.9999946355819702,1.000432382569309,0.8418129112442962,-0.2701041102409363,0.9999934434890747,1.1540319819812843,1.1966815944828526,0.008376920595765114,0.9999721646308899,1.0410445237221124,1.2031191183965326,-0.008534593507647514,0.9999698996543884,1.1393813192141287,1.4803794226430858,-0.08219724148511887,0.9793991446495056,1.0583149123771787,1.48983684738567,0.019862432032823563,0.9106626510620117,1.1490388314272098,1.7744637268524615,0.05347827821969986,0.9809717535972595,1.0788003839614015,1.6978316456277918,0.30219268798828125,0.9336473941802979,1.2281306976520832,1.2136385557970375,-0.30827224254608154,0.9779360294342041,1.0241526231080116,1.2098596134671518,-0.4375617504119873,0.9965214133262634,0.002844780683517456,1.0975382528516984,1.1999003564396926,175.16289434408603,177.82209788045654,1.0,0.020581640575305385,-0.0038314320706414567,-0.02041631751107994,-0.1831484108231826,100.14704195845778,0.9367449353416784,75,2.5
1.1253551059754592,0.6969671645001242,-0.49084019660949707,0.9999917149543762,1.2052634494232108,0.848442573911376,-0.22023653984069824,0.9999945163726807,1.0062331379120795,0.8395992843947723,-0.27322375774383545,0.9999932050704956,1.1624406375144671,1.2007950305408468,0.007141676731407642,0.9999716877937317,1.0476262293998693,1.2071223645421043,-0.007300200406461954,0.999968945980072,1.1444728954640437,1.4856050041834337,-0.07968888431787491,0.980050802230835,1.0634286922972023,1.4959870457702944,0.02285989187657833,0.9109026193618774,1.153295713203357,1.777275873718935,0.0664011538028717,0.9821778535842896,1.0825045664696258,1.6969671645001243,0.3008362650871277,0.9319941401481628,1.2410413785798482,1.2169755086928933,-0.33546072244644165,0.978870689868927,1.0260425625093734,1.2175321337260545,-0.4313924312591553,0.9967314004898071,0.004068136215209961,1.105033433457168,1.2039586975414756,174.65755348071644,177.70932595400805,1.0,0.025609442946689317,-0.0029884074109274707,0.037095881428985095,0.00642263559476408,100.08373882427146,0.9513958383999517,76,2.533333333333333
1.12613234610397,0.6974914483184144,-0.48764070868492126,0.9999914765357971,1.2096519035097837,0.8486636814994906,-0.22351805865764618,0.9999943971633911,1.0095632922447164,0.8400422571623274,-0.2702111005783081,0.999992847442627,1.167348397464752,1.2030832981590576,0.005413255654275417,0.9999714493751526,1.0513334560944227,1.2090581327415184,-0.005575945135205984,0.9999681711196899,1.1476841219997718,1.4884710266412118,-0.08149503171443939,0.9807940721511841,1.066774871242029,1.4994469584793393,0.02886694110929966,0.9110853672027588,1.1553849679803208,1.7786276145337274,0.0673867017030716,0.9832431077957153,1.0843131773428032,1.6974914483184143,0.3135383129119873,0.930294930934906,1.2468417632707085,1.21933267772767,-0.3340006470680237,0.9798283576965332,1.026762458395317,1.2219829671909197,-0.42064613103866577,0.9968850016593933,0.003958553075790405,1.1093409267795873,1.2060707154502879,174.53804698393165,177.9830706679765,1.0,0.017552979166840555,-0.0013908662072008623,-0.06442163844737424,0.012742814592131923,99.75477899293236,0.9563266177196109,77,2.566666666666667
1.1226208889957792,0.692000291660013,-0.47945132851600647,0.9999915361404419,1.210190253763638,0.8424181801062746,-0.22055213153362274,0.9999945163726807,1.0096267878583958,0.8346047482301923,-0.26349008083343506,0.9999926686286926,1.1678437323985709,1.2009213710766256,0.003992690704762936,0.999971330165863,1.0517909569595558,1.2071016622937092,-0.004156497307121754,0.999967634677887,1.1470364066035867,1.4838723798356213,-0.08801764249801636,0.9816181063652039,1.0660356086829206,1.49929888921828,0.025374580174684525,0.9128352999687195,1.152683239741811,1.7736397110390076,0.0762476697564125,0.9841326475143433,1.081768412883861,1.692000291660013,0.32003241777420044,0.9289326071739197,1.2548630616090333,1.2156237813772492,-0.34211960434913635,0.9810817241668701,1.0197604839276813,1.2200182378166218,-0.4134768545627594,0.9970523715019226,0.0035959482192993164,1.1098173446790633,1.2040115166851675,174.67781046330123,178.12349493288986,1.0,0.021261989611954468,0.005231632650928869,0.026022966937552107,0.04593463114007807,99.78494070724265,0.9684393130788488,78,2.6
1.1193515087363186,0.6834123237437884,-0.4744742512702942,0.9999917149543762,1.2074537055541326,0.8358475333444696,-0.21626321971416473,0.9999946355819702,1.0088058934450475,0.8311489173979998,-0.25577664375305176,0.9999926090240479,1.1674227142021505,1.19744770112497,0.00444435840472579,0.9999718070030212,1.0518420696303283,1.2035174758332865,-0.004609620664268732,0.9999679327011108,1.1513177491093924,1.4838303673536752,-0.04408959299325943,0.9826475381851196,1.0644177941087116,1.495779949778203,0.023504095152020454,0.9176402688026428,1.149382307021915,1.7678166858560018,0.13476023077964783,0.985268771648407,1.0788079551874195,1.6834123237437884,0.31849634647369385,0.9314868450164795,1.2566056953550617,1.2116013397386605,-0.32604044675827026,0.9823474287986755,1.0078406260878146,1.2165151698199659,-0.3979714512825012,0.9972258806228638,0.002168625593185425,1.1096323919162394,1.2004825884791284,177.17179468066817,178.0782309841834,1.0,0.02244918795649392,-0.0006595066188107359,0.009379233640288673,-0.044163126920367474,99.32336773092612,0.984782634010505,79,2.6333333333333333
1.1164042331012656,0.6752226575728039,-0.4427780508995056,0.9999921917915344,1.2056439204214044,0.8236569405941742,-0.18956390023231506,0.9999948740005493,1.0079081583382798,0.8275001577305344,-0.22866526246070862,0.9999926686286926,1.1666632330768012,1.1945506353643447,0.004611062351614237,0.9999723434448242,1.0506361369023782,1.2011520123197204,-0.0047959228977561,0.9999680519104004,1.152331128539441,1.4792685423509704,-0.05432150512933731,0.983237624168396,1.061534866173689,1.4957645810612625,0.02088822051882744,0.9202524423599243,1.1459947388819287,1.7639882519722754,0.12220190465450287,0.9859691262245178,1.074165476713179,1.675222657572804,0.3317672610282898,0.9287444949150085,1.2636402147195422,1.2073381395007474,-0.3089538812637329,0.983609139919281,0.996051650633948,1.2147346071093337,-0.37994301319122314,0.9973652362823486,0.0017790794372558594,1.1086496849895897,1.1978513238420325,178.39318010253575,178.0926511374618,1.0,0.017017895350871254,0.006796858425041857,-0.03973613292304582,0.055212240070301496,99.2560636376796,1.0017784875202522,80,2.6666666666666665
1.1209683832003032,0.6748150522399764,-0.46088728308677673,0.9999927878379822,1.213178952578356,0.8212958632755171,-0.20628014206886292,0.999995231628418,1.0138767871732488,0.8301566248968382,-0.2379978895187378,0.9999929070472717,1.1744680873071605,1.1997464253302632,0.004785824567079544,0.9999734163284302,1.0564521707514833,1.2069382384318192,-0.004966728389263153,0.9999688267707825,1.1602844815069049,1.4864073400635178,-0.05333809182047844,0.9841063022613525,1.065205293726794,1.5053227795310988,0.010587657801806927,0.9247799515724182,1.1507155674961544,1.7707755839606651,0.15451829135417938,0.9866685271263123,1.0764160688142592,1.6748150522399763,0.35836654901504517,0.9262911081314087,1.274810449314093,1.2111488812498132,-0.32661283016204834,0.9848332405090332,0.9925920045367265,1.227355447116713,-0.38459402322769165,0.9974676966667175,0.004084765911102295,1.1154601290293218,1.2033423318810412,179.09465026033718,177.89607348495835,1.0,0.016796065815191025,0.0038576732218090137,-0.0022396426316624246,-0.022707864023275834,99.32760045332988,1.0175131809355473,81,2.7
1.1238003987441225,0.6735468036268487,-0.45629820227622986,0.9999932646751404,1.2187872923272511,0.8183992041970091,-0.20618227124214172,0.9999955296516418,1.0186145408015939,0.8322022144370678,-0.23026879131793976,0.9999930262565613,1.1795129602210639,1.2029285311537723,0.004468361381441355,0.999974250793457,1.0598591295959883,1.21012391869063,-0.00464834738522768,0.9999690651893616,1.1657077461869665,1.4899590930454158,-0.10375527292490005,0.9850097894668579,1.06538423570381,1.5125223142248618,-0.004240650683641434,0.9286016821861267,1.1532384202452446,1.7749454415136072,0.1404906064271927,0.9872517585754395,1.0760806093412736,1.6735468036268486,0.37047338485717773,0.9168043732643127,1.2786567279012446,1.2142809224226256,-0.31965819001197815,0.9856520295143127,0.9889161475165283,1.2316487639729454,-0.36360499262809753,0.9974963068962097,0.006346464157104492,1.119686044908526,1.2065262249222013,179.7517141153428,177.24632843750376,1.0,0.01006824360868407,0.00020397739047533592,-0.05248970573639163,-0.028398660045111105,99.27308560165051,1.0294523074169462,82,2.7333333333333334
1.1331620715755315,0.6777394388873091,-0.4725910723209381,0.9999936819076538,1.2314142921064517,0.8227691714199689,-0.22334861755371094,0.999995768070221,1.0285560772920395,0.8368095994053494,-0.2358338087797165,0.9999930262565613,1.1909984600555341,1.211919959478447,0.0012044038157910109,0.9999744296073914,1.0686505648553937,1.2177666257548132,-0.0013761802110821009,0.9999682307243347,1.1759651834551628,1.4972963415603098,-0.16893823444843292,0.9858822226524353,1.0722876120719937,1.52377400347925,-0.006843914743512869,0.9316592812538147,1.1623047103691686,1.7878033889232725,0.03144311159849167,0.9877653121948242,1.084357828521486,1.677739438887309,0.3937928378582001,0.9005205035209656,1.2941113589983775,1.2238849777528729,-0.34134694933891296,0.9863223433494568,0.9901612916715454,1.2427140135991837,-0.37053418159484863,0.9975557327270508,0.0064039528369903564,1.129824512455464,1.2148432926166302,179.67674461454135,176.19838596351548,1.0,0.008425355302691154,-0.010826650143881419,-0.013160779613904964,-0.08421258207341142,98.66520594064464,1.036958068988879,83,2.7666666666666666
1.1374749186146351,0.6793670471756343,-0.47633829712867737,0.9999940991401672,1.2386698387772812,0.8233902489739507,-0.2290038764476776,0.9999960064888,1.0339703792036532,0.8393949769667775,-0.23506048321723938,0.999993085861206,1.1968328745055057,1.2165541406997666,-0.0007677720277570188,0.9999753832817078,1.0728072850970491,1.2207544979229759,0.0006054713157936931,0.9999690055847168,1.182640631221151,1.504709036251662,-0.12274907529354095,0.9868159890174866,1.0716169564923645,1.5287933320083409,-0.027482762932777405,0.9365254640579224,1.1670215940970932,1.7951887031931661,0.10321209579706192,0.988349974155426,1.0884560361604867,1.6793670471756343,0.36057010293006897,0.8991398215293884,1.29936092072544,1.2285812676242034,-0.33782562613487244,0.9871634244918823,0.9882883787012057,1.247224173634356,-0.36703890562057495,0.9976163506507874,0.007271707057952881,1.1348200798012773,1.2186543193113712,179.74184148755486,173.39756405515953,1.0,0.004760652857579135,-0.006914745212039184,-0.02851257395141593,0.030490665084429085,98.01373090028903,1.0397546525787429,84,2.8
1.1336751344188567,0.6751956112013633,-0.48933354020118713,0.9999945759773254,1.2377362467427007,0.817737882461143,-0.23336884379386902,0.9999963045120239,1.0325360873026472,0.8359361980895567,-0.23667208850383759,0.9999932646751404,1.192979146028143,1.2125591272664131,-0.0005306547973304987,0.9999767541885376,1.0689877001426056,1.2155032897095985,0.0003689405566547066,0.999970555305481,1.1791970086880708,1.506879921987606,-0.06063123419880867,0.9876049757003784,1.0670231382245499,1.5230638588533196,-0.03604970499873161,0.9412609934806824,1.1633702886716168,1.791224926257014,0.19043894112110138,0.9887938499450684,1.0842172717876946,1.6751956112013633,0.3474844694137573,0.901753842830658,1.2948260891992178,1.219580948809531,-0.3820665180683136,0.9881295561790466,0.9811390288108072,1.2481733333307183,-0.36553525924682617,0.997604489326477,0.008295834064483643,1.1309834230853741,1.2140312084880058,179.49521523058152,173.18574276125753,1.0,-0.0006206495829891609,-0.004664354379651484,-0.04264342710673845,0.01770331623235992,97.82769017110769,1.0377698676525933,85,2.8333333333333335
1.1324375933860686,0.6739487172922621,-0.5092976093292236,0.9999950528144836,1.2376428654186498,0.8131861945298672,-0.24228696525096893,0.999996542930603,1.0323524152336312,0.8340993837417492,-0.2409684658050537,0.9999935626983643,1.1923369966948891,1.2102835801575267,-1.812308983062394e-05,0.9999781250953674,1.067718068022089,1.2107448039824869,-0.00014478179218713194,0.9999722242355347,1.1779699594512285,1.50770985716691,-0.03692325949668884,0.9883459806442261,1.0662308791636683,1.5209718381774462,-0.039462316781282425,0.945758044719696,1.1623049383082111,1.790228847218661,0.22343668341636658,0.9891377687454224,1.0828279486224612,1.6739487172922622,0.34722036123275757,0.9065812826156616,1.2905930847252884,1.2089710972934091,-0.37575024366378784,0.9889547824859619,0.9795827798799825,1.2477927938577682,-0.3690482974052429,0.9975236058235168,0.009543031454086304,1.1300275323584892,1.2105141920700067,179.59182823833177,173.53330619726927,1.0,0.0013168639643261558,-0.01659465790254825,0.014002742980770855,-0.08628408402600324,96.72093382787851,1.028642407625909,86,2.8666666666666667
1.1035206991191715,0.656124760095218,-0.5258681774139404,0.9999953508377075,1.2067988924529793,0.7890499379290821,-0.2555086314678192,0.9999967217445374,1.0061511582912448,0.8118961973425668,-0.25691869854927063,0.9999937415122986,1.16155549612223,1.1791779225685581,-0.00019912068091798574,0.9999794363975525,1.0401461932541394,1.1788467758598122,2.8128211852163076e-05,0.9999738335609436,1.1473434226175874,1.4730109387226507,-0.03730013594031334,0.9889863729476929,1.0389286373115671,1.4818265426304618,-0.006305954419076443,0.9494215250015259,1.1324802551229585,1.7440977903465897,0.2169819176197052,0.9895262718200684,1.053871091662287,1.656124760095218,0.34543344378471375,0.9132949709892273,1.2565233324481968,1.1758124946031168,-0.3752135634422302,0.9895589351654053,0.9533223769843111,1.215986750059131,-0.378662109375,0.9973526000976562,0.010699957609176636,1.1008508446881846,1.179012349214185,179.63084149024846,174.86980891731537,1.0,-0.0010720124700907341,-0.002898829934895197,-0.016687706920762973,0.09402719679423352,96.45880345318437,1.003332627281259,87,2.9
1.091607087964625,0.6475298501803958,-0.5269524455070496,0.9999956488609314,1.1943365754341408,0.7793103773760033,-0.2580948770046234,0.9999969005584717,0.99521755258883,0.8018495486093303,-0.25693994760513306,0.9999938607215881,1.1488946411103584,1.166202569999141,-0.0004547880089376122,0.9999805688858032,1.0284933182602338,1.1656183562917029,0.0002795307955238968,0.9999752044677734,1.1344732967958546,1.459112497321672,-0.033978112041950226,0.9894943833351135,1.0276871612367535,1.4651075468593322,0.002026177477091551,0.9526872038841248,1.1199135132141853,1.7246055346131204,0.22711272537708282,0.9897747039794922,1.0407241758065424,1.6475298501803959,0.3407022953033447,0.9190092086791992,1.2415160484147287,1.1605560098531003,-0.3980065882205963,0.9901458024978638,0.9421735405433552,1.2024812092292425,-0.38193511962890625,0.9971796274185181,0.010674595832824707,1.0886939796852961,1.165910463145422,179.67967914758674,175.75801578219546,1.0,0.0004113327790168102,-0.0001219084011379301,0.010108646183402247,0.018856060803219277,96.42090177849902,0.9964669967068269,88,2.933333333333333
1.0547882537151607,0.6247369071320482,-0.5162835121154785,0.9999959468841553,1.1554141314007509,0.7527614718705264,-0.25323930382728577,0.999997079372406,0.9625060741801499,0.77433751914674,-0.23759734630584717,0.9999940991401672,1.110053443056902,1.1269853874317612,-0.002304501598700881,0.999981701374054,0.9936835214728045,1.1259831173057344,0.0021326635032892227,0.9999768733978271,1.0959055283186911,1.4136596941483088,-0.021213920786976814,0.9894747138023376,0.9930989652369624,1.4141777323352627,0.014695902355015278,0.9554418325424194,1.0821204835217646,1.6673533307423316,0.2493613213300705,0.9894613027572632,1.0045311316629317,1.624736907132048,0.3120260536670685,0.9249211549758911,1.1933637119357459,1.114045255621444,-0.43481677770614624,0.9904476404190063,0.9107934593909136,1.1616048093400582,-0.35600095987319946,0.997000515460968,0.010575473308563232,1.0518684822648532,1.126484252368748,179.71511856717754,176.77600113749807,1.0,-0.00046224115455049584,-0.0004238825004846961,-0.005478312142023188,-0.0019505384927290571,96.41779484193793,0.9655963213970571,89,2.966666666666667
1.0163832738895893,0.6003561937881678,-0.5166661739349365,0.9999962449073792,1.1146369869754928,0.7248832410822666,-0.25191646814346313,0.9999973177909851,0.9276907862977873,0.7452064986619299,-0.235249325633049,0.9999943971633911,1.0693446034297713,1.0859271818041216,-0.0019500138005241752,0.9999827742576599,0.9573901423369124,1.0837884958779942,0.0017783486982807517,0.9999784827232361,1.055848725435517,1.361610042790122,-0.013640244491398335,0.9894511699676514,0.9569365225175402,1.3597160057553417,0.011439920403063297,0.9585598707199097,1.0417729780144072,1.6108643792151551,0.24104520678520203,0.9894112348556519,0.9659953858844151,1.6003561937881678,0.25347834825515747,0.9313936829566956,1.146496763791964,1.0701878687894566,-0.43990176916122437,0.991124153137207,0.8778870443883074,1.1183068375147047,-0.34222325682640076,0.9969351291656494,0.010338574647903442,1.0133673728833419,1.084857838841058,179.57049936000865,177.7499339393586,1.0,-0.0006683528574523258,-0.0027644535730340166,-0.0011588935810316343,-0.012245320563056281,96.05591262280046,0.930247927898489,90,3.0
0.9998695938421556,0.5895138005500339,-0.5006487369537354,0.9999964833259583,1.0977170854828788,0.7129464847818665,-0.24776916205883026,0.9999974966049194,0.9124053251582176,0.7320250843130842,-0.21600177884101868,0.999994695186615,1.0519448122062007,1.068373222077999,-0.0019840605091303587,0.9999836683273315,0.941652838984699,1.0660768520426025,0.0018120415043085814,0.9999799132347107,1.0383849920549055,1.3403308559236695,-0.007640303112566471,0.9889847040176392,0.9418332639428126,1.3374099423890604,0.00717324111610651,0.9615145325660706,1.0236135413800407,1.589513800550034,0.24119135737419128,0.9887143969535828,0.9497176790239419,1.6037333156615605,0.19505739212036133,0.9373661279678345,1.1194692705639648,1.042567554913353,-0.47120293974876404,0.9917877912521362,0.8641756190042629,1.0984961801598816,-0.32709425687789917,0.9969080686569214,0.009866952896118164,0.9967988255954499,1.0672250370603007,179.46190896621434,178.34237199498014,1.0,0.00014493634359860415,0.0008281017687961169,0.005161181248028942,0.022818354093240758,96.14545542665061,0.9022161068702531,91,3.033333333333333
0.9985252184424164,0.5867739292959882,-0.4791960120201111,0.9999967217445374,1.096872221406767,0.7122351401704178,-0.23138520121574402,0.9999976754188538,0.911026499403925,0.7303140022887855,-0.20108060538768768,0.9999949932098389,1.0502524148677728,1.067933337410929,-0.0018060894217342138,0.9999845623970032,0.9398547359441338,1.0655699814085806,0.0016342352610081434,0.9999813437461853,1.0366657358777913,1.337752480318361,-0.0009658114868216217,0.9885462522506714,0.9416683070070451,1.3356477044853303,-0.01847468689084053,0.9644518494606018,1.0217747633234813,1.5867739292959882,0.2471323311328888,0.987967848777771,0.9469631588853158,1.6191736677698232,0.13363489508628845,0.943069338798523,1.1100486474801408,1.0395050543101787,-0.45423364639282227,0.9923920631408691,0.8633508526097062,1.0944462629958256,-0.3270084857940674,0.9968720078468323,0.009363949298858643,0.9950535754059533,1.0667516594097548,179.46058537006766,179.3148599660274,1.0,-0.0015661199718874997,0.007019029102308712,-0.01066323186724763,0.0385942363737655,96.24056379041028,0.8949524170903187,92,3.066666666666667
0.9961529777365652,0.5847242881199057,-0.487926185131073,0.9999969005584717,1.0958346331971134,0.7113225173176327,-0.2419232875108719,0.9999977946281433,0.9095731448430311,0.7281666261626241,-0.20375780761241913,0.9999952912330627,1.048598761208273,1.0693208592372485,-0.0028084563091397285,0.99998539686203,0.9383819180761211,1.0652203563551417,0.0026622244622558355,0.9999827146530151,1.0349763036987372,1.3387107764308988,0.022353025153279305,0.9881928563117981,0.9409513106935843,1.335523654073644,-0.031684763729572296,0.9675142168998718,1.0200215217225193,1.5847242881199057,0.2981613576412201,0.9869902729988098,0.945667302666315,1.6353997289389033,0.1078868880867958,0.9484008550643921,1.1030612438360603,1.03741907091195,-0.4897328317165375,0.9929425120353699,0.8618739180968041,1.0915441922086309,-0.3304249346256256,0.996939480304718,0.008737534284591675,0.993490339642197,1.067270607796195,179.41621466604192,179.64362778702846,1.0,-0.0004623842979808782,0.01432945044309184,0.007439404223108362,0.049450208943508565,95.38579137114593,0.8888482093537422,93,3.1
0.9918847913216107,0.5817083460879195,-0.5123545527458191,0.9999970197677612,1.0916005331708074,0.7090888356384714,-0.25807985663414,0.9999979138374329,0.9063016940017941,0.7256879361546106,-0.21006767451763153,0.9999954104423523,1.0445894229266997,1.065741187971563,-0.0036223758943378925,0.9999862909317017,0.9350288674906354,1.0614871339023457,0.003487542737275362,0.9999839663505554,1.0311982093906233,1.3360909383347075,0.021983977407217026,0.9882158041000366,0.9401640399613616,1.332947971650097,-0.03109532967209816,0.9702646732330322,1.0160873522612444,1.5817083460879195,0.2960217595100403,0.9865332245826721,0.9423924548647943,1.6365321043742025,0.10050122439861298,0.953256368637085,1.0930835096552909,1.035676450300222,-0.47434598207473755,0.9933604598045349,0.8590913002052432,1.0876129156580596,-0.32293421030044556,0.9959416389465332,0.008641064167022705,0.9898091452086675,1.0636141609369545,179.3152000380661,179.3368397443895,1.0,-0.0009431188865185713,0.0007399519231011315,-0.0028365573862605257,-0.07961334679075427,95.28540810702155,0.8832498704846953,94,3.1333333333333333
0.9886984552167347,0.5793552189588893,-0.529877781867981,0.9999970197677612,1.089885924480223,0.7084392190254439,-0.2753317654132843,0.9999980330467224,0.9046207987144655,0.7252134566927734,-0.22745053470134735,0.9999954700469971,1.0423207136171044,1.0643753560375129,-0.003055977402254939,0.9999871253967285,0.9331403933781754,1.060343537640759,0.0029333150014281273,0.9999851584434509,1.0295952760815579,1.3359312529049774,0.035811495035886765,0.9879109859466553,0.9411238672339367,1.3383966348948124,-0.03384741395711899,0.9727004170417786,1.0132256839994147,1.5793552189588893,0.31464701890945435,0.985629677772522,0.9412808768110063,1.6416953397830762,0.09023728966712952,0.9575977921485901,1.0856966390859275,1.0356902895179982,-0.4974586069583893,0.9936684370040894,0.858222353120714,1.0866512756113296,-0.32383498549461365,0.9944781064987183,0.008743137121200562,0.9877305534976399,1.062359446839136,178.8357954159818,178.38503314706313,1.0,-0.005237981249807668,0.00044295599587052887,-0.026646530850816023,-0.0018364192885798978,95.49671371569325,0.8809657183081658,95,3.1666666666666665
0.9851708553035093,0.5772433920256701,-0.522842288017273,0.9999964833259583,1.0875472383395344,0.7080553193293775,-0.26697829365730286,0.999998152256012,0.901273475493648,0.7242093090825166,-0.22739556431770325,0.9999952912330627,1.0391143181941793,1.0640844572458392,0.00031117559410631657,0.999987781047821,0.930967263018155,1.0628936147821524,-0.0004209146718494594,0.9999860525131226,1.0276267347500283,1.3389786776649237,0.05401211977005005,0.9872849583625793,0.9419682024630796,1.348260582994603,-0.03493550047278404,0.9748221039772034,1.0105800982522077,1.57724339202567,0.3421754240989685,0.9840267896652222,0.9399885823855418,1.6460807751422222,0.09093048423528671,0.9613983035087585,1.078766415959686,1.0399053215751195,-0.48824161291122437,0.9939768314361572,0.8567738852916117,1.090276599500435,-0.3324795365333557,0.9910476207733154,0.008435577154159546,0.9850407906061671,1.063489036013996,178.30069629697104,177.41149106550282,1.0,-0.0059191214062452235,0.021707295379877846,-0.004821845921704817,0.14840989801848953,97.11588090058356,0.886885936752897,96,3.2
0.9799238693813623,0.5769380403918523,-0.5166029930114746,0.9999948143959045,1.0851692471000358,0.7082127581992612,-0.26421886682510376,0.9999982118606567,0.8967368386945438,0.722961810559712,-0.22599776089191437,0.9999949932098389,1.0345493680729672,1.0681011247543621,0.0016106357797980309,0.9999881386756897,0.926837743025163,1.0674738526328087,-0.0017221111338585615,0.9999867081642151,1.0233596685703124,1.3481813215749665,0.06171547248959541,0.9864901304244995,0.9427212018433448,1.35749559380696,-0.04859086126089096,0.9768180847167969,1.0100223207562498,1.5769380403918523,0.3500261604785919,0.982353150844574,0.94275554322359,1.660507047627045,0.056004296988248825,0.964888870716095,1.0660055019226609,1.055781468341583,-0.4674071669578552,0.9943087697029114,0.8549866194117105,1.098085941528837,-0.3118215501308441,0.9886924028396606,0.007705360651016235,0.980693555549065,1.0677874886935854,178.95107643890321,176.8717391473573,1.0,-0.027154660514153477,0.03316848198012767,-0.1475865194782185,0.07971239989507747,97.67271480864787,0.890909663138881,97,3.2333333333333334
0.9788551554274053,0.5771183962184236,-0.5157634019851685,0.999993622303009,1.083866505096527,0.7084394271983742,-0.264807790517807,0.9999982714653015,0.894980664234444,0.7229885547258952,-0.23098304867744446,0.999994695186615,1.0324402652821514,1.0705685136625283,0.0031083065550774336,0.9999883770942688,0.9256718032668496,1.0701496999480962,-0.003229484660550952,0.9999871850013733,1.0216921203525269,1.3510927004967979,0.06947403401136398,0.9847623109817505,0.942917493298952,1.3615020067634251,-0.0487821027636528,0.9783101081848145,1.0098112046872454,1.5771183962184236,0.3471164107322693,0.9799849390983582,0.9442342294703273,1.66315352580168,0.03944660350680351,0.9679495692253113,1.0629341477326302,1.0616502116001816,-0.4400607645511627,0.994583249092102,0.8542263591722913,1.1002534045442143,-0.3131442368030548,0.9867948293685913,0.0076011717319488525,0.9790560342745005,1.0703591068053122,179.18523434452834,176.86260745303213,1.0,-0.010863019385279973,0.017659021343272217,0.11031197457063864,-0.10501408757681077,97.85782518940894,0.8971561046341613,98,3.2666666666666666
0.9778527071484205,0.5773331147682035,-0.5163518190383911,0.9999933838844299,1.081214309975602,0.7087876019938115,-0.26861971616744995,0.9999983906745911,0.8925486312644029,0.7235532436695183,-0.2351962774991989,0.9999946355819702,1.03155434212476,1.0744002586721735,0.005325607024133205,0.9999886751174927,0.9238531221787254,1.0740467354705587,-0.005439172964543104,0.9999876618385315,1.0196467267066525,1.3574136114762898,0.08841832727193832,0.9834209084510803,0.943195679713685,1.367379473892888,-0.05233175680041313,0.9798946976661682,1.0102995869495621,1.5773331147682035,0.38916438817977905,0.9778525829315186,0.9446864567007396,1.6688581948030379,0.05064930394291878,0.9707392454147339,1.0628023469239116,1.0652496221278593,-0.4660654067993164,0.9949443936347961,0.8523476913240351,1.1028604739892565,-0.3212256133556366,0.9857102632522583,0.007712513208389282,0.9777037321517427,1.074223497071366,179.9755122627568,176.51065821275054,1.0,-0.011670293034553749,0.026760748974885406,-0.005952696792930014,0.06729311033570748,97.54689289015997,0.9052902900149719,99,3.3
0.9776043674785511,0.5781086530251386,-0.5054696202278137,0.9999909996986389,1.0816354898458171,0.7104199972313869,-0.2660156488418579,0.9999983906745911,0.8917230419452886,0.7251251522322644,-0.22608289122581482,0.9999942183494568,1.0331999706556747,1.0830969881984007,0.0050197490490973,0.9999889135360718,0.9235779309403147,1.0829156160241287,-0.0051368409767746925,0.9999880790710449,1.0205285054789892,1.3702077677722573,0.07929205894470215,0.9814913868904114,0.9451120456339709,1.3782030100118927,-0.053090352565050125,0.9811634421348572,1.0127060585453598,1.5781086530251387,0.38528960943222046,0.9744061827659607,0.947126065840272,1.6822587079656979,0.037944160401821136,0.9732221364974976,1.0623633812096025,1.073708176402851,-0.44041919708251953,0.9950137734413147,0.8507414502489322,1.1086607443200691,-0.3025839626789093,0.9828306436538696,0.007664471864700317,0.9783889507979947,1.0830063021112648,179.62771022630918,176.20854746963374,1.0,-0.010372445344426256,0.04755469933785276,0.009711893109345705,0.15223540513432135,97.31022676900312,0.9227255035649404,100,3.3333333333333335
0.9751177960044987,0.5752041355113888,-0.5140452980995178,0.9999905228614807,1.079463230900301,0.7107420050165678,-0.27259641885757446,0.9999984502792358,0.8862128687502231,0.724995573212882,-0.2342100590467453,0.9999942183494568,1.0322187743358904,1.0843993845050097,0.004989513661712408,0.9999891519546509,0.9205728582815007,1.083736739084481,-0.005109295714646578,0.9999885559082031,1.0201978167589238,1.3721372299431083,0.08104552328586578,0.9803460836410522,0.9422304853039819,1.3803057388547912,-0.04972634091973305,0.982424795627594,1.013146985804083,1.5752041355113888,0.3963994085788727,0.9715906381607056,0.9473603537403262,1.680583516886763,0.050613682717084885,0.9754909873008728,1.060779215193557,1.0766005752306733,-0.4463290274143219,0.995164692401886,0.8456960419261351,1.1127129776468985,-0.3107009530067444,0.9823141098022461,0.007427215576171875,0.9763958163086955,1.0840680617947454,179.5963275166956,176.8019906096749,1.0,-0.015889568505826818,0.005578580583609879,-0.03909260335064208,-0.29765712472709965,96.86606013387085,0.9356874303211253,101,3.3666666666666667
0.9706018570149928,0.5719206979676924,-0.5408720970153809,0.9999906420707703,1.0763324096871327,0.7107193859897455,-0.2864638864994049,0.9999985098838806,0.8822831504628239,0.7250080497339155,-0.24395382404327393,0.9999943375587463,1.0308118078015218,1.084036019342238,0.004545634146779776,0.9999892711639404,0.9169689534773993,1.0827367379561397,-0.004663312807679176,0.9999889731407166,1.0201340001887327,1.368595457262061,0.07597527652978897,0.9786885380744934,0.9401369169662083,1.382047634979597,-0.04694082587957382,0.9833576083183289,1.0131654184574823,1.5719206979676923,0.3953344225883484,0.9682297110557556,0.9473287751536312,1.6788490739231514,0.0721968412399292,0.9773547649383545,1.0613122639054506,1.0798296830721101,-0.4772161543369293,0.995290994644165,0.8392461560018416,1.115366899150989,-0.3413873612880707,0.9830657839775085,0.0074457526206970215,0.9738903806394605,1.0833863786491889,179.81397590220897,176.96195779005052,1.0,-0.018114428798930257,-0.004727670885432782,-0.016302631785765905,-0.0754994683101301,96.2981930340868,0.9436174843030817,102,3.4
0.9656867739861529,0.5656578785658258,-0.5396209955215454,0.9999907612800598,1.071325964715735,0.7092778787861663,-0.28888675570487976,0.9999985694885254,0.8773010375921884,0.723160752552738,-0.2458602488040924,0.9999943971633911,1.0255942526997552,1.0813546506414105,0.0022658035159111023,0.99998939037323,0.9103799576523972,1.0804904138501195,-0.0023926361463963985,0.9999893307685852,1.0163363015928386,1.3641517661455158,0.06761819124221802,0.9772757291793823,0.9357211613629984,1.3791754438931938,-0.04559830203652382,0.9840701818466187,1.011614509062984,1.565657878565826,0.3709467053413391,0.9653906226158142,0.945920297160457,1.6789344337111258,0.06247909739613533,0.9790294170379639,1.06058214282432,1.0815925726325664,-0.4641720652580261,0.9954119324684143,0.8305711720403758,1.1148412575684223,-0.33911436796188354,0.9835544228553772,0.0072480738162994385,0.9679871051760762,1.080922532245765,179.4673111238585,177.09919875940946,1.0,-0.028008074077567082,-0.002796940851071633,-0.06862091274264938,0.01328271962400459,96.57726853820817,0.9515902065276561,103,3.433333333333333
0.957830315855421,0.5619941184771876,-0.5443171262741089,0.9999909996986389,1.06674575420305,0.7074999105164081,-0.2918771207332611,0.9999986290931702,0.8712298624870876,0.7207168650238619,-0.25208646059036255,0.9999944567680359,1.0221139603750695,1.079443304906049,0.0008971428615041077,0.9999896883964539,0.9044828201762816,1.0784915870604674,-0.0010331007651984692,0.9999897480010986,1.0157018055623002,1.3616630405863375,0.05300912261009216,0.9774036407470703,0.9318433118367527,1.3796046717502466,-0.04486563056707382,0.984875500202179,1.0105737687912693,1.5619941184771877,0.3619903028011322,0.9642078876495361,0.9450223070625466,1.681038301485154,0.07146276533603668,0.9806050658226013,1.0599435193246942,1.0825462766960332,-0.45892420411109924,0.9956315159797668,0.8237877139142312,1.1143795230535951,-0.34580838680267334,0.9841898679733276,0.006910949945449829,0.9632983902756755,1.0789674459832583,179.83523479467877,177.3115420989189,1.0,-0.023887381384993845,-0.0022750492598889475,0.03032902341003793,0.0038497280586358776,96.37900611791635,0.9525704009473758,104,3.466666666666667
0.9510449292816565,0.5580858165730922,-0.5682374238967896,0.9999916553497314,1.0616229559395551,0.7045104708943619,-0.30228614807128906,0.9999986886978149,0.8635740188890735,0.7171904075040585,-0.2736957371234894,0.9999947547912598,1.018816082964487,1.07630234296046,0.0009053791873157024,0.9999902844429016,0.899646780625051,1.0750989094971422,-0.0010411881376057863,0.9999904036521912,1.014210974562816,1.3640946161331482,0.04154231399297714,0.978401780128479,0.9247638069972408,1.3828955780158572,-0.041849248111248016,0.9858861565589905,1.0092769542093851,1.5580858165730922,0.3845252990722656,0.9632183313369751,0.9426758652868509,1.6781804040557697,0.10125188529491425,0.9821498990058899,1.0619117344938138,1.0826411459187801,-0.4574461579322815,0.995805025100708,0.817287307489017,1.1142957094669454,-0.38284391164779663,0.985053539276123,0.006647616624832153,0.959231431794769,1.0757006262288011,179.45977928113928,178.80617287615746,1.0,-0.010706885184518001,-0.003011391943538916,0.09143476835351262,-0.0051742046678950665,95.98934105951194,0.9539090130059503,105,3.5
0.9492588686484569,0.5548545241248869,-0.5758570432662964,0.999992311000824,1.0575993016368115,0.7019730326219454,-0.2967890799045563,0.9999987483024597,0.8561466140518581,0.7149898864671818,-0.28869062662124634,0.9999950528144836,1.0167355901592257,1.0743015261600772,0.0026784446090459824,0.9999908804893494,0.8953157711303494,1.072730958010255,-0.002825712552294135,0.9999910593032837,1.014571249875588,1.3660928647360522,0.026649948209524155,0.979671835899353,0.919004464753348,1.3853658320680304,-0.03584178909659386,0.9868187308311462,1.009107116288661,1.554854524124887,0.3900432288646698,0.9618536829948425,0.9410967715796507,1.6742968050360774,0.1257496178150177,0.9835402965545654,1.0688758651942056,1.0812223988734673,-0.3847540020942688,0.9959539175033569,0.810574773014373,1.1143273516162644,-0.39758482575416565,0.9858171343803406,0.006836503744125366,0.9560256806447875,1.073516242085166,178.76688630754342,179.96063017985173,1.0,-0.011715292479925853,-0.002019746925474628,-0.00809924429679007,0.007773323851874213,95.52216476330541,0.9580868925770214,106,3.533333333333333
0.9503148841875295,0.5543238898838113,-0.6006044149398804,0.9999929070472717,1.055587203142964,0.7010987937602985,-0.2967214286327362,0.9999988079071045,0.8531234995120353,0.7128198284329106,-0.3041501045227051,0.9999953508377075,1.0167217573203937,1.0748738631784973,0.004257566295564175,0.9999913573265076,0.8923734677808409,1.0732974971967228,-0.0044118245132267475,0.9999916553497314,1.019364859327878,1.3708266664697961,-0.007848450914025307,0.9807724952697754,0.916898798928153,1.3894219697987178,-0.03129212558269501,0.9874966144561768,1.0135882202448712,1.5543238898838112,0.3839811086654663,0.9582648873329163,0.9418273363032406,1.6736239806620021,0.15763762593269348,0.9846378564834595,1.0782444400842643,1.0845390004063296,-0.3872717320919037,0.9959132671356201,0.808553821358629,1.1170262916015834,-0.4232460558414459,0.9865016937255859,0.006151020526885986,0.9545476125506173,1.0740856801876102,177.68519377518848,179.42337112160394,1.0,-0.016876937652990295,-0.0021692842814219648,-0.038787975406211185,-0.001113615740285245,95.21002913456667,0.9618649554479446,107,3.566666666666667
0.9481175221901804,0.5509932496419595,-0.5837891697883606,0.9999935030937195,1.0503736889346735,0.6978484923418239,-0.28635796904563904,0.9999988079071045,0.8465729873571982,0.7087692876987374,-0.29416540265083313,0.9999956488609314,1.0139860381627632,1.0730132867617592,0.005036128219217062,0.999991774559021,0.887758769250859,1.07264250817263,-0.00520461518317461,0.9999921917915344,1.0235774262150892,1.368603736362254,-0.009511115029454231,0.9819455146789551,0.9126355641505053,1.3924209614478116,-0.029270663857460022,0.9882168769836426,1.0158193008108785,1.5509932496419594,0.37843456864356995,0.9560582637786865,0.9399518350564638,1.67448723083767,0.15748287737369537,0.9857038855552673,1.0838015721306897,1.0839561860088835,-0.35683199763298035,0.9957296848297119,0.8054004677976642,1.1139473110135807,-0.4156724810600281,0.9873823523521423,0.005742490291595459,0.950872403706811,1.0728278974671945,175.70583860739234,178.916828342607,1.0,-0.013881490891973224,0.006867556760658429,0.023145417987677355,0.07058421384300745,95.37155361048414,0.9653199562754935,108,3.6
