nose_x,nose_y,nose_z,nose_visibility,left_shoulder_x,left_shoulder_y,left_shoulder_z,left_shoulder_visibility,right_shoulder_x,right_shoulder_y,right_shoulder_z,right_shoulder_visibility,left_hip_x,left_hip_y,left_hip_z,left_hip_visibility,right_hip_x,right_hip_y,right_hip_z,right_hip_visibility,left_knee_x,left_knee_y,left_knee_z,left_knee_visibility,right_knee_x,right_knee_y,right_knee_z,right_knee_visibility,left_ankle_x,left_ankle_y,left_ankle_z,left_ankle_visibility,right_ankle_x,right_ankle_y,right_ankle_z,right_ankle_visibility,left_wrist_x,left_wrist_y,left_wrist_z,left_wrist_visibility,right_wrist_x,right_wrist_y,right_wrist_z,right_wrist_visibility,trunk_lateral_inclination,center_mass_x,center_mass_y,left_knee_angle,right_knee_angle,person_height,center_mass_velocity_x,center_mass_velocity_y,center_mass_acceleration_x,center_mass_acceleration_y,body_orientation,torso_leg_ratio,frame,timestamp
1.2593337064168004,0.8668246586720988,-0.3954697251319885,0.9999567270278931,1.3355335399485526,1.0063320651418297,-0.19289135932922363,0.9999958276748657,1.1667495094269462,1.0065561827363911,-0.21241864562034607,0.9999964833259583,1.307831683822388,1.3311199986980968,0.008745389990508556,0.9999796748161316,1.213250046201961,1.343329354552474,-0.008847025223076344,0.9999834299087524,1.3166269618370687,1.6054616328289473,0.0023974732030183077,0.9796559810638428,1.2150560654387708,1.6245918826777088,-0.006598729640245438,0.9484012722969055,1.3219730879057423,1.866824658672099,0.16563034057617188,0.9729790091514587,1.2305099990555257,1.876612266381001,0.12471209466457367,0.933376669883728,1.3896882573303952,1.3470937275979937,-0.279830664396286,0.9276831150054932,1.1405772410217534,1.3713945843647808,-0.30330389738082886,0.9932193160057068,8.988380432128906e-05,1.2605408650121745,1.3372246766252853,179.3355600021223,176.8589043699339,1.0,0.10882945053719227,0.08596989545872533,0.622610605389234,0.46031709164533235,102.2306021763555,0.8797044370458568,0,0.0
1.2313575581268879,0.8390577302633964,-0.38974282145500183,0.9999608993530273,1.311996188923806,0.976574207947283,-0.18180151283740997,0.9999961256980896,1.1302652816469418,0.98034917462937,-0.19683782756328583,0.9999964833259583,1.2862986880210683,1.3061074381243936,0.006270155310630798,0.9999812841415405,1.1770836566028926,1.3186689076800147,-0.006380950100719929,0.9999847412109375,1.2914688740358107,1.5842037562593445,-0.001508722547441721,0.9812330603599548,1.1790498847831037,1.5994574872130272,-0.006824211683124304,0.9527806043624878,1.2948695489501414,1.8390577302633964,0.17338043451309204,0.9751157164573669,1.1995129566439326,1.844166718631493,0.13405196368694305,0.9396472573280334,1.3663505755044092,1.3203441570024175,-0.2678169906139374,0.9339020252227783,1.1016481309339603,1.3414065887532647,-0.28745558857917786,0.9930992722511292,0.0015515685081481934,1.2316911723119803,1.3123881729022042,179.69940461591074,175.62114258999853,1.0,0.013143756537453501,0.05873475441059799,-0.7225414323514998,-0.19531100003238813,101.02008562409326,0.8939984916188549,1,0.03333333333333333
1.2212785544487719,0.8283229853963425,-0.42164474725723267,0.9999645352363586,1.3044218281695776,0.969275836650981,-0.193869948387146,0.9999963641166687,1.1243656339155212,0.9708934670124589,-0.21490809321403503,0.9999964237213135,1.2769664474526052,1.299148002833142,0.006232989951968193,0.999982476234436,1.1672531318654582,1.3115679782864538,-0.006339068058878183,0.9999856948852539,1.278992900924736,1.567238065028899,-0.019804801791906357,0.9823954701423645,1.1734054474904525,1.59142848389056,-0.004063008818775415,0.955783486366272,1.2842882091190406,1.8283229853963425,0.15120550990104675,0.9768452048301697,1.191829953808251,1.8309472102021949,0.1557629257440567,0.9448410272598267,1.360460511731767,1.3137497138923082,-0.28203409910202026,0.9393386244773865,1.0949080940992428,1.3368567623242578,-0.3095482587814331,0.9929892420768738,0.0006687343120574951,1.2221097896590318,1.3053579905597978,179.27117199727905,176.86065665578832,1.0,-0.019352417699798542,0.004336317958029988,-0.25451848297745766,-0.42439658987847045,101.21639284647922,0.9094674104689668,2,0.06666666666666667
1.2085833093447294,0.813958075371039,-0.41845160722732544,0.9999679923057556,1.293494897622161,0.958851052157664,-0.19403588771820068,0.999996542930603,1.1152229240550198,0.9607571910288644,-0.2092060148715973,0.9999964833259583,1.266432467432212,1.2860174516111593,0.004728360567241907,0.9999834895133972,1.1567289337269677,1.297054946888124,-0.004850737750530243,0.9999865293502808,1.2667151175765328,1.5540561973900637,-0.025444969534873962,0.9835535287857056,1.1642285175714053,1.573978819235092,-0.0015507424250245094,0.9586924910545349,1.2745836177033254,1.813958075371039,0.14059749245643616,0.978506863117218,1.1815446594726324,1.8147086193368833,0.15816688537597656,0.9496221542358398,1.3479468266379837,1.3023214660501685,-0.27199244499206543,0.9443982839584351,1.0836195957531638,1.324552706860736,-0.30307066440582275,0.9932109713554382,0.0007954835891723633,1.21158070057959,1.2915361992496417,178.32632547448648,177.43698536330373,1.0,0.00740673913461217,-0.011945483164062118,0.20490854622593954,-0.12521728187778802,100.47391677167704,0.9130656839361689,3,0.1
1.2130078562389537,0.8234940929555363,-0.42976635694503784,0.9999709725379944,1.2990750982307808,0.9636080787478734,-0.20433413982391357,0.9999966621398926,1.1201523062150798,0.9642885449077182,-0.21364828944206238,0.9999966025352478,1.2707191617104483,1.2910126465428382,0.0032657769042998552,0.9999840259552002,1.158763578570602,1.3012986094519454,-0.0034047099761664867,0.999987006187439,1.2711226931340054,1.561951648959508,-0.027817536145448685,0.9845001101493835,1.1680903474293665,1.5809361312181478,-0.00038881172076798975,0.9613596796989441,1.280520972982689,1.8238775410519346,0.1373434066772461,0.9797534942626953,1.186201061504257,1.8234940929555363,0.1557345688343048,0.953805148601532,1.3520638093208586,1.3069715755649889,-0.2965717017650604,0.9494193196296692,1.086732358751629,1.3280233494499643,-0.31162625551223755,0.9937261343002319,0.00028273463249206543,1.2147413701405252,1.2961556279973918,178.03036135599092,177.64018657934002,1.0,-0.016014694773587305,-0.007816591958421734,-0.17362772032924684,0.03095439977206864,100.19927054074284,0.8954338956079031,4,0.13333333333333333
1.218187354233957,0.82881539748766,-0.43864160776138306,0.9999736547470093,1.3067465814796226,0.9680367147731358,-0.21567901968955994,0.9999968409538269,1.1232793460033437,0.9681337691371874,-0.22737284004688263,0.9999967217445374,1.2756724812646558,1.295454291822457,0.0028844091575592756,0.9999847412109375,1.162392902705232,1.3052956619363223,-0.00302434922195971,0.9999876022338867,1.2753430148181422,1.566722247329799,-0.0240505151450634,0.9852226972579956,1.1719230940643264,1.5868299243947943,0.0004445693048182875,0.9634829163551331,1.2844926205923872,1.82881539748766,0.13968107104301453,0.9807918071746826,1.189496413848448,1.8329332960763614,0.14712902903556824,0.9575607776641846,1.3599024214847835,1.3119636135413302,-0.31870347261428833,0.9540637135505676,1.090252998695454,1.3317395201986475,-0.3349567949771881,0.9942037463188171,4.017353057861328e-05,1.219032691984944,1.3003749768793897,177.93104260500772,177.85442948728036,1.0,-0.0023668102997368343,-0.005138597093780358,0.09962346514066493,0.019677273099907387,100.38671950703248,0.8883858411825007,5,0.16666666666666666
1.221586170137423,0.832404378673901,-0.4415469169616699,0.9999759197235107,1.3104907587872037,0.9706443830170844,-0.2232028990983963,0.9999969601631165,1.126924264512286,0.9692145111705941,-0.23246721923351288,0.9999967813491821,1.2796953072033386,1.2987159381185887,0.002469475846737623,0.9999851584434509,1.165957036993079,1.308184886487047,-0.00260772998444736,0.9999879598617554,1.278942036333588,1.5710377241141469,-0.013232380151748657,0.9856603145599365,1.174697693571807,1.5909430187478102,0.003243120387196541,0.9652261137962341,1.2889948887459932,1.832404378673901,0.14608913660049438,0.981737494468689,1.1908075397259419,1.8369097095055724,0.15054218471050262,0.9609100222587585,1.3625512044067718,1.3150098064547242,-0.3304756283760071,0.9580603241920471,1.094890327038966,1.3350674301601888,-0.33986419439315796,0.9945935606956482,0.0005902647972106934,1.2228261720982088,1.3034504123028179,177.63885284409994,178.02327591794983,1.0,0.0036879068648565973,-0.0033692256739732136,0.045579714959207034,0.013410381966088321,100.12155100011903,0.8862885552826473,6,0.2
1.2244904753247745,0.8347728517517968,-0.43876123428344727,0.9999779462814331,1.3127920192126206,0.9721753093739108,-0.21998772025108337,0.999997079372406,1.128871154320466,0.9716317990178311,-0.23315513134002686,0.9999967813491821,1.2836336656249023,1.3016139435085035,0.002432446926832199,0.9999858140945435,1.1697491399364752,1.3110310746075435,-0.0025696372613310814,0.9999884366989136,1.283041811072037,1.5752801647523909,-0.012143544852733612,0.9862663745880127,1.177369140654401,1.596643233723059,0.0047752102836966515,0.9670834541320801,1.2930921932517292,1.834772851751797,0.1596364974975586,0.9826643466949463,1.1933395157937885,1.8421198669752976,0.16294214129447937,0.9640177488327026,1.3642468900496643,1.3179654272411154,-0.32965752482414246,0.9617496132850647,1.097679594348766,1.3391466988729723,-0.3465624749660492,0.9949275851249695,0.0002238154411315918,1.2266914027806888,1.3063225090580235,177.6580795248955,177.8059229741652,1.0,0.006494381814627134,-0.002549196600134015,0.021231379481297125,0.006286698843255285,99.78506723401269,0.8857438714482653,7,0.23333333333333334
1.2171514437552529,0.8267231814258164,-0.4383001923561096,0.9999799728393555,1.3059381506136463,0.9662074806512925,-0.2191350907087326,0.9999971985816956,1.1227777242981665,0.9658401260833398,-0.23014450073242188,0.9999968409538269,1.2760054442723985,1.294075749288925,0.0023910803720355034,0.9999863505363464,1.1631546390061482,1.3035082577076471,-0.002525830641388893,0.9999887943267822,1.2745892657930449,1.5684841436789474,-0.00506212841719389,0.9863108992576599,1.1703264707240857,1.5882150985461363,0.0051170955412089825,0.968463659286499,1.2852100288228725,1.8267231814258162,0.17180123925209045,0.9832015633583069,1.1855349210590576,1.8335532712327127,0.15612031519412994,0.9667090773582458,1.3555697240552778,1.3099494092469461,-0.32506921887397766,0.965197741985321,1.0921806716818552,1.3306542206421035,-0.3557138741016388,0.9952252507209778,0.00015217065811157227,1.2195800416392732,1.298792003498286,177.34919503364637,177.89577723317322,1.0,0.0008485995290074824,0.0012394954594548153,-0.044315749747712366,0.029822916933777154,99.99425093418041,0.8880547849123775,8,0.26666666666666666
1.2174915386974128,0.8259718441248832,-0.4402633309364319,0.9999817609786987,1.3075474387194388,0.966817945591413,-0.22054925560951233,0.9999973177909851,1.1243057844933944,0.9669540606334568,-0.22978730499744415,0.9999969005584717,1.2772852715030816,1.2945866378360948,0.0023782961070537567,0.9999867677688599,1.1651382096733096,1.3041567273653858,-0.0025112777948379517,0.9999891519546509,1.2755917153374516,1.570182240118163,0.0032268804498016834,0.9863884449005127,1.1715081920956822,1.5884203601038247,0.004816732369363308,0.9700000882148743,1.2855337998626613,1.8259718441248831,0.17952588200569153,0.9836655259132385,1.1853398125341008,1.8359281807803545,0.1497488170862198,0.9692829847335815,1.3564207286437586,1.310616973279415,-0.3239041566848755,0.9682736396789551,1.09340846173447,1.3318126262357244,-0.3372781574726105,0.9954928755760193,5.6356191635131836e-05,1.2212117405881955,1.2993716826007402,177.42205341125228,178.08514413609134,1.0,0.008110451278244375,-0.00037651364436324964,0.056522282320912505,-0.012583507312685073,100.15256809732678,0.8902599383665932,9,0.3
1.2180872222130594,0.8261611326484114,-0.4476677477359772,0.9999833703041077,1.3093387633882108,0.9671415948075784,-0.2251286804676056,0.9999973773956299,1.1249675812154922,0.9671355449816442,-0.23683559894561768,0.9999969601631165,1.2777527662288921,1.2952724859606226,0.002672781702131033,0.9999871253967285,1.1651953225914833,1.3048774488921149,-0.0028014525305479765,0.9999894499778748,1.2777696193154233,1.5721800771021506,0.014339755289256573,0.9864842891693115,1.1722262286314207,1.5887102181632051,0.004642369691282511,0.9715985059738159,1.2851918914759177,1.8261611326484115,0.19951608777046204,0.9841163158416748,1.1851918698693964,1.8355033602821869,0.15596182644367218,0.9716229438781738,1.3587387610979196,1.3112299101665668,-0.340494841337204,0.9710419774055481,1.0935338380088524,1.3321696541163268,-0.3666535019874573,0.995799720287323,2.5033950805664062e-06,1.2214740444101877,1.3000749674263687,178.32956751530574,178.41164726235263,1.0,-0.0035448888400522,-0.00033919035017022285,-0.09435287664295411,0.0003037681593501388,100.37582613246731,0.8926218929287255,10,0.3333333333333333
1.2178012775479743,0.8256007606413606,-0.44310513138771057,0.999984860420227,1.3098053837670125,0.9654444357073997,-0.22406037151813507,0.9999974966049194,1.125181065652555,0.9668152636364867,-0.23274342715740204,0.9999970197677612,1.2772289761498838,1.2950103505177564,0.002684144303202629,0.9999874830245972,1.1647676555753244,1.3045200957311278,-0.0028122253715991974,0.9999898076057434,1.2767792103650923,1.571980815753871,0.014736821874976158,0.9865092635154724,1.1724255553376095,1.5900232933455114,0.00640467694029212,0.9728648662567139,1.2851512195234356,1.8256007606413605,0.19583925604820251,0.984460711479187,1.184493262442296,1.8361141618759338,0.15955521166324615,0.9736790657043457,1.3587479085098912,1.3109631382159204,-0.3419122099876404,0.973487377166748,1.0934642248258615,1.3319958453911753,-0.36539673805236816,0.9960543513298035,0.0005673468112945557,1.220998315862604,1.299765223124442,178.01630832613242,178.72904668654547,1.0,-0.0018968330339150415,-0.0005455755895556492,0.012345849239578698,-0.001547134388401877,100.47858503138504,0.8925239350200115,11,0.36666666666666664
1.21615144964125,0.8223959132052191,-0.44078293442726135,0.9999858140945435,1.3082183591579923,0.9630516026573599,-0.2219996452331543,0.9999974966049194,1.1237597143085771,0.9649119817660415,-0.2388949692249298,0.9999969601631165,1.2755899726169968,1.2928672837782003,0.003101005684584379,0.9999877214431763,1.1620363170791732,1.3023553897827111,-0.0032318918965756893,0.999989926815033,1.2745617170128707,1.5684977338043091,-0.0008899187669157982,0.9860544204711914,1.1695313240865102,1.58841793938641,0.005814331118017435,0.9725448489189148,1.2831209275897975,1.8223959132052192,0.19413350522518158,0.9844561219215393,1.1831279230638767,1.8331660674500303,0.15667331218719482,0.9750428199768066,1.3580385007023874,1.3091455290832341,-0.3331695795059204,0.9753772020339966,1.0913252310932935,1.3297447198370147,-0.37901198863983154,0.9961889386177063,0.0007711648941040039,1.218813144848085,1.2976113367804556,177.85547780997962,178.32113081172756,1.0,-0.002116616341836087,-0.0009251362248329,-0.0017173771367025733,-0.00293293164270064,100.4261590084607,0.8960295432213959,12,0.4
1.2173076943800174,0.8207490747828349,-0.44675126671791077,0.999987006187439,1.3087865008633444,0.9621896441052451,-0.2205801010131836,0.9999975562095642,1.1234816398767071,0.9637268893270368,-0.24247238039970398,0.9999969601631165,1.2758833610338725,1.2915946135352725,0.003963881637901068,0.9999879598617554,1.1616098185988855,1.301130735170034,-0.0040881154127418995,0.9999901652336121,1.275242255493202,1.5673342215226544,-5.342742588254623e-05,0.9860357046127319,1.1689496293204489,1.5871534633815874,0.0030951504595577717,0.9731653332710266,1.2828694286265405,1.8207490747828348,0.17949101328849792,0.9848198294639587,1.1822869090975707,1.830753884511202,0.15538351237773895,0.9765492677688599,1.3573980195700988,1.3082669496228547,-0.33749112486839294,0.9772555232048035,1.0912520775404364,1.3265414748372901,-0.39849361777305603,0.9963684678077698,0.0006377100944519043,1.218746589816379,1.2963626743526533,178.14284155171174,178.33612883135714,1.0,0.006837399215570036,-0.0019622397188177,0.0702452405077274,-0.008143258051655757,100.47443691278738,0.8981137345467539,13,0.43333333333333335
1.222198370882425,0.8215283694199633,-0.4478563368320465,0.9999879598617554,1.3099847321880618,0.9626531138035896,-0.2205308973789215,0.9999975562095642,1.1247636435632464,0.963240613745199,-0.23996825516223907,0.9999969005584717,1.2778598760536821,1.291133853327675,0.003992459736764431,0.9999880790710449,1.1626393875052596,1.300635470120328,-0.004117044620215893,0.9999902248382568,1.276165289066141,1.5675056117922557,-0.005394365638494492,0.9864909648895264,1.169711880686128,1.5874341847351345,0.0015947595238685608,0.9741899371147156,1.2831955972359117,1.8215283694199633,0.153920978307724,0.98548823595047,1.1830124481715456,1.8314518363235943,0.14583899080753326,0.9781362414360046,1.3579169659562649,1.3077270076418113,-0.32577869296073914,0.979047417640686,1.091238848730084,1.325469721474722,-0.36566630005836487,0.9964572787284851,0.00024363398551940918,1.2202496317794709,1.2958846617240014,178.0633849931031,178.29272530603717,1.0,0.008341496990397589,-0.007141462993871698,0.011579995413078883,-0.03993218257661079,100.29987595342084,0.8937318872609457,14,0.4666666666666667
1.2231753434864334,0.8210382126995981,-0.4588044285774231,0.9999889731407166,1.311262952803041,0.9623588379196897,-0.23212465643882751,0.999997615814209,1.1253145575548194,0.9621278091794557,-0.2463466376066208,0.9999969005584717,1.2781909300242968,1.288541247466119,0.0036410882603377104,0.9999883770942688,1.1626370493951803,1.297767167568967,-0.0037673781625926495,0.9999904036521912,1.2761023325138614,1.5668231235056944,-0.013186280615627766,0.9866397976875305,1.1693044124046916,1.5865348461884496,0.0019864554051309824,0.9744365811347961,1.2830130802783206,1.821038212699598,0.14589303731918335,0.9858441948890686,1.182677858725638,1.8303016318703573,0.1480736881494522,0.9792816638946533,1.3604449199754087,1.307182307106447,-0.35831397771835327,0.9807578921318054,1.0918238670216962,1.3212721867689208,-0.39504462480545044,0.996569037437439,9.584426879882812e-05,1.2204139897097386,1.293154207517543,178.01280220464622,178.18247578970568,1.0,0.004997612047700282,-0.01729974884681305,-0.025997179207232938,-0.07907502030234775,100.35436288938817,0.8863463078494954,15,0.5
1.2233977354020056,0.8196975606996879,-0.4645031988620758,0.9999898672103882,1.3129933646425995,0.9616628261060879,-0.24081547558307648,0.999997615814209,1.1251698534633885,0.96060871174376,-0.2539856433868408,0.9999969005584717,1.2784409530141354,1.2855774902904475,0.0034403062891215086,0.9999886751174927,1.16210161332257,1.2941073104930643,-0.0035679261200129986,0.9999905824661255,1.2760122907509415,1.5645378557339873,-0.018879415467381477,0.985390305519104,1.1689884938231123,1.5849897560326422,0.0013546176487579942,0.9717622995376587,1.2816391151727433,1.819697560699688,0.135171040892601,0.9850010871887207,1.181947819580413,1.8286267743181708,0.14551523327827454,0.9792477488517761,1.362430861654686,1.3059220051559364,-0.38899245858192444,0.9819298982620239,1.0921586668586587,1.3121108803408998,-0.449862003326416,0.9964791536331177,0.00043764710426330566,1.2202712831683526,1.289842400391756,178.23789735687282,178.3115138859451,1.0,0.005927802504220015,-0.017089672029761086,0.00690682129135095,0.0014544110341012343,100.28212763245992,0.879705129786787,16,0.5333333333333333
1.2281834367904625,0.8188606358389175,-0.4446602761745453,0.999990701675415,1.3138834648087314,0.9604992633096643,-0.22824203968048096,0.9999976754188538,1.124869711462055,0.9591760548196624,-0.24509206414222717,0.9999969601631165,1.2805816893975785,1.2850120916229681,0.004634919110685587,0.9999890327453613,1.1629088344364256,1.2935510267924248,-0.00475732609629631,0.9999908804893494,1.2776654934390255,1.5637094179052164,-0.0015799751272425056,0.985899806022644,1.1710761060130936,1.5840890672427692,0.0015685732942074537,0.9732527732849121,1.2819097768691072,1.8188606358389177,0.17326720058918,0.985598623752594,1.1815690015343678,1.8278498723034209,0.15414419770240784,0.9806385040283203,1.3641094226406985,1.3035725983482496,-0.3544638752937317,0.9834132790565491,1.0926151950857177,1.3085956533297076,-0.4036180078983307,0.9966343641281128,0.000549614429473877,1.2217452619170022,1.2892815592076965,178.44750580649932,179.1453841362614,1.0,0.01522960684835328,0.00010398593580667957,0.0702333840647625,0.12972660415692563,100.00962562536148,0.8807408244499952,17,0.5666666666666667
1.2322074870581765,0.8168585527671072,-0.44649243354797363,0.9999914765357971,1.3155427490570617,0.9587027444397289,-0.2275184839963913,0.9999977350234985,1.1260552636841688,0.9576351116202947,-0.2406540811061859,0.9999969601631165,1.2823393683726603,1.2831741282616809,0.005194259807467461,0.9999892115592957,1.1648117680938146,1.2917960156373098,-0.005316821858286858,0.9999910593032837,1.2788954285180776,1.5616037392657223,-0.003581805620342493,0.9860492944717407,1.1740032984838396,1.580671088195141,-0.0003141511988360435,0.9741039872169495,1.2804970210536475,1.8168585527671073,0.1687014251947403,0.9857281446456909,1.1807735952764484,1.8261855077228186,0.15006354451179504,0.9816882610321045,1.3655115476670467,1.3018605687301525,-0.3581961989402771,0.9846776723861694,1.0917972910644365,1.305035665743224,-0.40506020188331604,0.9967747330665588,0.00044405460357666016,1.2235755682332374,1.2874850719494955,178.93183878929403,179.7571432888711,1.0,0.02782712332473776,-0.0004976406411284346,0.10107686035336487,-0.004818225480653381,100.03851181494457,0.8813293213323864,18,0.6
1.2315191362297966,0.8151564982142001,-0.4484044015407562,0.9999919533729553,1.3178466166447007,0.9569477962247996,-0.22432629764080048,0.9999977350234985,1.1291514568820056,0.9568444925844022,-0.2391914427280426,0.9999969601631165,1.2844199067475246,1.2833908793552364,0.005363440606743097,0.9999894499778748,1.1684405588848648,1.2924406505194175,-0.005486621521413326,0.999991238117218,1.2798165590795882,1.5630228807183004,0.006845973432064056,0.9858619570732117,1.178502390731165,1.5789456728803961,0.00010770760854938999,0.97477126121521,1.27982099762824,1.8151564982142,0.20573623478412628,0.9856406450271606,1.1807503724443444,1.8245202609007534,0.16995640099048615,0.9825251698493958,1.366986791022391,1.3009811340205448,-0.35545358061790466,0.9856318831443787,1.0911803890602663,1.308064055415996,-0.3934094309806824,0.9968511462211609,4.3004751205444336e-05,1.2264302328161947,1.287915764937327,179.05586408003293,178.51311279863438,1.0,0.029773371559426196,0.011897779536071827,0.014884046272086586,0.09360128121341048,100.30822563454802,0.8887986495206898,19,0.6333333333333333
1.230383815073587,0.8148227733665079,-0.4669887125492096,0.9999925494194031,1.321857080583199,0.9567332091194822,-0.23333807289600372,0.9999977350234985,1.1342975534929598,0.9576521434763033,-0.24459156394004822,0.9999970197677612,1.287113230493045,1.2834303351411864,0.004912190604954958,0.9999896287918091,1.1723382004834462,1.2928646228883227,-0.005037043243646622,0.9999914169311523,1.2813730044601028,1.5638499040480212,-0.0032625519670546055,0.9852808117866516,1.1818413474649851,1.5786662352824123,0.0003406739269848913,0.9744659066200256,1.2796539572943904,1.8148227733665079,0.19127820432186127,0.9848419427871704,1.1813494548882542,1.8241997977170514,0.17844359576702118,0.9827812910079956,1.3689854286129446,1.3015537706872968,-0.37300702929496765,0.9862216711044312,1.0912883763178634,1.3078073630706923,-0.41330987215042114,0.9969426393508911,0.0003826022148132324,1.2297257154882457,1.2881474790147547,179.21975476194646,177.98078416747524,1.0,0.026113778383713104,0.0031303684847043206,-0.027500128011139748,-0.06594699496850255,100.76955983258668,0.8907692115278936,20,0.6666666666666666
1.2315595656997962,0.8127714930395823,-0.44706958532333374,0.9999927282333374,1.3246250595055686,0.9548130191677643,-0.22258928418159485,0.9999976754188538,1.1387224417181476,0.9566295388145046,-0.22857065498828888,0.9999969601631165,1.2888343457919536,1.284297551151909,0.00475247111171484,0.9999897480010986,1.176183958828796,1.2929863294133899,-0.0048808567225933075,0.9999915361404419,1.2819322003311004,1.5643403022117839,-0.0033175155986100435,0.9851895570755005,1.1833716738192515,1.5780755244891245,0.0016336000990122557,0.9749513864517212,1.2787477497278366,1.8127714930395824,0.20121972262859344,0.9845786094665527,1.1807809561588567,1.8221033389899075,0.1882760226726532,0.9832760691642761,1.3692991734785558,1.301235384939003,-0.3614484369754791,0.9867979884147644,1.0911913454557622,1.306052887133684,-0.3962726593017578,0.9970152378082275,0.0007571578025817871,1.2325091523103748,1.2886419402826494,179.3225215475103,177.94749854311803,1.0,0.031043194410554982,0.014411861419282091,0.037080019361355535,0.0843905149205764,100.61004402032077,0.8998995774405674,21,0.7
1.23884901024692,0.812403462196713,-0.4300631880760193,0.9999927878379822,1.3284679745946208,0.9544557814594661,-0.21717055141925812,0.9999976754188538,1.1419102044644491,0.9578518819237626,-0.21844279766082764,0.9999969005584717,1.2918706975513292,1.2867551367029266,0.003880774136632681,0.9999896883964539,1.1791179746553841,1.2937149015586948,-0.00401173485442996,0.9999914169311523,1.2840087753743363,1.5664702294160333,-0.014728640206158161,0.9857140183448792,1.1849773506327361,1.5793447721448703,0.002895262325182557,0.9758660197257996,1.2795195776359631,1.812403462196713,0.1911751925945282,0.9846948981285095,1.180531759547766,1.8191503408002936,0.1972600370645523,0.983716607093811,1.3695574518016018,1.3052596558176888,-0.33344823122024536,0.9876753687858582,1.0925360350014166,1.304801571498005,-0.35211890935897827,0.9971398115158081,0.0014158189296722412,1.2354943361033566,1.2902350191308107,179.43576282680263,177.76276073165116,1.0,0.02334860458891855,0.013313577399549683,-0.05584432109982804,-0.007957415909367764,99.81700649417976,0.9091859273105677,22,0.7333333333333333
1.2393080599607398,0.8125199550518934,-0.39741626381874084,0.9999929070472717,1.331138545717998,0.9545224992897324,-0.18702660501003265,0.999997615814209,1.1444359703241838,0.9576069980409913,-0.1986265629529953,0.9999966621398926,1.2944621433452252,1.2888208957507339,0.0046523879282176495,0.9999886155128479,1.182063137533971,1.2951303024674703,-0.004782851319760084,0.9999904036521912,1.2854159008144734,1.5669160717505384,-0.014346125535666943,0.9844403862953186,1.1870135632155312,1.5786621175225124,-0.020319947972893715,0.975243866443634,1.279627237843343,1.8125199550518936,0.18730421364307404,0.9836185574531555,1.180370577377845,1.8139380595189225,0.17193131148815155,0.9828833937644958,1.370888937598399,1.3072250835484869,-0.3315635323524475,0.9884353280067444,1.0956645009045813,1.2925078529786842,-0.3779163360595703,0.997223436832428,0.0012858211994171143,1.238262640439598,1.2919755991091022,179.48702524651182,177.38241612033636,1.0,0.020800009820012018,0.012791724399388402,-0.019796599607873902,-0.004058331923173317,99.47383978044647,0.9196953522160287,23,0.7666666666666667
1.2440933760045703,0.8141311453640083,-0.4032394289970398,0.999992847442627,1.3353172913414975,0.9545239893915453,-0.19202612340450287,0.9999975562095642,1.1481575842737473,0.9595687140403731,-0.19879943132400513,0.9999964237213135,1.2979460318822358,1.2952570305509143,0.004881258122622967,0.9999883770942688,1.1857926440607287,1.2993976141362595,-0.005012333858758211,0.9999901056289673,1.2884311702112343,1.5766217470744344,-0.012450983747839928,0.9832572340965271,1.1900847176523532,1.581607093370919,-0.027884403243660927,0.9746382832527161,1.2810638136788957,1.8168728637849854,0.20258963108062744,0.9823806285858154,1.1826559772262173,1.8141311453640083,0.17176100611686707,0.9820685386657715,1.3742339637442513,1.3114850124812725,-0.3505200445652008,0.9888551831245422,1.0985194305093138,1.2961043718153524,-0.37604090571403503,0.9971191883087158,0.0020990073680877686,1.2418693379714822,1.2973273223435868,179.81961469097848,177.29878746237944,1.0,0.009555988922104545,0.021942742194301798,-0.08503619107363201,0.06878420276933452,98.37346469555803,0.9323283186606712,24,0.8
1.2525686967650638,0.8198805007781482,-0.411860853433609,0.9999927878379822,1.347181597771717,0.9614783099927326,-0.19777809083461761,0.9999974966049194,1.158339137055186,0.9667451425047474,-0.2064102590084076,0.9999963045120239,1.3073596769664522,1.303884799161899,0.004835085012018681,0.9999880194664001,1.1949677729384984,1.3081024187566674,-0.004968373570591211,0.9999896883964539,1.297108686487825,1.5908572956497398,-0.014707431197166443,0.983409583568573,1.2009057411632835,1.5902528624763819,-0.01888609118759632,0.9748724699020386,1.2890211658334738,1.829114584001861,0.19572246074676514,0.9822462201118469,1.1925602799862527,1.8198805007781482,0.18713214993476868,0.981859564781189,1.3828934883755142,1.3232122385386649,-0.33108988404273987,0.9894274473190308,1.1073458028382543,1.309982492927007,-0.34664151072502136,0.997232973575592,0.0021767020225524902,1.2511637249524754,1.3059936089592832,179.8983273351477,176.71295516431005,1.0,0.006830793752193431,-0.0008144851831000615,-0.021262294348780856,-0.17457268933205555,98.7827789781791,0.93734220888286,25,0.8333333333333334
1.258146771885896,0.824634955874814,-0.4173180162906647,0.9999926686286926,1.3551564789414852,0.9664965579479049,-0.2001281976699829,0.9999973773956299,1.1656827627052553,0.9714831925733125,-0.20898187160491943,0.9999961853027344,1.3143243015549557,1.3094676950989377,0.004847041796892881,0.9999874234199524,1.201862684313119,1.3127260054382923,-0.004981233738362789,0.9999892115592957,1.3038132444882362,1.5972993547632794,-0.0188237726688385,0.9828567504882812,1.2093418032016774,1.5895485168421974,-0.024413088336586952,0.9745591282844543,1.294691569198058,1.8373170125162435,0.1762065440416336,0.9816786050796509,1.1998710439291658,1.824634955874814,0.16801755130290985,0.9814596176147461,1.389440886839925,1.330078789826741,-0.32120630145072937,0.9896549582481384,1.1162918342092305,1.3180549147714247,-0.32210463285446167,0.997239887714386,0.0020515620708465576,1.2580934929340375,1.311096850268615,179.91497006942976,176.14538739663357,1.0,0.009598925844471723,-0.006541957440118724,0.021279388825474834,-0.04449998842750777,98.4488961061253,0.9355144688935269,26,0.8666666666666667
1.2638622874740102,0.8285019245076043,-0.4232640266418457,0.999992311000824,1.3622712093356757,0.9703997478575203,-0.2024424970149994,0.9999972581863403,1.1721797363696387,0.9759052855971322,-0.20963895320892334,0.9999960064888,1.3207445480410818,1.3151518287352335,0.004890510346740484,0.9999874234199524,1.2085124721672122,1.317225993176696,-0.005025752820074558,0.9999891519546509,1.3105520186862554,1.6039315247743013,-0.015718474984169006,0.9832887053489685,1.2159628574507892,1.5939645904573154,-0.023080825805664062,0.9754756093025208,1.3003184455890604,1.8457490290134868,0.1856246143579483,0.9822327494621277,1.210632774432543,1.8285019245076042,0.1715821921825409,0.9819658994674683,1.395417669927825,1.3359166148343875,-0.31194788217544556,0.9898446798324585,1.1270906383371695,1.331885158735582,-0.30753663182258606,0.9971914887428284,0.002254664897918701,1.264628510104147,1.3161889109559648,179.59814794351593,177.15597282730153,1.0,0.005634129960785519,-0.007159873436966307,-0.030404079573809476,-0.004457844021273424,97.92716224938818,0.9360257582528699,27,0.9
1.2652513519450606,0.8278534193084665,-0.4578956961631775,0.9999923706054688,1.3623263646332888,0.9685248348349614,-0.23250027000904083,0.9999972581863403,1.1716176076987415,0.9742609606882275,-0.2344263345003128,0.9999958872795105,1.318996083840729,1.3135426535995243,0.003572072135284543,0.999987781047821,1.207013075526178,1.3134126819475918,-0.0037031802348792553,0.99998939037323,1.309096140205393,1.6015580896958503,-0.014423653483390808,0.9839034080505371,1.2158934540664335,1.5912739010089958,-0.017969246953725815,0.9763281345367432,1.2988283797027314,1.8436669277245672,0.18285104632377625,0.9830999374389648,1.2167560791187166,1.8278534193084666,0.1713164746761322,0.9829270243644714,1.3934808894422457,1.3345823599391895,-0.3154370188713074,0.9901483654975891,1.1284833020592075,1.3364788702294117,-0.3273530602455139,0.9969974160194397,0.002351731061935425,1.2630045796834537,1.313477667773558,179.54020960852102,178.37837666326024,1.0,-0.001607971302982761,-0.00958922294125027,-0.056092561936199076,-0.018894726995942145,97.09171588324712,0.929770747539525,28,0.9333333333333333
1.2655223323334495,0.8287093282940451,-0.4654316306114197,0.9999926090240479,1.3639074067139694,0.968772724149502,-0.23911964893341064,0.9999973177909851,1.1732188683923417,0.974420255844703,-0.24121828377246857,0.9999958872795105,1.319841215885828,1.3138068669512295,0.0034528523683547974,0.9999883770942688,1.2079490215596078,1.3133165106612865,-0.0035797376185655594,0.9999898672103882,1.310639037348586,1.6017238088555699,-0.011499343439936638,0.9846988916397095,1.219246411670247,1.5913856091626244,-0.023105941712856293,0.9776750802993774,1.2991230809556857,1.8439942806308174,0.1932315081357956,0.9840154647827148,1.2229517863576393,1.828709328294045,0.15924538671970367,0.9840521812438965,1.3932152110789693,1.3356354291144685,-0.31912508606910706,0.990731954574585,1.1317988855737164,1.3406913921894184,-0.3285483717918396,0.9968998432159424,0.0023148059844970703,1.2638951187227179,1.313561688806258,179.10920133069976,178.56796269694092,1.0,0.004180377519909389,-0.001919997338593982,0.043083297259842536,0.05709731759793563,97.0270636486463,0.9274191887683944,29,0.9666666666666667
1.2475463245920693,0.8166079958957927,-0.4586406350135803,0.9999929070472717,1.3444099163036913,0.9534899734243978,-0.23334476351737976,0.9999974370002747,1.1566589115682329,0.9602047374647205,-0.23493099212646484,0.9999959468841553,1.30035087819862,1.2952944202699692,0.003307397710159421,0.999988853931427,1.1901266873071226,1.294136386076362,-0.0034316484816372395,0.9999902844429016,1.2919951477493137,1.5784394410883602,0.00010808192746480927,0.9852685332298279,1.2050448503590823,1.5685047945710968,-0.021109564229846,0.978987991809845,1.2801994209112515,1.8178947164779482,0.20179268717765808,0.9846682548522949,1.207609263413729,1.8166079958957926,0.13851435482501984,0.9851619601249695,1.3715873924598088,1.3159626293581228,-0.32152920961380005,0.9912775158882141,1.1151025944351018,1.3213942553994902,-0.32048994302749634,0.9968689680099487,0.0027928948402404785,1.2452387827528713,1.2947154031731656,178.87018363144279,177.47992823029884,1.0,-0.0020093812331119904,0.002117853973985494,-0.047460340850028454,0.03105142931708939,96.74306175670432,0.9149786042068255,30,1.0
1.2455417512632756,0.814588059038992,-0.4628683924674988,0.9999932646751404,1.3413374799818305,0.9504517199811442,-0.23540285229682922,0.9999975562095642,1.154206790863602,0.9578752310063712,-0.23289911448955536,0.9999960064888,1.296889334590861,1.2923702406254567,0.0027924696914851665,0.9999892115592957,1.1869124682863232,1.2903461405540866,-0.002912328112870455,0.9999906420707703,1.2891933513051614,1.5749268338358797,0.0038294591940939426,0.9856740236282349,1.2056933264667273,1.5659142348529334,-0.01864452287554741,0.9801678657531738,1.2770957830771996,1.814588059038992,0.20218932628631592,0.9849817752838135,1.207470257315455,1.8288348129773133,0.12493328750133514,0.9861787557601929,1.3644310050845525,1.3120864534754688,-0.31253841519355774,0.9917125105857849,1.1122527101590625,1.3186030578792696,-0.29235416650772095,0.9966820478439331,0.0030952095985412598,1.241900901438592,1.2913581905897717,178.67046578494626,176.4883598867661,1.0,-0.0023997099430767797,-0.0016214852210684164,-0.003047416484757125,-0.02879370268365717,96.3523069241273,0.8989890365427101,31,1.0333333333333334
1.2443027894363186,0.8138049990035866,-0.464426189661026,0.9999935626983643,1.3403650393199513,0.9475535962241537,-0.2359878569841385,0.999997615814209,1.1540123829446298,0.9568313439457015,-0.23131442070007324,0.9999961256980896,1.2946554041129346,1.292164334883159,0.002891846466809511,0.9999895095825195,1.1854871940348575,1.2889740983208346,-0.0030046289321035147,0.9999909996986389,1.2889322568117585,1.5742910631034932,0.01615961827337742,0.98600834608078,1.2064323680202063,1.5647918981129265,-0.026869837194681168,0.981622576713562,1.2755102718405715,1.8138049990035865,0.21896588802337646,0.9851884841918945,1.2056902167482992,1.8459561288207242,0.08426013588905334,0.987257719039917,1.3568941490504511,1.310650142079056,-0.3303215503692627,0.9921732544898987,1.1108040274380337,1.3169379355470823,-0.2843804359436035,0.9966939091682434,0.003872424364089966,1.240071299073896,1.2905692166019969,177.95471652764127,175.50614683674598,1.0,-0.004037941818438094,0.004518090215730221,-0.012844595636277475,0.04804957827529348,95.88179941256404,0.8840545454710911,32,1.0666666666666667
1.243296697337004,0.8132877203047909,-0.46956220269203186,0.9999939203262329,1.339661926964921,0.9470564896521507,-0.24287620186805725,0.9999977350234985,1.154256954345583,0.9568027065252606,-0.22648489475250244,0.9999962449073792,1.2930979609720314,1.2913001283044827,0.0005009634187445045,0.9999897480010986,1.1846205883738157,1.2878715870508095,-0.0005986623000353575,0.9999912977218628,1.289586642632768,1.5732624304779521,0.010033131577074528,0.9862408638000488,1.2068816301947973,1.565305126327823,-0.03564535453915596,0.9828978180885315,1.2747357198823424,1.813287720304791,0.20573417842388153,0.9852374196052551,1.205558909454713,1.8585470908849584,0.04988834261894226,0.988240659236908,1.351116420262118,1.3090385441508712,-0.3510121703147888,0.9926329255104065,1.1115733783183979,1.3173880404237617,-0.280273973941803,0.99668288230896,0.004070371389389038,1.2388592746729234,1.289585857677646,177.17296616549953,175.1540205178484,1.0,-0.0037024893299556156,-0.001694134093949157,0.002586547411899324,-0.048223642276855425,95.8930437440319,0.8718431106407446,33,1.1
1.243071496123388,0.8127018819883118,-0.4821268618106842,0.9999942183494568,1.3393706179316114,0.9467691783742377,-0.25410953164100647,0.9999978542327881,1.1540025486202132,0.9575606153356226,-0.233552485704422,0.9999963641166687,1.2924380827464774,1.2908319797548555,0.0003331162442918867,0.9999899864196777,1.1842165318462317,1.2872876241967255,-0.0004260962305124849,0.9999915957450867,1.2901350078161444,1.572678585861771,0.013116332702338696,0.9860844016075134,1.2066894182467254,1.566115207535344,-0.0360572412610054,0.9838985204696655,1.274333933452092,1.8127018819883118,0.211654394865036,0.984939455986023,1.2051654965932197,1.8595729238457928,0.05882273241877556,0.9890654683113098,1.3490516080968877,1.308296370160156,-0.3813287019729614,0.9930707216262817,1.1125586139489552,1.317439472053387,-0.29644954204559326,0.9966431856155396,0.004508256912231445,1.2383273072963545,1.2890598019757906,176.70174717106116,175.09451397734315,1.0,-0.001249609486992176,-0.0010805747039128893,0.019494719251003247,0.004874529971007143,95.8917796575742,0.8707683305596953,34,1.1333333333333333
1.2419344273022292,0.8117345531702628,-0.4742503762245178,0.9999943971633911,1.3382308149438387,0.9461877446676625,-0.25076472759246826,0.9999979138374329,1.1529008632773632,0.9578603688835802,-0.22714748978614807,0.9999964237213135,1.290373732828312,1.2899340714673535,-0.0009216328035108745,0.9999899864196777,1.183186673812827,1.286486635983987,0.0008301739580929279,0.9999916553497314,1.2902247554864827,1.571339582160612,0.010692334733903408,0.9856103658676147,1.2061999665121745,1.566613792778505,-0.04469970613718033,0.9846437573432922,1.2733034955715594,1.8117345531702629,0.1963774412870407,0.9843341112136841,1.203843843518477,1.8649548195916468,0.035344697535037994,0.9897195100784302,1.3462650418109543,1.3072640567784726,-0.3738078474998474,0.9933760166168213,1.111351795451401,1.3166276747580847,-0.2891853451728821,0.9965336322784424,0.004880279302597046,1.2367802033205695,1.2882103537256702,176.00395760894835,174.85104609989375,1.0,-0.00444854913617266,0.0014292117033343232,-0.025480523358002324,0.01997810951939285,96.0837341583179,0.86615040242052,35,1.1666666666666667
1.2413498153655824,0.8114824273623911,-0.45225200057029724,0.9999947547912598,1.3378888579401278,0.9482019636810708,-0.23585212230682373,0.9999980330467224,1.1523807732235596,0.9609017390614716,-0.1994999200105667,0.9999964833259583,1.2903470006909674,1.2920507264206247,-0.0025035985745489597,0.9999898672103882,1.183136336037704,1.2883368751019404,0.0024133005645126104,0.9999917149543762,1.2907434678578353,1.570611094567894,0.008165745995938778,0.9846644997596741,1.2056513815177752,1.566390329621406,-0.0751495212316513,0.9854016900062561,1.2729935102372112,1.811482427362391,0.18271782994270325,0.9835792183876038,1.2042329639362377,1.871100856929151,-0.005265910644084215,0.9902974963188171,1.3369165015492075,1.3077242905756605,-0.37589031457901,0.9938400387763977,1.1105534158632042,1.317039131323621,-0.27019768953323364,0.9965882301330566,0.00531160831451416,1.2367416683643357,1.2901938007612825,175.70390885739454,175.10393503590927,1.0,0.0030188129782836868,0.018437052934441114,0.056420715161194075,0.12853610224005896,95.88805396822782,0.868681890330335,36,1.2
1.2391657236361093,0.8109926777246746,-0.4563675820827484,0.9999951124191284,1.3368968031531154,0.9491201455468057,-0.23302391171455383,0.999998152256012,1.151042909546047,0.9631316177262826,-0.20768165588378906,0.999996542930603,1.2894946787582517,1.2946617099969358,0.00013592332834377885,0.9999899864196777,1.1823729589895469,1.291989677331511,-0.0002204071934102103,0.9999918937683105,1.290289124587778,1.5697635740320468,0.017362404614686966,0.9837532043457031,1.2060634817478635,1.5656708534588553,-0.08934954553842545,0.9862372875213623,1.2722114228577504,1.8109926777246748,0.20561864972114563,0.982976496219635,1.2039003330818823,1.8723320709506497,-0.012683175504207611,0.9908959865570068,1.3315792288449066,1.306911244321076,-0.37469425797462463,0.9941489100456238,1.1061739535850224,1.317168397377873,-0.2814388871192932,0.9965372681617737,0.005863785743713379,1.2359338188738993,1.2933256936642232,175.5488072478523,174.64851689879802,1.0,-0.0004206997829494597,0.0297617365422111,-0.026120473669030683,0.08613351432503845,96.38231705441366,0.8796386358739,37,1.2333333333333334
1.2377513609282678,0.8103886432818671,-0.45180743932724,0.9999953508377075,1.3349740239795511,0.9485453328917294,-0.22666725516319275,0.9999982118606567,1.149044258083267,0.9634661195863364,-0.21019580960273743,0.9999966025352478,1.2885382846873918,1.297571714269326,0.004239313304424286,0.9999902248382568,1.180599063209384,1.2953355604254713,-0.004319791216403246,0.9999921321868896,1.289619142194249,1.569054824696555,0.038057051599025726,0.9824204444885254,1.205504972101095,1.56528790676444,-0.0985146090388298,0.9871048927307129,1.2715549873091045,1.8103886432818672,0.24596509337425232,0.9817919731140137,1.2033448227224315,1.8767509315172726,-0.024591971188783646,0.9914700388908386,1.325919244828743,1.3064441681019507,-0.3771344721317291,0.9945102334022522,1.1016182546215056,1.3171435757083467,-0.29230839014053345,0.996405303478241,0.00624847412109375,1.2345686739483879,1.2964536373473987,175.49120698941366,174.33142328941784,1.0,-0.004352125724042041,0.031764136369489236,-0.031338454855808315,0.016117757963024712,96.3915196346406,0.8884156542480159,38,1.2666666666666666
1.233733497979488,0.8080858718829161,-0.461649090051651,0.9999950528144836,1.3323558622922989,0.9477525664834193,-0.234493687748909,0.9999982118606567,1.1466524282286983,0.9637096106399912,-0.21936257183551788,0.9999964833259583,1.2844784038392607,1.2997736364147483,0.006325226277112961,0.9999903440475464,1.177522658215153,1.2964228554507835,-0.0063983662985265255,0.999992311000824,1.288002616256114,1.5676854271876122,0.04942464083433151,0.9797747135162354,1.2038504057052124,1.5673905937177015,-0.10068894922733307,0.9877570867538452,1.2704749512739357,1.8080858718829163,0.26616862416267395,0.9802518486976624,1.2022531304554942,1.8785999731749876,-0.021920833736658096,0.9919371604919434,1.3208104451793483,1.3050340114005592,-0.39542120695114136,0.9945957064628601,1.0968886894901038,1.3172303650895565,-0.3103804886341095,0.996063232421875,0.00669059157371521,1.2310005310272067,1.298098245932766,175.07628041713,174.15638458670435,1.0,-0.01457345043019987,0.022784463855866775,-0.07224489234615256,-0.063162310897955,95.95071141466198,0.8986683715468142,39,1.3
1.2288688427163352,0.8038209725971533,-0.45097440481185913,0.9999946355819702,1.326123452468941,0.9455068815046935,-0.2303801029920578,0.9999982118606567,1.1417690872948312,0.9614974832687703,-0.22241950035095215,0.9999964237213135,1.2797452259470334,1.2987301787427667,0.01014816202223301,0.9999902844429016,1.1730581303469858,1.2952544141805749,-0.010226564481854439,0.9999923706054688,1.2846733858446837,1.5639827230051209,0.062359292060136795,0.973856508731842,1.2009363631445005,1.5651909014899144,-0.11475121974945068,0.9879751205444336,1.267567002389198,1.8038209725971532,0.2690831422805786,0.9771252274513245,1.1992859848104778,1.8755354918916674,-0.04422105848789215,0.9921552538871765,1.314172994452434,1.3020777365494414,-0.3900441527366638,0.9944534301757812,1.0869682867684458,1.3154683932410363,-0.3301430344581604,0.9956220388412476,0.006720513105392456,1.2264016781470095,1.296992296461671,174.85592335763099,173.79887830272898,1.0,-0.012544791929502253,0.014471752983566582,0.014756585585123534,-0.06111172891600246,95.61416551994577,0.9086913574076502,40,1.3333333333333333
1.2164024135003269,0.7962346536482415,-0.4505120813846588,0.9999936819076538,1.3182124257644154,0.9414824040551144,-0.2304227650165558,0.999998152256012,1.132684191527667,0.9568648391235159,-0.22054767608642578,0.9999962449073792,1.2711408652876581,1.2942168128170177,0.009274585172533989,0.9999902844429016,1.1636979729512165,1.290537586239817,-0.00936091411858797,0.9999924302101135,1.276584007877036,1.5582479243976277,0.05049385502934456,0.9717944860458374,1.1943514861804454,1.5623193363043573,-0.1011987179517746,0.9883766770362854,1.2616733391367911,1.7962346536482416,0.2632555365562439,0.9761250019073486,1.1942106835972475,1.867610830133617,-0.014761867001652718,0.992476224899292,1.307193811578181,1.2966080558849267,-0.3840036988258362,0.9941921830177307,1.0749689019771111,1.3107330829297557,-0.32942742109298706,0.9952138662338257,0.006492167711257935,1.2174194191194374,1.2923771995284172,175.23389704491845,173.53853667397001,1.0,-0.029711035149379776,0.006430012395800792,-0.13344246116616643,-0.061850772075181526,95.63983113316411,0.9193794459532806,41,1.3666666666666667
1.209457447593288,0.7933332233144651,-0.4500080645084381,0.9999929666519165,1.3114967037359728,0.9380370913098776,-0.23017771542072296,0.9999980926513672,1.1256258204692362,0.9556316472377577,-0.21684077382087708,0.9999961256980896,1.265060983599713,1.292308284716983,0.00889844261109829,0.9999903440475464,1.156627233365394,1.2889676605178815,-0.008992311544716358,0.9999924898147583,1.2716011821668443,1.557528936725469,0.0422380194067955,0.9711419343948364,1.1876920481606186,1.5657247782097194,-0.09214048087596893,0.9887332320213318,1.2600414432613656,1.7933332233144652,0.2585143744945526,0.9753131866455078,1.1928025656400072,1.8676654969404176,-0.006208569742739201,0.9927579164505005,1.3067534800166947,1.2948034562286406,-0.3847801089286804,0.9940361380577087,1.0678822059008761,1.3117834580425414,-0.32488566637039185,0.9949987530708313,0.0074350833892822266,1.2108441084825534,1.2906379726174322,175.78086198646287,174.5652690254817,1.0,-0.03837670555819536,-0.0009467201828821504,-0.06607774183195618,-0.05594839837059067,95.70280448893249,0.9207874622430352,42,1.4
1.2091839755503966,0.7926152939176553,-0.4422101378440857,0.9999927878379822,1.3105861565764338,0.9336443607463923,-0.21771445870399475,0.9999980926513672,1.122376041807827,0.9542408596249047,-0.20748285949230194,0.9999960660934448,1.2661258448603818,1.2949362003323273,0.008453229442238808,0.9999904632568359,1.1553197147678154,1.2918634669165738,-0.008549174293875694,0.9999926090240479,1.272531176339006,1.5654503522162186,0.04154057428240776,0.971074640750885,1.1860286082856266,1.5747468368650572,-0.08745431154966354,0.9891626238822937,1.2623426169118894,1.7926152939176552,0.2859646677970886,0.9731171131134033,1.1949503452214933,1.8709439247701032,0.022793885320425034,0.9929096698760986,1.3103511620641137,1.2978291905011345,-0.3508939743041992,0.9939393997192383,1.0667652192860548,1.3179652386169323,-0.3047492206096649,0.9947077631950378,0.008687764406204224,1.2107227798140985,1.2933998336244505,176.07553528037394,175.5297004726736,1.0,-0.018648021819929576,0.0032227385481838062,0.15818624152791677,0.03332647641539652,95.42705969839801,0.9296549201728445,43,1.4333333333333333
1.2015189526115801,0.7878881808711709,-0.4443039298057556,0.9999924302101135,1.303742232893049,0.9304219910455196,-0.22028854489326477,0.9999980330467224,1.1140833740503637,0.9483712048126437,-0.20913584530353546,0.9999959468841553,1.2614017848475687,1.2917312082415453,0.0074147991836071014,0.9999904036521912,1.149569261871849,1.2898581425942248,-0.007521875202655792,0.9999926090240479,1.268858658691839,1.5623834841431987,0.03921791538596153,0.9708022475242615,1.1787947256106868,1.577320213367344,-0.04357840120792389,0.9890682101249695,1.2594651322520403,1.7878881808711709,0.27315783500671387,0.9715282320976257,1.19227952935225,1.8678625148666215,0.07391784340143204,0.9929441809654236,1.3084469621053512,1.2949873957556488,-0.35704246163368225,0.993945300579071,1.0600343975781692,1.3147378402474506,-0.3095869719982147,0.9946513175964355,0.007588118314743042,1.2054855233597088,1.290794675417885,176.03650579070717,176.8521800265827,1.0,-0.019959644382995752,0.0023115772032629204,-0.010698777504650026,-0.007145761962050784,95.72424123242203,0.9357216222847997,44,1.4666666666666666
1.2001065813264158,0.7871321375829583,-0.4452975392341614,0.9999920725822449,1.3030726014795913,0.93053378776077,-0.22304007411003113,0.9999980330467224,1.1120295213356501,0.9469626084228854,-0.21333761513233185,0.9999958276748657,1.2602531306502378,1.2916575440476232,0.006957248784601688,0.9999901652336121,1.1480690240971074,1.2908945570918524,-0.007061921991407871,0.9999924898147583,1.2682673132976416,1.5624051288738823,0.0401512049138546,0.9701641201972961,1.1762349018598866,1.580613336058958,-0.03647393733263016,0.9889094829559326,1.2591172500326018,1.7871321375829583,0.2814071774482727,0.9693282246589661,1.192260306562294,1.8685632315570955,0.08636463433504105,0.9928448796272278,1.3090387590888424,1.2949432376897512,-0.36776167154312134,0.994043231010437,1.0590423893390477,1.3143235575042207,-0.3149395287036896,0.9947229623794556,0.006945878267288208,1.2041610773736726,1.2912760505697378,175.97294146960044,177.6326907939374,1.0,-0.00953649466317676,0.004453030661575248,0.08045467429047154,0.016533207186389922,96.37247635676398,0.9388359100643625,45,1.5
1.1987124531024154,0.786318336568517,-0.4576775133609772,0.9999921917915344,1.3011505385573914,0.9298497549261111,-0.22367167472839355,0.9999980926513672,1.1102052769335298,0.9457241724819683,-0.23126168549060822,0.9999958276748657,1.2581538300725583,1.2932439053858842,0.009067405946552753,0.9999903440475464,1.1459373341837606,1.292940900068268,-0.00917280837893486,0.9999926090240479,1.2674832340231523,1.568114586793073,0.04369174689054489,0.9707846641540527,1.175727919845219,1.5866726750495788,-0.03269782289862633,0.9889938235282898,1.2598787597856929,1.786318336568517,0.3099813759326935,0.9678794145584106,1.1929784865519173,1.86943828132224,0.11109268665313721,0.992861270904541,1.3115858837044996,1.2957685265075696,-0.3541276752948761,0.9942201375961304,1.0563370536358205,1.3229978144260295,-0.33722859621047974,0.9945694804191589,0.006707519292831421,1.2020455821281595,1.293092402727076,176.06009697557067,177.69989773521658,1.0,-0.021580383977345945,0.008037697740623791,-0.09188599366427903,0.02734108101794487,96.593141723225,0.946653318684889,46,1.5333333333333334
1.198881531970827,0.7860970131948025,-0.4802914559841156,0.9999926090240479,1.298997691977265,0.9289707856348439,-0.236246258020401,0.999998152256012,1.107300997013583,0.9453378752566479,-0.2492186725139618,0.9999960064888,1.2580159052027047,1.2942101066617817,0.010264531709253788,0.999990701675415,1.1440921994902513,1.2938884870997447,-0.010370183736085892,0.9999929070472717,1.2686643646442965,1.5706004706403907,0.037347570061683655,0.971979558467865,1.1735422731006109,1.5899004680637634,-0.03328368440270424,0.9892453551292419,1.2636158693417,1.7860970131948026,0.30977290868759155,0.9665738940238953,1.193985375345771,1.8718043909258952,0.11718380451202393,0.9929479956626892,1.3176592505685345,1.296863962196289,-0.35773319005966187,0.9944149255752563,1.0532029065767883,1.329069968138062,-0.34392666816711426,0.9945324659347534,0.006909757852554321,1.201054052346478,1.2940492968807633,176.45162525439176,178.46608366331873,1.0,-0.016122591037371053,-0.0012226567686489812,0.043629013229501905,-0.0738307795388069,96.24035995918842,0.9483479915073472,47,1.5666666666666667
1.1979770135761973,0.7868684181480108,-0.47149625420570374,0.999993085861206,1.299398311536513,0.930689932331274,-0.22657303512096405,0.999998152256012,1.106701071775264,0.9437510436153382,-0.24022459983825684,0.9999961853027344,1.2604992655778162,1.2972079221370978,0.0098648676648736,0.9999909996986389,1.1434606709137685,1.2990656281927555,-0.0099685899913311,0.9999932050704956,1.2727386447575841,1.5784478928168133,0.011550014838576317,0.9732859134674072,1.1712732673155242,1.6089525922697465,-0.020619597285985947,0.9892596006393433,1.270947447069245,1.7868684181480108,0.2953574061393738,0.9635584354400635,1.196816937841563,1.8793044356835786,0.14938339591026306,0.9927074313163757,1.331496240154639,1.2996902408168927,-0.29139935970306396,0.993874192237854,1.0499879011374347,1.332893906418482,-0.33434170484542847,0.9945992231369019,0.005501508712768555,1.2019799682457923,1.2981367751649266,177.0157010837767,179.73114192412248,1.0,-0.013832348097594425,0.008654961405448393,0.01774210928611527,0.07533189812530167,96.96755589068368,0.9540617620797326,48,1.6
1.202088717504265,0.7901603524204008,-0.46790188550949097,0.999993622303009,1.3044528034556375,0.9356193336176045,-0.22606666386127472,0.9999982118606567,1.1090754939152572,0.9467551297731153,-0.23683218657970428,0.9999964237213135,1.2675517956206352,1.3039773901273495,0.008573606610298157,0.9999912977218628,1.1480720474531352,1.3077730150302165,-0.008695604279637337,0.9999935030937195,1.2816666779284527,1.5898992449506004,-0.0162971131503582,0.9747985005378723,1.1755549778456962,1.625963940709898,-0.017796771600842476,0.9892417192459106,1.2834476997328113,1.7901603524204008,0.28084251284599304,0.960355818271637,1.2031849278895994,1.8915711933948558,0.15751424431800842,0.9923997521400452,1.346497151894345,1.3077552332630005,-0.3129381835460663,0.9937987923622131,1.0545562399955333,1.3398931458044454,-0.338183730840683,0.9948464035987854,0.0046659111976623535,1.2078119215368852,1.305875202578783,177.6833645332277,178.9976590919338,1.0,-0.0038597130494265356,0.006666655445282802,0.07559144010225095,-0.015305373199637816,97.54019101552257,0.961909131622627,49,1.6333333333333333
1.2158299740853376,0.7991043623844316,-0.4711333215236664,0.999994158744812,1.3216048038862835,0.9485305109328406,-0.2343631237745285,0.9999983310699463,1.1219538084861955,0.9585947340384912,-0.24074479937553406,0.9999966621398926,1.2854188866451837,1.321968100959377,0.002999184187501669,0.9999918937683105,1.1619973954816025,1.326814417571983,-0.0031461194157600403,0.9999939799308777,1.3019201310350095,1.6209745721614495,-0.10601745545864105,0.9770651459693909,1.1885705067821102,1.6521597102392158,-0.005248664878308773,0.9896920323371887,1.305247349564689,1.7991043623844316,0.21770772337913513,0.9583271741867065,1.2204214491226535,1.9170908197252572,0.19205233454704285,0.9924511313438416,1.369436130203998,1.330485751550809,-0.3245531916618347,0.9938915371894836,1.067418576710523,1.3624326741224533,-0.35006004571914673,0.995078444480896,0.004159361124038696,1.2237081410633932,1.32439125926568,177.9113085438618,177.81396582810058,1.0,-0.006118148120152906,0.0033242306579775852,-0.016487972955400144,-0.025682711131711524,97.78329651307237,0.981696337634871,50,1.6666666666666667
1.2367065854689026,0.8128245739615412,-0.47576746344566345,0.999994695186615,1.3428297028051202,0.9648569671829575,-0.2377195656299591,0.9999984502792358,1.1389863788156092,0.9711135547683976,-0.2474512755870819,0.9999969005584717,1.307905293273233,1.3448957662133558,0.0004347561043687165,0.9999924898147583,1.1819870112825022,1.35092639416179,-0.0006011872901581228,0.9999944567680359,1.3282297757137849,1.6546270040987465,-0.14137743413448334,0.979191243648529,1.206699219038009,1.6863404391525545,-0.0012200853088870645,0.9901978969573975,1.3304937738949565,1.8128245739615412,0.20342299342155457,0.9553977847099304,1.2419236119970776,1.950047220428688,0.20588116347789764,0.9925786852836609,1.4004009903194636,1.3546867146664605,-0.3280026912689209,0.9939725995063782,1.0871290089402985,1.386991753133521,-0.3608900308609009,0.9953528642654419,0.0025416016578674316,1.2449461522778675,1.3479110801875729,177.06556430612224,176.60555559562042,1.0,-8.45002288580743e-05,0.0041682881058848,0.04894068705859126,0.006267835020023472,97.99254290075378,1.0000549958158254,51,1.7
1.2496586143853194,0.8211282402732241,-0.5093206763267517,0.999995231628418,1.3533888566488697,0.9729245840697879,-0.2557957172393799,0.9999985694885254,1.1478933541500687,0.9786564239001869,-0.26345399022102356,0.9999971389770508,1.3212267635650714,1.3582818960727852,-0.002726310398429632,0.999993085861206,1.19368085908457,1.364685354251445,0.002563372254371643,0.9999949336051941,1.3424342819260113,1.668915201124981,-0.1843113750219345,0.9812015295028687,1.2186259635663164,1.7063607215239711,0.013508508913218975,0.9907826781272888,1.3452253923164874,1.821128240273224,0.17770758271217346,0.9552178978919983,1.2547895325356961,1.972231919753205,0.23529763519763947,0.9929448366165161,1.4193463285271208,1.3685935312844983,-0.32999560236930847,0.9938799738883972,1.099310144282711,1.4062794499977065,-0.38988250494003296,0.9955015182495117,0.0023051202297210693,1.2574538113248208,1.3614836251621152,177.14487766421428,176.42986669809457,1.0,-0.0006292825911634137,-0.0004529054192811836,-0.004083887153767416,-0.0350131131540635,97.64500303882127,1.0065630172602427,52,1.7333333333333334
1.2474090425714055,0.81884756651202,-0.4963309168815613,0.9999956488609314,1.349694368603497,0.9702835951402201,-0.25184351205825806,0.9999986290931702,1.144528066089244,0.9737569161902658,-0.2558056712150574,0.9999973177909851,1.3187245388830542,1.3542294177217324,-0.002600303152576089,0.9999935626983643,1.1914401613507168,1.36195423638448,0.0024202491622418165,0.9999952912330627,1.340165736372684,1.654814721574091,-0.23574917018413544,0.9830326437950134,1.2162603106360732,1.7060425831645694,0.004719050135463476,0.991253137588501,1.3441711047703584,1.8188475665120198,0.1067059189081192,0.9554256796836853,1.2528209270181763,1.9689312156852943,0.21563366055488586,0.9932156801223755,1.4189955694522582,1.3662483332843984,-0.32086870074272156,0.9935394525527954,1.097347802398177,1.4036979879158542,-0.3846147954463959,0.9955923557281494,0.0013996362686157227,1.2550823501168855,1.3580918270531064,177.31869281048466,176.20828332911108,1.0,0.0011153843687414745,-0.0050413803293041,0.013219304274773976,-0.034798789200699745,98.08459617024235,1.0032421941327594,53,1.7666666666666666
1.238994144818661,0.8115024617374738,-0.4903500974178314,0.9999959468841553,1.3404256006598314,0.962960485309763,-0.23385052382946014,0.9999986290931702,1.1344736945683163,0.9638802222701326,-0.24091441929340363,0.9999974370002747,1.3094178714914881,1.341757365092028,-0.0031628054566681385,0.9999938011169434,1.1825974164827437,1.3517759992198575,0.002966411178931594,0.9999954700469971,1.330547368693138,1.6324789852037271,-0.23887483775615692,0.984638512134552,1.207937803604987,1.690524117155323,-0.0013213488273322582,0.9912888407707214,1.3341113218775353,1.8115024617374738,0.08169765770435333,0.9545904397964478,1.2447313942169584,1.9546007555868605,0.19587796926498413,0.9932132363319397,1.410023510018781,1.3565828640043518,-0.3165774941444397,0.9933109879493713,1.0920012330716997,1.3897274670686437,-0.37354108691215515,0.9956261515617371,0.0003732740879058838,1.246007643987116,1.3467666821559428,176.9835603769038,176.346186628817,1.0,-0.0013018893483755353,-0.013275278005351426,-0.018989045033286366,-0.06517651708872524,99.19661396658366,0.9949231026375649,54,1.8
1.2338471418081562,0.8059349747794131,-0.49022096395492554,0.9999961256980896,1.3344063548451337,0.9581771637666915,-0.23326806724071503,0.9999986290931702,1.1288117826885797,0.9554577151250706,-0.24728107452392578,0.9999974966049194,1.3038205628859523,1.3305321018929843,-0.0026306132785975933,0.9999939799308777,1.177530180923241,1.342449922169874,0.0024547853972762823,0.9999955892562866,1.3241319886642609,1.619982530258417,-0.20335598289966583,0.986020565032959,1.2016957551218306,1.6806657568208463,-0.004988922271877527,0.9910480380058289,1.327802125787403,1.8059349747794131,0.1009693369269371,0.9547702670097351,1.2395737897729782,1.945644217922013,0.19240988790988922,0.9931265711784363,1.4043641309417665,1.3509012825082969,-0.3124558925628662,0.9928799867630005,1.0917300337142033,1.3780970848575005,-0.3713884651660919,0.9956462383270264,0.0011085867881774902,1.2406753719045966,1.336491012031429,177.11669668783867,175.9516658557025,1.0,0.0014541309173197832,-0.03542301275835307,0.022548920291957507,-0.18206660668519592,100.08676435594077,0.9807516649803145,55,1.8333333333333333
1.2237333967771324,0.7975895224886991,-0.4924132227897644,0.9999963641166687,1.3235155021441296,0.9503571615089565,-0.23385438323020935,0.9999986290931702,1.1181195635143997,0.9482643140235941,-0.25265294313430786,0.9999975562095642,1.2937528651258334,1.3183234589249757,-0.002538624219596386,0.999994158744812,1.1682668817566195,1.331012992438969,0.00233828229829669,0.9999957084655762,1.3136944310657979,1.606659422854855,-0.1887054741382599,0.9872382283210754,1.191685767505556,1.6662312642530943,-0.005238621030002832,0.9907302856445312,1.317114883567089,1.797589522488699,0.12005940824747086,0.954649806022644,1.2298609942494385,1.929838653521421,0.19954171776771545,0.9929699301719666,1.3936015574678962,1.3403654885075813,-0.31324997544288635,0.992480993270874,1.0862690113792643,1.3646727808693735,-0.3790059983730316,0.9956746101379395,0.0008598864078521729,1.2310098734412265,1.3246682256819724,177.07000008015223,175.75608002156096,1.0,0.00038151985575717994,-0.010114876062350992,-0.007917497855035042,0.186747435859199,100.39855162140714,0.9748659591744092,56,1.8666666666666667
1.179181259591704,0.7672318353682533,-0.4764977991580963,0.9999964237213135,1.2749286460041587,0.9151327919195946,-0.2140764743089676,0.9999985694885254,1.07704945609941,0.91158205746213,-0.2481183111667633,0.9999975562095642,1.2464777624124923,1.2696920709652084,0.0010804662015289068,0.9999936819076538,1.1249278318078744,1.2822013407471555,-0.0012841456336900592,0.9999953508377075,1.2654256824345154,1.5463296905096653,-0.17593571543693542,0.9881145358085632,1.1485629365690775,1.6047720708170456,-0.020260196179151535,0.9895256161689758,1.26898592167264,1.7672318353682532,0.09528668224811554,0.9546390175819397,1.184686903789046,1.8564959829372414,0.19551721215248108,0.9920895099639893,1.342626026926904,1.2914392886678066,-0.298721581697464,0.9922049045562744,1.0542879525018156,1.3080263889052932,-0.3757326006889343,0.9958804249763489,0.001514136791229248,1.1857027971101832,1.275946705856182,177.00506831474488,176.02408570473705,1.0,-0.0028035095111064302,-0.0027813194736017203,-0.022883012814965818,0.050256289098038254,100.46364190774842,0.946531419760118,57,1.9
1.1309394329406455,0.7351241129144223,-0.46278661489486694,0.9999963641166687,1.2220087278660792,0.8767706198650349,-0.20449335873126984,0.9999983906745911,1.0328250476140957,0.8717209527214679,-0.2383660078048706,0.9999974370002747,1.1951372513493563,1.2160408175955324,0.002844978589564562,0.9999924898147583,1.0783628443344722,1.2286369101574415,-0.0030413067433983088,0.9999942779541016,1.2124463755126589,1.4829999051202374,-0.1729375272989273,0.9886600375175476,1.1012665242219457,1.5380075196232255,-0.025690957903862,0.9876070022583008,1.2165373282180454,1.7351241129144221,0.08643217384815216,0.9559454321861267,1.135772002322142,1.7792663864586744,0.1752062737941742,0.9908793568611145,1.2865736023058463,1.2380995583534662,-0.2897287607192993,0.9921339154243469,1.0173593782748929,1.246988505611575,-0.37389466166496277,0.99607253074646,0.002245962619781494,1.1367500478419141,1.222338863876487,177.2198388001645,176.09466832934731,1.0,-0.0003667960319945851,-0.007625812031205118,0.01806093526684318,-0.038588934605449966,100.68510137102811,0.9085249787191004,58,1.9333333333333333
1.0903226610443189,0.7075750667823835,-0.457963228225708,0.9999964833259583,1.1772158543647826,0.8441226111064442,-0.19840089976787567,0.9999982714653015,0.9950508298991628,0.8399795237925821,-0.24303777515888214,0.9999974370002747,1.151591409781586,1.1719392534875317,0.007780777756124735,0.9999911189079285,1.0392588274104049,1.1843244146165977,-0.00795443169772625,0.9999931454658508,1.164415254542077,1.432817577666987,-0.09687057137489319,0.9889103174209595,1.0614654913079107,1.4817601815894539,-0.02721145749092102,0.9855337142944336,1.1712939481869045,1.7075750667823835,0.11016323417425156,0.9580375552177429,1.0945067498456633,1.7145369256490648,0.17163944244384766,0.989484429359436,1.2396424592808417,1.1929862532666402,-0.28135859966278076,0.9920105934143066,0.988972407806864,1.2012140572728147,-0.39946040511131287,0.996356725692749,0.0019122660160064697,1.0954251185959953,1.1781318340520646,178.6199392075447,176.19098013020323,1.0,3.8786529338660616e-05,0.001672181377286871,0.002788414608530799,0.06412687389305897,100.76125077268597,0.8808445183385717,59,1.9666666666666666
1.082368011627551,0.7009454688208488,-0.4344337582588196,0.999996542930603,1.1672325283401694,0.8369450337101858,-0.17724207043647766,0.9999980926513672,0.9869937658481948,0.8335705557693098,-0.24184472858905792,0.9999971389770508,1.142577538680454,1.164983687834493,0.011229868046939373,0.9999890923500061,1.0312651867522897,1.1782102319936767,-0.011398383416235447,0.9999909400939941,1.15026180311345,1.432980337636137,-0.08235234022140503,0.9886377453804016,1.0514742576821183,1.4693379591388038,-0.03477201983332634,0.9809190034866333,1.1595783731550557,1.7216670375869756,0.0691237598657608,0.9606130123138428,1.0871771631989142,1.7009454688208487,0.14725951850414276,0.9871630072593689,1.2270326977463293,1.1828064407140582,-0.2644328773021698,0.9919309020042419,0.9987619333519626,1.191275723707804,-0.40612882375717163,0.9964998960494995,0.0015698373317718506,1.0869213627163719,1.171596959914085,179.79396881723883,175.20758816371165,1.0,0.0007876334105194113,0.02177339139927389,0.006004354859609042,0.1612139179569926,101.07452378557343,0.8701008691465826,60,2.0
1.0837320305937588,0.7006995463958423,-0.43776655197143555,0.9999963641166687,1.1669672178883064,0.836924304850235,-0.17433522641658783,0.999997615814209,0.9873389848110743,0.8338497065357093,-0.24408788979053497,0.9999967217445374,1.1425127893103155,1.1674318352456088,0.012987783178687096,0.9999858736991882,1.0314243936797944,1.1798710488224302,-0.013165026903152466,0.9999874830245972,1.1457102690494558,1.4369157966890311,-0.09438276290893555,0.9871945381164551,1.0513104266042,1.4648970118479347,-0.045996155589818954,0.9694232940673828,1.158133850161415,1.7337791233941566,0.015115804970264435,0.9625148773193359,1.0876093944194536,1.7006995463958423,0.11983408778905869,0.9820840954780579,1.2191808037431808,1.182908744269084,-0.2343505173921585,0.9904403686523438,1.007296965514334,1.191523001217987,-0.4119963049888611,0.9965144395828247,0.001430213451385498,1.086968591495055,1.1736514420340194,178.28339245095304,175.23971098301033,1.0,-0.0003407484203417407,0.015951513723471165,-0.009191025254533336,-0.04743284606397243,100.62076112950318,0.8681813128339231,61,2.033333333333333
1.085822805426026,0.7008263923775822,-0.4392954707145691,0.9999964833259583,1.16673920443548,0.8370311150828734,-0.18539005517959595,0.9999973773956299,0.9876345795584702,0.8340621814726472,-0.26241597533226013,0.999996542930603,1.1419533916057325,1.170404000881345,0.013319825753569603,0.9999832510948181,1.0313022309576505,1.1804454150032795,-0.013484726659953594,0.9999848008155823,1.14264278338471,1.4444819537926832,-0.0806337371468544,0.986607551574707,1.0506780482088596,1.4646979192221201,-0.044137485325336456,0.9628772139549255,1.1575742661068924,1.743698744506089,0.02234681136906147,0.9650259613990784,1.0876913390544736,1.7008263923775822,0.1302240937948227,0.9785251021385193,1.215519182806774,1.1831940123376783,-0.24202799797058105,0.9900155067443848,1.0141859016690264,1.1910519253603977,-0.42391008138656616,0.9966868162155151,0.001381009817123413,1.0866278112816914,1.1754247079423124,177.2873186997992,174.99082516684746,1.0,-0.0027295153577233315,0.012380162575213578,-0.01709923751408532,-0.02556878875914604,99.43733523949587,0.8660185564813293,62,2.066666666666667
1.088151652208768,0.7008203939887622,-0.44061970710754395,0.9999956488609314,1.1680452879676253,0.8370648190251597,-0.1873861849308014,0.9999970197677612,0.9880071768055629,0.8342448928883618,-0.2577126622200012,0.9999961256980896,1.1419928148651088,1.173113492031812,0.01271886844187975,0.9999812841415405,1.0311546351975245,1.1820812313258862,-0.012878273613750935,0.9999825358390808,1.1412648315704097,1.450218840287116,-0.05654364079236984,0.9848472476005554,1.0508556110295941,1.4644377725812736,-0.03992917016148567,0.9543305039405823,1.1569351172875144,1.7460902933788054,0.051206089556217194,0.9667670130729675,1.087573724967245,1.7008203939887623,0.13343016803264618,0.9736744165420532,1.2134660122719199,1.184440097104591,-0.25882428884506226,0.9891399145126343,1.0187586725126592,1.191676617544346,-0.42052483558654785,0.9966832399368286,0.001311659812927246,1.0865737250313168,1.177597361678849,176.81774601961462,175.16186707480375,1.0,-0.0006950507907508108,0.017256807914109974,0.01642169370497142,0.03935857086187586,99.05867311881325,0.8715863789400908,63,2.1
1.092556179064407,0.7007197662827397,-0.42800942063331604,0.9999947547912598,1.1680158346916418,0.8372887280652214,-0.17603471875190735,0.9999963045120239,0.988103287099056,0.8345283949313764,-0.2553412914276123,0.999995768070221,1.1420201135795973,1.1766340913955757,0.012425752356648445,0.9999793767929077,1.0311495303672844,1.1858601031851017,-0.01258307695388794,0.9999808669090271,1.1401190689981415,1.4556319887269953,-0.052014172077178955,0.9820500612258911,1.0525915090733042,1.4646286347979445,-0.018835188820958138,0.9385359287261963,1.156285251765075,1.7522996315861197,0.04138801991939545,0.9682419896125793,1.0875182059039121,1.7007197662827396,0.16923990845680237,0.965374767780304,1.2110210099638903,1.1849184223662073,-0.262504518032074,0.9824367761611938,1.0220102034429075,1.1917672314680028,-0.4071617126464844,0.996642529964447,0.0012840032577514648,1.0865848219734409,1.1812470972903388,176.49049279956685,175.9831965513749,1.0,0.0004812791369199435,0.027875167308633483,0.008845099393161126,0.07985053915106713,99.13748149156753,0.8794985558298527,64,2.1333333333333333
1.0997274310666525,0.7015772788957945,-0.42780858278274536,0.9999938011169434,1.1688929839335884,0.8392452976794329,-0.17075085639953613,0.999995768070221,0.9887652183680021,0.8360602621216116,-0.26087239384651184,0.9999952912330627,1.1427690377693507,1.1807481554348127,0.013804365880787373,0.9999775886535645,1.0318599720378996,1.1893584769989671,-0.013954577967524529,0.9999785423278809,1.1411728336808935,1.4612872105702073,-0.06697147339582443,0.9808747172355652,1.0559279191212145,1.4667294856553195,-0.009769391268491745,0.9260573983192444,1.1570178101962167,1.7647598552043253,0.006400793790817261,0.9704821705818176,1.0881234414924335,1.7015772788957946,0.19757333397865295,0.9575708508491516,1.21214179328766,1.1962169360472095,-0.2520526647567749,0.9791375398635864,1.0240825641020381,1.1941155472765674,-0.4171110987663269,0.9967016577720642,0.0014806091785430908,1.087314504903625,1.18505331621689,176.68517831969913,177.15315217246567,1.0,0.000238339255673769,0.022200799776295913,-0.0017714389670865104,-0.04145334924235855,98.81363620915712,0.8805375684026574,65,2.1666666666666665
1.1039110279220814,0.7025942601493235,-0.43495091795921326,0.9999926686286926,1.1691633314641452,0.8408298041584469,-0.17468538880348206,0.999995231628418,0.989133507812277,0.836965746404057,-0.2705787420272827,0.9999949336051941,1.143155132043882,1.182365763909662,0.016795802861452103,0.9999757409095764,1.032714577520174,1.1910226383383653,-0.016950439661741257,0.9999765157699585,1.1416114326350009,1.4645844614990504,-0.05509868264198303,0.9779267311096191,1.0588438413453538,1.4678353742111656,-0.013228049501776695,0.9098929166793823,1.1571453808446999,1.7640595818981784,0.02903294563293457,0.97175133228302,1.0878838448592996,1.7025942601493234,0.18581877648830414,0.94914311170578,1.212809486114304,1.1992510422407687,-0.2589746415615082,0.9746994972229004,1.025497907823691,1.1965387635335802,-0.4259707033634186,0.9966527819633484,0.0017958879470825195,1.087934854782028,1.1866942011240138,176.71729849724258,178.34061410256925,1.0,0.003075636581398061,0.010889341537560004,0.02216586969688899,-0.08840641579937938,98.83666958799778,0.8843146710690142,66,2.2
1.1050939592125146,0.7032262950377997,-0.4072272777557373,0.9999902248382568,1.1709264098213938,0.8422044226179837,-0.1466868668794632,0.9999938011169434,0.9914381129666955,0.8380295985718957,-0.25166094303131104,0.999994158744812,1.1457256187548115,1.1876242940744774,0.01724679209291935,0.9999734163284302,1.0354989043092464,1.1967280418214041,-0.0174087006598711,0.9999743103981018,1.1429066337986182,1.4700858935551435,-0.06760302931070328,0.9769642353057861,1.0615646958138485,1.4759049757420581,-0.004601618275046349,0.8999629020690918,1.1581536944946553,1.775005158362532,0.011239931918680668,0.9734816551208496,1.0884852833441208,1.7032262950377997,0.22477659583091736,0.9409948587417603,1.2140460206161219,1.2056253908883583,-0.2269705832004547,0.9616460800170898,1.0286300512242246,1.2002603087829506,-0.4149629473686218,0.9965759515762329,0.00193864107131958,1.0906122615320288,1.1921761679479408,176.5655924845418,178.58023443745395,1.0,0.013094520195029833,0.03362558414996836,0.07563400344825669,0.17161359071297597,98.8941408201951,0.8927678544529702,67,2.2333333333333334
1.1082147147873644,0.703134342858881,-0.4084824025630951,0.9999896287918091,1.1771134280741604,0.8421586498373336,-0.16236922144889832,0.999993085861206,0.9920533520677673,0.839221169978925,-0.2594325542449951,0.9999938607215881,1.1466280906393755,1.1901895000496039,0.01669897884130478,0.9999725818634033,1.0358591878319954,1.1995351984858784,-0.01685839518904686,0.9999735951423645,1.1428344447491843,1.474458954019482,-0.06080640107393265,0.9762927293777466,1.0626324403889107,1.4808517716194116,-0.004172088578343391,0.8944015502929688,1.158508405019538,1.771100526931626,0.012890850193798542,0.9749636650085449,1.088342191248574,1.703134342858881,0.21604183316230774,0.9387083649635315,1.2166669896593985,1.2095889568827805,-0.24100813269615173,0.9580690860748291,1.0269314334344708,1.2016391004134777,-0.439564049243927,0.9966714978218079,0.0013642311096191406,1.0912436392356855,1.1948623492677413,176.21083486228656,178.83888222323048,1.0,0.005849631248121752,0.02162674049221874,-0.055276397903748664,-0.09153640156820464,99.82866524931144,0.9057630646212647,68,2.2666666666666666
1.1128125857333762,0.7022949834808337,-0.45554810762405396,0.9999892115592957,1.1847654540042,0.8413634176814014,-0.18837383389472961,0.9999927878379822,0.992452961836038,0.8392814473711381,-0.2794712781906128,0.9999936819076538,1.1499253338046438,1.191064656705445,0.016609780490398407,0.9999710321426392,1.0375873718897262,1.2005517461808526,-0.016773488372564316,0.9999719262123108,1.1430419096487092,1.4728683323882754,-0.06751464307308197,0.9749054908752441,1.065951740357877,1.483436776657204,0.005689497571438551,0.8841559886932373,1.1578191853195345,1.7719636805361652,0.0310840904712677,0.9758651256561279,1.0876251378627961,1.7022949834808339,0.2408992350101471,0.9315043687820435,1.2209705104761617,1.211208176381267,-0.2921856939792633,0.9574901461601257,1.0261548442091084,1.2053601901624802,-0.4483543038368225,0.9968196749687195,0.0009675323963165283,1.093756352847185,1.1958082014431488,175.77226566245096,179.9297208967343,1.0,0.024381884713039825,0.012987147148119738,0.140754998900959,-0.06550058035087661,100.51675326325525,0.9110553192350621,69,2.3
1.1125455741528882,0.6977564483478428,-0.46935781836509705,0.9999886751174927,1.186892665954107,0.8392918844296633,-0.20691397786140442,0.9999926090240479,0.9921027734466773,0.8375741638960104,-0.2784808278083801,0.9999932646751404,1.1502149806606043,1.1889612264268616,0.013365352526307106,0.9999706149101257,1.038380622166825,1.1980689851669968,-0.013525081798434258,0.9999710321426392,1.1415329401391674,1.4702657391743768,-0.07043591886758804,0.9757019281387329,1.0652383090846105,1.482031228850486,0.0126910749822855,0.8843662142753601,1.1550158943548112,1.7668790841861617,0.03735317662358284,0.9775161147117615,1.0853934300005523,1.6977564483478427,0.2528764307498932,0.9311361908912659,1.2246229990619735,1.2102262738411322,-0.2992655634880066,0.9589613676071167,1.023126572643867,1.2055509252619412,-0.4350508153438568,0.9969106912612915,0.0007998943328857422,1.0942978014137148,1.193515105796929,175.62954887560326,179.934556720565,1.0,0.02227176284503979,0.0012230269990342834,-0.016515091641477627,-0.09408872412030508,100.64387682626389,0.9196686804931071,70,2.3333333333333335
1.1151504047566436,0.6931884655967234,-0.5116812586784363,0.9999892115592957,1.1909042491925406,0.83705925112914,-0.2520664930343628,0.9999927878379822,0.9923662269055797,0.8355494509390639,-0.2993720471858978,0.9999932050704956,1.151575212727295,1.1865937102391015,0.005007216241210699,0.9999710321426392,1.0386629969974563,1.1953934037561789,-0.005161120090633631,0.9999709725379944,1.1395641434145363,1.4729372755766086,-0.07645702362060547,0.9768537878990173,1.0639095724615615,1.4814652127253785,0.039076048880815506,0.8841187953948975,1.1527506516499233,1.7660288824508055,0.02848033607006073,0.9791799783706665,1.0834216030469932,1.6931884655967233,0.29217785596847534,0.9298737645149231,1.2272847226733927,1.2087343799978114,-0.3292018175125122,0.9594582915306091,1.0200990473386944,1.2062350391060226,-0.45303288102149963,0.9969812035560608,0.000704348087310791,1.0951191048623756,1.1909935569976402,175.0219970305343,179.7780318319469,1.0,0.02096450801357161,-0.0026810042936295632,-0.009470719244829832,-0.029168192624519165,100.87610250704337,0.9241360675795898,71,2.3666666666666667
1.113682277131512,0.6824193977831807,-0.5063202381134033,0.9999894499778748,1.1934030989975195,0.8288988902657711,-0.2242356538772583,0.9999929070472717,0.9952419765230085,0.826594991806953,-0.2576393187046051,0.9999930262565613,1.1557829042175454,1.183620350546894,0.002094344003126025,0.9999711513519287,1.0411946189215797,1.1918255609185255,-0.0022549116984009743,0.9999707937240601,1.139168700095759,1.466728956452702,-0.0732816830277443,0.9782543778419495,1.0615933987940736,1.4764760428120858,0.029165497049689293,0.8900501132011414,1.1483330933571776,1.756813831593034,0.06817472726106644,0.9807408452033997,1.079829145468154,1.6824193977831807,0.29319635033607483,0.9321004748344421,1.2303282650921175,1.2041051652145085,-0.3105701208114624,0.9623393416404724,1.010001242441786,1.206789629132719,-0.38642096519470215,0.9971442222595215,0.001078188419342041,1.0984887615695624,1.1877229557327098,174.83196137674977,179.03876034155593,1.0,0.054936602074412866,0.0037364141088361874,0.2748920620852217,0.05175971378859458,100.14963961572248,0.9500260291447521,72,2.4
1.107780199300968,0.6718366595390528,-0.48502177000045776,0.9999898672103882,1.1924711904822896,0.8215902914645408,-0.21544232964515686,0.9999932050704956,0.9941513578522913,0.818423508089643,-0.2568785548210144,0.999993085861206,1.1546843539026412,1.1789640620652766,0.0028639191295951605,0.9999716281890869,1.040189140884546,1.1868681809062966,-0.003009759122505784,0.9999710917472839,1.1384767889266756,1.4631071797500357,-0.04533186927437782,0.9793944358825684,1.0571068464911824,1.4721366178690152,0.02029525116086006,0.896056592464447,1.1427704767148692,1.748356595088718,0.13007675111293793,0.9820315837860107,1.0739890450662852,1.6718366595390528,0.3045042157173157,0.9335667490959167,1.2317111523274478,1.1975325910165688,-0.31643831729888916,0.9652907252311707,0.9960349424697321,1.2047553552846257,-0.3889639973640442,0.9973311424255371,0.0014884769916534424,1.0974367473935938,1.1829161214857866,175.87300409877832,178.56175444445765,1.0,0.0271860895876791,0.002609053697086114,-0.20082844681718,-0.008110869503751991,99.98484985236465,0.9694439713490618,73,2.433333333333333
1.1137452200052407,0.6697277845030043,-0.4759432375431061,0.9999904036521912,1.1982520221323674,0.8191626778110975,-0.21403241157531738,0.9999935030937195,0.9994094566205715,0.8162444405554123,-0.2579880356788635,0.9999931454658508,1.1606982216456956,1.1826576818573662,0.004635436460375786,0.9999718070030212,1.0442540472705706,1.1906150996273972,-0.004809492267668247,0.9999709129333496,1.1458098870181033,1.4688175855841001,-0.04445967450737953,0.9801177382469177,1.0603998709621685,1.4818788809078909,0.01527491770684719,0.8997913599014282,1.1461618083770388,1.7525422851134276,0.13642892241477966,0.982862114906311,1.076964730443952,1.6697277845030043,0.3201201856136322,0.9303855895996094,1.242464337585971,1.2008799815209479,-0.3083720803260803,0.9677327275276184,0.990519116448373,1.2124427483684037,-0.38751664757728577,0.997471034526825,0.001367121934890747,1.102476134458133,1.1866363907423816,176.95063167373536,178.13345742156815,1.0,0.010241565021631259,-0.001465371293681091,-0.12444947683988694,-0.029829596869521184,99.8078089210865,0.9856112143587643,74,2.466666666666667
1.117478300999387,0.6667773476022677,-0.4795786738395691,0.9999908208847046,1.2044191855825954,0.8175849793960647,-0.21499168872833252,0.9999938011169434,1.0047444434163537,0.8153084423876397,-0.26043951511383057,0.9999932050704956,1.1648645782511133,1.1854886006394838,0.0055571505799889565,0.9999719262123108,1.0474507472493597,1.1933244792836089,-0.005739906337112188,0.999970555305481,1.15245279645151,1.4751718769499225,-0.04434315115213394,0.9804714322090149,1.0627916733331364,1.4909070201705643,0.0037422305904328823,0.9019821882247925,1.1481136021300735,1.7565873065015283,0.15461145341396332,0.9833781719207764,1.0756733017623776,1.6667773476022676,0.3522588610649109,0.921166718006134,1.2500707033727756,1.203345833455822,-0.3060428500175476,0.9697195887565613,0.9839681417457391,1.2201785608498255,-0.3951413035392761,0.997566819190979,0.0010639429092407227,1.1061576627502365,1.1894065399615463,178.42998695885328,178.76193942351603,1.0,0.007783314637914515,-0.0006285217414361215,-0.018752471577489133,0.006347101868859717,99.95460044217555,1.0008469383185694,75,2.5
1.1193903426342557,0.6626890899497543,-0.4674922525882721,0.9999912977218628,1.2047463728109606,0.8134008752146105,-0.20608441531658173,0.999994158744812,1.005176504330034,0.8132286901569368,-0.25433242321014404,0.9999932646751404,1.1652035394217817,1.184095118489937,0.006505593657493591,0.9999724626541138,1.045989711942804,1.1915111747720364,-0.006687956862151623,0.999970555305481,1.1540371091911799,1.47304100334984,-0.05342196673154831,0.9811259508132935,1.0609170229763893,1.4907005422937827,-0.011597882956266403,0.9060179591178894,1.1462543955266526,1.7540310979968587,0.1305040717124939,0.9841155409812927,1.0705802088813614,1.6626890899497544,0.34472519159317017,0.9143984317779541,1.2506384028460458,1.2014351217018506,-0.3040507137775421,0.971759021282196,0.9739961719390062,1.2177513115419898,-0.38720566034317017,0.9976471662521362,8.058547973632812e-05,1.1055966256822929,1.1878031466309866,179.37342509598105,179.6404767993239,1.0,0.007391345352820166,0.0006372009942072298,-0.002784213492173655,0.009245196999353516,99.64852124315382,1.0090833051219212,76,2.533333333333333
1.1224162524029762,0.6635450015194152,-0.47035425901412964,0.9999918341636658,1.2079675927836995,0.8108646069269896,-0.2078348845243454,0.9999945163726807,1.0086219079197996,0.8131381472244784,-0.2555426359176636,0.9999933242797852,1.1680868823519617,1.1863133575899591,0.006699313875287771,0.9999728202819824,1.0477896447911492,1.1932294882291734,-0.006880634464323521,0.9999702572822571,1.1575059081104364,1.4751320245201656,-0.08714377880096436,0.9820035099983215,1.0629216552751461,1.4939175220701204,-0.016665993258357048,0.910297155380249,1.1481213258335108,1.7572282599368259,0.11665674299001694,0.9848802089691162,1.0709018550902134,1.6635450015194153,0.34935301542282104,0.9079791903495789,1.2549428207964721,1.2035353535675761,-0.3218393623828888,0.9737624526023865,0.9728153230044572,1.2193254051524096,-0.3883002698421478,0.9977392554283142,0.0010620057582855225,1.1079382635715553,1.1897714229095664,179.80726076787784,179.81256150900603,1.0,0.0016179433408006197,-0.002510089577068281,-0.044911606812668925,-0.024432157666096875,99.35373257846325,1.0111517540450576,77,2.566666666666667
1.1304389088487052,0.6682544574273803,-0.48126429319381714,0.9999924302101135,1.2195344107883441,0.8128401633755099,-0.2140500247478485,0.9999948740005493,1.0172354051599095,0.8192293692703044,-0.25251710414886475,0.9999934434890747,1.1781738363725713,1.1959750619782357,0.006928729824721813,0.9999735951423645,1.055761797822453,1.2024606502421422,-0.007105828728526831,0.999970555305481,1.1672295829961183,1.4886441443981493,-0.05312197282910347,0.9828699827194214,1.070252459438229,1.5072921717391077,-0.02483757957816124,0.9158676266670227,1.1562918879930137,1.772426759526375,0.17198368906974792,0.9856333136558533,1.0763144539411549,1.6682544574273803,0.36081093549728394,0.9038782119750977,1.2674816495749242,1.2104371753806122,-0.31511983275413513,0.9758223295211792,0.9753557547829349,1.2290999912104938,-0.37494808435440063,0.9977918267250061,0.0029614269733428955,1.1169678170975121,1.199217856110189,179.9343261181327,179.4351956863852,1.0,0.003160714863146238,0.001411616041298699,0.012132119495832417,0.031248752275530325,99.19418013387408,1.019206368668433,78,2.6
1.1314469852697548,0.6669195773609903,-0.5040212273597717,0.9999930262565613,1.2232184122076026,0.8093759042297768,-0.22894683480262756,0.999995231628418,1.0193626702012353,0.8199452919656943,-0.2532426118850708,0.9999936819076538,1.18031824252307,1.1976893697797732,0.006747008766978979,0.9999748468399048,1.0569901541248587,1.2033212685660466,-0.006916893180459738,0.9999716281890869,1.16853896556693,1.493004971807025,-0.04534295201301575,0.9839672446250916,1.0701070633810426,1.5090225632653398,-0.041359737515449524,0.9222431778907776,1.1571206400752447,1.7762265750161579,0.19142428040504456,0.9864534735679626,1.0766705723598229,1.6669195773609902,0.3473462164402008,0.9049698114395142,1.274093252705816,1.2110766385078167,-0.3350209891796112,0.9778155088424683,0.970612652977811,1.2335368852348187,-0.3812148869037628,0.9978137016296387,0.004892200231552124,1.1186541983239644,1.2005053191729098,179.97547153963842,179.92339982580395,1.0,0.001082582993722613,-0.0028030992483989926,-0.015786610845398237,-0.03196488531933179,98.9190196905699,1.0243079028543656,79,2.6333333333333333
1.1274030550240106,0.6637057889988945,-0.5297110676765442,0.9999935030937195,1.2200961709770153,0.8034609306368561,-0.24774448573589325,0.9999954700469971,1.0169583431955094,0.8168064442923544,-0.26899927854537964,0.9999938607215881,1.1777077256649844,1.1935657195725986,0.006516990717500448,0.9999756217002869,1.0540885372677298,1.1978028184344736,-0.00668760109692812,0.999972403049469,1.1649281426027005,1.4881843858093513,-0.0456903912127018,0.9846155047416687,1.0651816240577878,1.5036249593746807,-0.03303670510649681,0.9268693327903748,1.1516521990042496,1.7701889224958758,0.18814827501773834,0.9868676662445068,1.0727580856579402,1.6637057889988947,0.3391183614730835,0.9056694507598877,1.2728497846408824,1.2057778317452021,-0.34119299054145813,0.979085385799408,0.9624855661385332,1.229291869237045,-0.38819772005081177,0.9978047609329224,0.006197154521942139,1.1158981314663572,1.195684269003536,179.78841772191407,179.367650653518,1.0,0.006752688893211117,-0.007538465587194884,0.04501928561769129,-0.03764626408146076,98.16444758470588,1.0207653947736477,80,2.6666666666666665
1.1247974798892206,0.6612012043825752,-0.5194157361984253,0.9999939203262329,1.2193861809595772,0.7993116093638702,-0.24391499161720276,0.9999957084655762,1.015278254866071,0.8146399518287962,-0.267576664686203,0.9999940395355225,1.1761776206174392,1.1905220171826085,0.005722737871110439,0.999976396560669,1.0518609048164607,1.1925403808848045,-0.0059033711440861225,0.9999732971191406,1.1625444423357552,1.4848079252672528,-0.04351356625556946,0.9852149486541748,1.0621719046104097,1.499311551718296,-0.029836978763341904,0.9310765266418457,1.148040815884712,1.7665819255376747,0.18697941303253174,0.9871865510940552,1.068747086896924,1.6612012043825752,0.3316818177700043,0.9085360169410706,1.2696397990680248,1.202700861679637,-0.34077128767967224,0.9801074862480164,0.9561072507435798,1.2267399628006705,-0.38223934173583984,0.9977895617485046,0.007132172584533691,1.1140192627169498,1.1915311990337065,179.70584577677877,179.59926320058966,1.0,0.0026790578206015757,-0.013354252143732825,-0.030784649951862558,-0.04421077050373381,97.23283402424182,1.0154035538207333,81,2.7
1.1200171577752358,0.6571301605058328,-0.50752192735672,0.9999942183494568,1.215541744504804,0.7936429855855806,-0.23731502890586853,0.9999958872795105,1.0120850805182955,0.8109074865722037,-0.25294893980026245,0.9999940395355225,1.1728261820913553,1.1852974656557427,0.004733582958579063,0.9999772906303406,1.0479944362264837,1.1854722585771653,-0.00491325045004487,0.9999743700027466,1.1577916942996838,1.4825367837030736,-0.03343123942613602,0.9861282706260681,1.0560064589174118,1.4930209141644273,-0.026973914355039597,0.936474621295929,1.1431158509621138,1.7552985858614727,0.21281512081623077,0.9876845479011536,1.0635940665330756,1.6571301605058328,0.3199326694011688,0.9140954613685608,1.2650691274107708,1.1978327974292937,-0.3370174765586853,0.9812607765197754,0.9502071104739747,1.2215879209670617,-0.3603515326976776,0.9977549910545349,0.008065491914749146,1.1104103091589195,1.185384862116454,179.8157689966644,178.84509740859264,1.0,0.006832992476544933,-0.010618261724834073,0.032655457258186395,0.021031753411167607,96.30455539592099,1.0143269486212345,82,2.7333333333333334
1.1009751614920715,0.6439531633480168,-0.5244722962379456,0.9999945163726807,1.1955894833784024,0.7771450805785792,-0.2521643340587616,0.9999960064888,0.9957733845210957,0.7961327700772859,-0.2528005838394165,0.9999940991401672,1.1532978651612387,1.1644298989315145,-0.0013963553356006742,0.9999783039093018,1.030254441110366,1.1626261349100087,0.0011987301986664534,0.9999755620956421,1.1382380662445508,1.4573749739407527,-0.05894503742456436,0.9869641065597534,1.0351481231446507,1.4655371942914757,-0.01368430070579052,0.9408478140830994,1.1234722883895047,1.725294892839107,0.18231000006198883,0.9881839156150818,1.045544414364986,1.6439531633480169,0.3164551854133606,0.9197170734405518,1.2429682680528806,1.1772540590335085,-0.3343380093574524,0.982041597366333,0.9336842645296454,1.1996635064419965,-0.36591869592666626,0.9976484179496765,0.00902259349822998,1.0917761531358023,1.1635280169207616,179.78835490888707,177.59071013582056,1.0,0.0006356187892112011,-0.014577831694322795,-0.047234172819691944,-0.032139761655870035,95.392151410974,0.9971361060776366,83,2.7666666666666666
1.041586569633475,0.6077083627240164,-0.5512049198150635,0.9999948143959045,1.1341241148951269,0.7330264946023268,-0.27178531885147095,0.9999962449073792,0.9441259365237247,0.7537215729751067,-0.2597658038139343,0.9999942779541016,1.0923873262149693,1.1001267540003392,-0.0022263035643845797,0.9999797940254211,0.9752803574287059,1.096554271944687,0.0020393335726112127,0.9999772906303406,1.0773942778536987,1.3800210567915872,-0.05731593444943428,0.9877792000770569,0.9778682812898556,1.3852354983401092,-0.0005693299463018775,0.9456346035003662,1.0636280381653753,1.6358776996084567,0.1950608342885971,0.9887081980705261,0.9900235552965218,1.6077083627240163,0.26858437061309814,0.9268534779548645,1.1763424357763106,1.1110796818823718,-0.34157678484916687,0.9831514954566956,0.8852285514513891,1.1356116990831058,-0.3650575280189514,0.9971987009048462,0.010387539863586426,1.0338338418218376,1.0983405129725132,179.98642099109034,177.38625615827738,1.0,0.001854204977801803,-0.023895066703568765,0.009427025975299815,-0.07597687770317334,94.73895500203561,0.9373296412413412,84,2.8
1.0009428602456603,0.5823262858873894,-0.5426169633865356,0.9999951124191284,1.0928260086764177,0.7056885406128363,-0.2705218195915222,0.9999964833259583,0.908962545082506,0.7256063489886087,-0.2514699399471283,0.9999945163726807,1.051275113313557,1.0583370771103757,-0.0040129730477929115,0.9999811053276062,0.9386088581765806,1.054618449104637,0.0038278885185718536,0.9999788999557495,1.0369269020387866,1.330633241310722,-0.04656008630990982,0.9882870316505432,0.9408620403870666,1.331557925661734,-0.004391330759972334,0.9500516653060913,1.022304451951051,1.5823262858873894,0.1915663629770279,0.9890903234481812,0.9532354807181193,1.5830791565927629,0.20059427618980408,0.9335921406745911,1.1307576147281904,1.0688097075281355,-0.35807010531425476,0.9844315052032471,0.8522676429065428,1.092975073875295,-0.33557426929473877,0.9970889687538147,0.010385394096374512,0.9949419857450688,1.0564777631075064,179.69138100192754,177.6497867343258,1.0,-0.002174189885445343,-0.006716730945733437,-0.03205981385259791,0.13187625662988214,94.82950501606466,0.9010285026417484,85,2.8333333333333335
0.9945823747943753,0.5786146852625595,-0.5447884202003479,0.9999954104423523,1.0880669652433725,0.7035600464081746,-0.27791255712509155,0.9999967217445374,0.904773339084093,0.7227439316873491,-0.2411285638809204,0.999994695186615,1.0461638431613094,1.0544676972134042,-0.00645769527181983,0.9999822378158569,0.9338177665468529,1.050077242639758,0.00628353888168931,0.9999803304672241,1.032163095486697,1.326325941748523,-0.04720886051654816,0.9887341856956482,0.936777169636217,1.3255395746903609,-0.01774098165333271,0.9542588591575623,1.0174763535101161,1.5786146852625595,0.19766993820667267,0.989093542098999,0.9479266823674541,1.5985492608889362,0.17088629305362701,0.9396981000900269,1.121965985926192,1.0625975490611677,-0.42569342255592346,0.9856147766113281,0.8481795488802235,1.0883683111145757,-0.3371151387691498,0.9967330694198608,0.010047763586044312,0.9899908048540811,1.052272469926581,179.6164806687285,178.27691052917572,1.0,-0.003668085174525461,0.003970533111332559,-0.011241088950185161,0.07967184965741189,94.571681110249,0.8831367052275602,86,2.8666666666666667
0.9884507237101223,0.5754117812684542,-0.5359301567077637,0.9999955892562866,1.0853592595906862,0.7023965090184088,-0.26854485273361206,0.9999969601631165,0.9021618271885352,0.7212141808473229,-0.22512945532798767,0.9999948143959045,1.042970925112732,1.0537077975730478,-0.007220253348350525,0.9999831914901733,0.9301454706174184,1.0487074029185368,0.0070521594025194645,0.9999815821647644,1.0292851805273435,1.3240098782222718,-0.04272083193063736,0.9889678955078125,0.9343005499231147,1.3227644609385378,-0.03547464683651924,0.9581149220466614,1.0146287730999854,1.5754117812684543,0.2019347846508026,0.9887442588806152,0.9429996319016803,1.6118629911611575,0.12234093993902206,0.9452532529830933,1.1112246495476454,1.0596613779179254,-0.42169779539108276,0.9867740273475647,0.8466741973518824,1.086308246225148,-0.32264676690101624,0.9962016344070435,0.00988316535949707,0.9865581978650751,1.0512076002457924,179.56199079073136,179.1450845220485,1.0,-0.005286844837488441,0.013700945700683356,-0.012180338858381158,0.07284418658677615,94.34223323187553,0.8770709950445011,87,2.9
0.9865005658557523,0.5745793571148151,-0.5473145842552185,0.9999956488609314,1.0856195278255043,0.7025364312532052,-0.2839430868625641,0.9999971389770508,0.9017145366907857,0.7209247297850202,-0.23414257168769836,0.9999949336051941,1.042313782299633,1.0548851154585077,-0.0066567836329340935,0.9999841451644897,0.929379137646496,1.0492119252015488,0.006497321184724569,0.9999828338623047,1.0289529621133569,1.3274628847515686,-0.024277780205011368,0.9892386198043823,0.9339350222684117,1.3235779506708996,-0.032295454293489456,0.961731493473053,1.0140707913507159,1.5745793571148152,0.25794345140457153,0.9882292151451111,0.941610458252981,1.6123061744124305,0.1465173363685608,0.9502993822097778,1.106771314533333,1.059338117216364,-0.4402982294559479,0.9878308773040771,0.8467240428632471,1.0862168609700866,-0.3239072263240814,0.99569171667099,0.009662419557571411,0.9858464599730644,1.0520485203300283,179.3598163706713,179.42854714917806,1.0,-0.001823791095416663,0.01100104545725153,0.028008057192181458,-0.021797693280620173,94.13105630941084,0.8818263993228359,88,2.933333333333333
0.9849797853199161,0.5731700681259205,-0.5515655875205994,0.9999954104423523,1.0849424666081418,0.7024151849520797,-0.29348260164260864,0.9999973177909851,0.9011126689544594,0.7204738365449493,-0.23970124125480652,0.9999949336051941,1.041458572148905,1.0556345813411883,-0.0060706487856805325,0.9999849796295166,0.9285822222363295,1.0505722958217554,0.005898327566683292,0.9999839067459106,1.0283938488968534,1.3280296627077695,0.006133611313998699,0.9891490340232849,0.9351576613546828,1.3254151990089456,-0.031014958396553993,0.9650055170059204,1.013417051794563,1.5731700681259204,0.2925719916820526,0.9872169494628906,0.9408729109683458,1.622605458235691,0.12142924219369888,0.9548761248588562,1.1009319248655982,1.0597128862463996,-0.4662492275238037,0.9887894988059998,0.84650157482243,1.0855437377115784,-0.3291989862918854,0.9946393966674805,0.009495079517364502,0.9850203971926171,1.0531034385814717,179.24981205912363,179.73121308389204,1.0,-0.0016621039312760748,0.013144004345007856,0.0012368805866653926,0.016561031235805154,94.45033360928197,0.8808652080988578,89,2.966666666666667
0.98255855682068,0.5707348235433163,-0.553722620010376,0.9999950528144836,1.0832069378605214,0.7017676460646008,-0.29606252908706665,0.9999974966049194,0.8992972796615024,0.7194203898708831,-0.24831850826740265,0.9999948740005493,1.0397658383772654,1.0552149538127282,-0.005988451652228832,0.9999858140945435,0.9272880184337015,1.0503358508277574,0.005797210149466991,0.9999849200248718,1.0272001019767505,1.330903461028421,0.02681829035282135,0.9891864657402039,0.9360453058430821,1.327738762916055,-0.0316053070127964,0.9680208563804626,1.0127466409822916,1.5707348235433163,0.32043689489364624,0.9866456389427185,0.9397312649984955,1.6281636509487982,0.11360238492488861,0.9590824246406555,1.0944529085449226,1.0606047329981958,-0.4546773433685303,0.9896239638328552,0.8456286185161613,1.0842941766611354,-0.33584097027778625,0.9934187531471252,0.009294360876083374,0.9835269284054835,1.0527754023202427,179.16094039042866,178.89477482322852,1.0,-0.0011035732965424603,0.008338911555748011,0.0041736164819871765,-0.03591787175199524,94.52306355613314,0.8816903529210846,90,3.0
0.979181722474406,0.5683837470594927,-0.5539160370826721,0.9999948740005493,1.0808165445425777,0.7005229112442694,-0.2991637885570526,0.999997615814209,0.8956632947305906,0.7176431792488501,-0.2629217803478241,0.9999947547912598,1.0374829314164629,1.0532237042704022,-0.0036920998245477676,0.9999866485595703,0.9254559727982671,1.048228781775074,0.0035284697078168392,0.9999858140945435,1.02533295811728,1.3336119963998239,0.030344858765602112,0.9892851114273071,0.9366561380981856,1.332035365958226,-0.030294710770249367,0.9706652164459229,1.0106159331181528,1.5683837470594928,0.3115938901901245,0.9861929416656494,0.9380043966253602,1.629557595645355,0.10737897455692291,0.9628572463989258,1.0854863350222197,1.0607694105677394,-0.4411843419075012,0.9903022050857544,0.8440387587187178,1.085617494949326,-0.34230464696884155,0.9909844398498535,0.009032785892486572,0.9814694521073649,1.0507262430227382,178.8942471494499,177.999688687921,1.0,-9.100486884568227e-05,0.0009994356929674709,0.007234064397838461,-0.0524301543546943,94.45144106619627,0.879726464777564,91,3.033333333333333
0.976456483106562,0.5674454943560611,-0.5101556777954102,0.9999944567680359,1.0796476009908675,0.7001135159751738,-0.2814788222312927,0.9999977350234985,0.8932260711874354,0.717114893823084,-0.24432912468910217,0.9999945163726807,1.0365467484273667,1.0551897141308453,0.00015603848441969603,0.9999871850013733,0.9246873174724017,1.0519598169363713,-0.0003095266001764685,0.999986469745636,1.0243713657095517,1.3379723268901131,0.04958047717809677,0.9882421493530273,0.9364286270210914,1.3415943629974831,-0.03714597970247269,0.9727867245674133,1.0099831184988146,1.5674454943560612,0.32121896743774414,0.9847047924995422,0.9377056182478016,1.6352719809014578,0.07965928316116333,0.9660897850990295,1.0786125077751925,1.0619749364086475,-0.4278047978878021,0.9909160137176514,0.8435215609521751,1.0853932149244638,-0.3341660797595978,0.9884475469589233,0.00897747278213501,0.9806170329498841,1.0535747655336083,178.87756469489383,177.92773040181044,1.0,-0.00030387953271781567,0.02698483035918717,-0.0015462775337061823,0.18869190796819485,95.26704369786822,0.8874086624310242,92,3.066666666666667
0.9751757676732908,0.5677705850017645,-0.519288182258606,0.9999942183494568,1.0790677760328864,0.7004312071321336,-0.2835851311683655,0.9999978542327881,0.8919280809213553,0.7178808101055383,-0.2459896057844162,0.9999943971633911,1.0357412287503562,1.058702510323177,0.0012610957492142916,0.9999875426292419,0.9246361645717339,1.0562172587068348,-0.0014074234059080482,0.999987006187439,1.0235783885969958,1.3415137791682712,0.06020413711667061,0.9861971139907837,0.9379075504690064,1.349401300051594,-0.041661668568849564,0.9744495749473572,1.0102664681792441,1.5677705850017645,0.3498377501964569,0.9815196990966797,0.9394816786507899,1.6414761181952744,0.07865795493125916,0.9688208699226379,1.0732225626883578,1.0642660143958518,-0.4490436613559723,0.9913794994354248,0.8439187803377316,1.087766326054376,-0.334101140499115,0.9866978526115417,0.009211599826812744,0.9801886966610451,1.0574598845150058,179.09545602549684,177.71698647891873,1.0,-0.005460969374845179,0.028013989358739482,-0.04021008273541793,0.007966164012544262,95.61401623503444,0.8949613645786015,93,3.1
0.9729165136134582,0.568061700663443,-0.5422744750976562,0.9999940395355225,1.07801165092315,0.7015285406282225,-0.2840522229671478,0.9999979734420776,0.8893590896778206,0.7199728521959731,-0.24948136508464813,0.9999943971633911,1.0335271088125162,1.0650352987520515,0.003226056694984436,0.9999879598617554,0.922929396905514,1.0652104640904563,-0.0033480003476142883,0.9999876618385315,1.0225185715069014,1.3502691825950706,0.07354409992694855,0.9854357242584229,0.9394511813580713,1.3603046544231252,-0.05241880938410759,0.9765087962150574,1.0105175435540257,1.568061700663443,0.39071184396743774,0.98027104139328,0.9401249072292859,1.6600602078617388,0.06981483101844788,0.9716175198554993,1.0693955717276367,1.0684529992490253,-0.4817468225955963,0.9919787645339966,0.843717055914504,1.0918966944629176,-0.3545401096343994,0.9863976240158081,0.00973433256149292,0.9782282528590152,1.0651228814212539,179.05623916029387,176.92423648956674,1.0,-0.017076366469917174,0.05750086919318744,-0.09018006555137263,0.2289046022695207,97.06768911885658,0.9055317893784279,94,3.1333333333333333
0.9735700638777316,0.5699682613734327,-0.5474289655685425,0.9999934434890747,1.0791844491095812,0.7041303604425156,-0.28888899087905884,0.9999980926513672,0.8884709386597838,0.7226900166949107,-0.25529745221138,0.9999942779541016,1.0345890476333166,1.0722008296984862,0.005445876158773899,0.9999881982803345,0.9230139907463984,1.0735749183338306,-0.005544484127312899,0.9999881386756897,1.019940938772507,1.358352607185626,0.09370625019073486,0.9824020266532898,0.9422859548802947,1.3704672224235315,-0.060433097183704376,0.9781447649002075,1.0137208907524764,1.5699682613734327,0.42198070883750916,0.9751859903335571,0.9438355856329171,1.6741389982022652,0.042093049734830856,0.9739826917648315,1.0694779159916263,1.0767369422353144,-0.4925079345703125,0.9924086928367615,0.8455851893886461,1.0992507427402798,-0.37597793340682983,0.9843177199363708,0.00976473093032837,0.9788015191898576,1.0728878740161583,178.75320499931036,176.57838603682944,1.0,-0.01964913677790868,0.0351844318996659,-0.019962624532539032,-0.17824256674519148,97.61386479736902,0.9158347451589587,95,3.1666666666666665
0.963688948100923,0.5639058519628039,-0.5370573997497559,0.999993085861206,1.0711163505747467,0.7015683570257658,-0.28793659806251526,0.999998152256012,0.8792393364301702,0.7181751541857778,-0.2525236904621124,0.9999943375587463,1.0279177517080036,1.0705443212402967,0.006320049054920673,0.9999884366989136,0.9143103894602128,1.0712457005386928,-0.006425049155950546,0.9999885559082031,1.0144799157938507,1.352237954721982,0.10003431886434555,0.9806819558143616,0.9365092022736021,1.364715147055728,-0.06351085752248764,0.979735791683197,1.010197935355606,1.563905851962804,0.4062270224094391,0.9738858938217163,0.9409447434674741,1.6694880422109792,0.054378122091293335,0.9761536121368408,1.0636709395610036,1.0752833156436534,-0.46651872992515564,0.9928978085517883,0.8356728915490285,1.1013107632319454,-0.3629494309425354,0.984500527381897,0.008769690990447998,0.9711140705841083,1.0708950108894948,178.4277672862563,176.5080327465202,1.0,-0.031218612811770404,0.01512901672502411,-0.08930081696561042,-0.1528378229187897,97.03134182739153,0.9289539463802262,96,3.2
0.9551761111213777,0.5561954917786238,-0.5511237382888794,0.9999931454658508,1.0621398006635112,0.6973207513743485,-0.29107004404067993,0.9999982118606567,0.8696060919062528,0.7142266798321175,-0.26012933254241943,0.9999943971633911,1.0202225301200691,1.0646387948029234,0.006260904483497143,0.9999887943267822,0.9051705587372312,1.0649062753624174,-0.006369302980601788,0.9999890327453613,1.0096612607546198,1.3449421319121777,0.08821293711662292,0.9799051880836487,0.9297308573762988,1.3622992723259344,-0.056412238627672195,0.9811457991600037,1.0059959570105603,1.5561954917786238,0.41354116797447205,0.9717096090316772,0.9366076690979013,1.6627129684764443,0.07613759487867355,0.9780650734901428,1.06099180241174,1.0712719981275238,-0.4600082337856293,0.9933636784553528,0.8243129605677373,1.0972895097348712,-0.3604150116443634,0.9847427010536194,0.008969873189926147,0.9626965444286502,1.0647725350826704,178.83622802377758,176.59025947649423,1.0,-0.029771316233027555,-0.008375369776187334,0.010063565982746017,-0.1813503092472009,96.64347018055696,0.9336965481686837,97,3.2333333333333334
0.9573433339505187,0.5573454619170828,-0.5921462774276733,0.9999933838844299,1.0631379501613343,0.6979855869109114,-0.30962929129600525,0.9999983310699463,0.86958610543669,0.7153922408146577,-0.2844844460487366,0.9999946355819702,1.0214231626458325,1.0665090320077133,0.006396266631782055,0.9999890923500061,0.9055810539368029,1.0664236881635012,-0.006502482108771801,0.9999895095825195,1.0117045479430586,1.3479068268151033,0.08568798750638962,0.9796102643013,0.930873738004644,1.365924285936331,-0.0555671751499176,0.9825152158737183,1.008409014539247,1.5573454619170828,0.436706006526947,0.9697287678718567,0.9391937494979153,1.6632590866283365,0.08717349171638489,0.9798562526702881,1.0644526732073303,1.0744430821580306,-0.4828042984008789,0.9936937689781189,0.8232804833884343,1.1006515236887997,-0.38431668281555176,0.9855677485466003,0.009214937686920166,0.9635021082913178,1.0664663600856072,178.92344534581267,176.77568218027986,1.0,-0.010497953563756256,-0.00535588840239101,0.15068238222863978,0.02367147716519562,96.41586095325862,0.9360637740415654,98,3.2666666666666666
0.9552696280486267,0.5535962212822966,-0.6212846636772156,0.9999938011169434,1.0585815955590787,0.6921903620834832,-0.3309650421142578,0.9999984502792358,0.8645922787888505,0.7130027007773815,-0.30385616421699524,0.9999949336051941,1.0184509771857144,1.0622634881716488,0.005444696173071861,0.9999895095825195,0.9009967377988786,1.0621533830555305,-0.005546514876186848,0.9999900460243225,1.009716832673536,1.344286283188898,0.07367493957281113,0.9799264073371887,0.9255060242946939,1.3644028249602231,-0.04984457045793533,0.9837625622749329,1.0071161048899535,1.5535962212822965,0.41429534554481506,0.968585729598999,0.9374602940447008,1.6629697001393897,0.0914217010140419,0.981498122215271,1.0633967844025543,1.0729288539501138,-0.5053337812423706,0.9940477609634399,0.8158139147138129,1.0982586482653305,-0.397603303194046,0.9865638017654419,0.01104128360748291,0.9597238574922964,1.0622084356135897,178.93801489635476,177.65688318150924,1.0,-0.012646754879270916,-0.014551308974857952,-0.015817318466037747,-0.06707638289818772,96.13524294188241,0.931183128315281,99,3.3
0.9518631913272834,0.551620300511473,-0.6366301774978638,0.9999942183494568,1.0551880468549286,0.6869562022422244,-0.3328101634979248,0.9999985098838806,0.8601028555657898,0.7079873494834222,-0.3242081105709076,0.999995231628418,1.0158690162192727,1.0589038836726887,0.006199480500072241,0.9999898076057434,0.896492611743799,1.0594501355813168,-0.006303036119788885,0.9999905228614807,1.0084505809746374,1.3417055310670256,0.06889767944812775,0.9803274273872375,0.9209803813778472,1.3681379978841013,-0.04407837986946106,0.9848378896713257,1.0070948799962305,1.551620300511473,0.40957361459732056,0.9678561687469482,0.936380837092625,1.6671634054975224,0.10780670493841171,0.9829505681991577,1.0634922202015602,1.0717109049562068,-0.4886693060398102,0.994254469871521,0.809554415956973,1.0984658051241547,-0.42962607741355896,0.9874299168586731,0.011173516511917114,0.9561808139815358,1.0591770096270028,178.86739575708305,178.41255747462188,1.0,-0.017306042990018457,-0.012009598118702652,-0.03755076237201739,0.020235582571958902,96.29657027932056,0.9221317384686508,100,3.3333333333333335
0.9455601677376158,0.5459638066356178,-0.6070507764816284,0.9999945759773254,1.0487724559767004,0.6825542148742778,-0.3155946135520935,0.9999985694885254,0.8532464650856825,0.6982693604989428,-0.30509668588638306,0.9999954700469971,1.0100113848301748,1.0545252324612415,0.0070393928326666355,0.9999901056289673,0.8886817350324694,1.0547826626418284,-0.00716774258762598,0.9999909996986389,1.0048091266432413,1.3401290951435343,0.03518185392022133,0.9811683893203735,0.9134998823511659,1.3658645121373916,-0.04193264991044998,0.9858629107475281,1.0038872739731157,1.5459638066356178,0.38597673177719116,0.9671893119812012,0.933120298587711,1.6598809650893154,0.11176645755767822,0.9842532873153687,1.064798295125873,1.067579725948079,-0.40911468863487244,0.9945507049560547,0.8020783882165611,1.0943756032646574,-0.4086737036705017,0.9882631897926331,0.00837978720664978,0.9493465599313221,1.0546539475515349,179.21307955153122,179.25642001018798,1.0,-0.028266314877262978,-0.005560602017759007,-0.09314911234488661,0.05412439642208451,96.07057675883986,0.927268844321966,101,3.3666666666666667
0.9442552339004248,0.5437939348252302,-0.6044089198112488,0.9999949336051941,1.0458453047102518,0.6768143149680793,-0.31106218695640564,0.9999986290931702,0.8468711153853998,0.6952083292004549,-0.30924922227859497,0.9999957084655762,1.0096406756816036,1.0542280393280512,0.008232208900153637,0.9999904632568359,0.8855939735508824,1.0543662893476795,-0.008381576277315617,0.9999914765357971,1.0059578829194449,1.347435431401251,0.015191989950835705,0.9820656776428223,0.9088874254230833,1.3691439255908666,-0.038720838725566864,0.9868118762969971,1.0063682742469104,1.5437939348252303,0.38731852173805237,0.9636920094490051,0.9330194860440963,1.655572037396798,0.12541711330413818,0.9853354692459106,1.0723661736736534,1.0673816848899826,-0.3949522376060486,0.9947696924209595,0.7972361172308756,1.094145189902384,-0.41699162125587463,0.989031970500946,0.009809821844100952,0.947617324616243,1.0542971643378654,179.1606331579391,179.4162625308804,1.0,-0.011196216344051088,-0.0013265884925838026,0.12122281016456168,0.030069385452034757,95.54337172609733,0.9352916670816314,102,3.4
0.9463574559867786,0.5450997352904102,-0.5838655233383179,0.9999953508377075,1.0443916581464727,0.6758634714771915,-0.2749236226081848,0.9999986886978149,0.8441575932436028,0.6960416252328464,-0.30122828483581543,0.9999959468841553,1.011975069678847,1.0567808512724268,0.00929168052971363,0.9999908804893494,0.8852343030014426,1.057214806930069,-0.009467046707868576,0.9999919533729553,1.0158624070365132,1.3591978599140044,-0.011568108573555946,0.9831357598304749,0.9086509334864634,1.3783536464096136,-0.035968877375125885,0.987642228603363,1.011776523480721,1.5450997352904103,0.36069828271865845,0.9607389569282532,0.9353980307847449,1.6587961175926833,0.13859149813652039,0.9862558245658875,1.0815777251782237,1.0699623244023027,-0.3372959494590759,0.9949667453765869,0.7965143489404614,1.1000760234737181,-0.40664711594581604,0.9897515773773193,0.01073405146598816,0.9486046863401448,1.0569978291012478,178.0044628582993,178.7223975402587,1.0,-0.010629477038488539,0.0001584081026848023,0.004452219506054678,0.011133407016647695,95.06040676595529,0.9383688366991102,103,3.433333333333333
0.9521791299671886,0.5471692815805317,-0.5874714851379395,0.9999957084655762,1.0488534890327643,0.6810801659294025,-0.2787337601184845,0.9999987483024597,0.843732936853341,0.701018236978393,-0.3085557222366333,0.9999962449073792,1.0167928001717048,1.0647676384557103,0.009569376707077026,0.9999914169311523,0.8879433049547276,1.0665465890958343,-0.00975731946527958,0.9999925494194031,1.0261269633136674,1.3709700670723137,-0.04168156161904335,0.9843383431434631,0.9139041223744847,1.3931927992020037,-0.025129085406661034,0.9884083867073059,1.0199625954683496,1.5471692815805318,0.36031076312065125,0.9573394656181335,0.9412946288759083,1.6702269546145458,0.17672181129455566,0.9871310591697693,1.095005176343824,1.0759822325937651,-0.37306374311447144,0.9950222969055176,0.7991177748875922,1.111928266016997,-0.43262988328933716,0.9904162883758545,0.010539591312408447,0.9523680525632162,1.0656571137757722,176.25026896698023,178.8976259483864,1.0,-0.01716705212527437,0.015037425858210511,-0.049500389186112166,0.11382346171698399,95.5675033916736,0.95349223093303,104,3.466666666666667
0.9545970955192337,0.5459582929016216,-0.5831876993179321,0.9999960660934448,1.0487008659311006,0.683545952413981,-0.2687349021434784,0.9999988079071045,0.8428573544336841,0.7023764745491914,-0.3036743998527527,0.9999964833259583,1.0183961603412306,1.067515673259085,0.009529294446110725,0.9999918937683105,0.8881863201811703,1.0695952283966341,-0.00972362793982029,0.999993085861206,1.0334085496013017,1.3759799284603187,-0.06552712619304657,0.9855051040649414,0.9156750792891164,1.4023096922712883,-0.027349814772605896,0.989123523235321,1.0231483632689105,1.5459582929016216,0.3379351496696472,0.9548072218894958,0.943799779336973,1.6766387858852994,0.17016461491584778,0.9879601001739502,1.1041768487877157,1.0776837188152935,-0.3519207835197449,0.994989812374115,0.8001307155403955,1.1162281839753962,-0.41756534576416016,0.9909619092941284,0.009927690029144287,0.9532912402612005,1.0685554508278594,173.75943745059647,178.86941890353327,1.0,-0.012903631143205316,0.00048808167999433977,0.03448230362394941,-0.1167464514588771,95.42768083108209,0.9613954385781095,105,3.5
0.9545887789752515,0.5422780182992218,-0.5920039415359497,0.9999964237213135,1.0461793825602126,0.6838524160042319,-0.2745518982410431,0.9999988675117493,0.8398796893557463,0.702529219328712,-0.3197818398475647,0.9999967217445374,1.0172862907863285,1.0672096696119828,0.00985323078930378,0.9999924302101135,0.887307051832536,1.0711128706335609,-0.010064433328807354,0.999993622303009,1.035720924291837,1.3750204516226932,-0.117357037961483,0.9867339730262756,0.914399948683735,1.4046151294252154,-0.021286901086568832,0.9897946715354919,1.0233777801137605,1.542278018299222,0.30472826957702637,0.9532268047332764,0.9433354837561132,1.676241049677592,0.1937524825334549,0.9887608885765076,1.1076229237894122,1.074777010200238,-0.3742554485797882,0.9949808120727539,0.800775621609234,1.1169859945592326,-0.43071699142456055,0.9915199875831604,0.009848803281784058,0.9522966713094323,1.069161270122772,172.3520594923502,178.56374390416815,1.0,-0.005934540954894764,0.006340817597283648,0.052603634887855896,0.044195959958159725,96.03019476119152,0.9739288755319345,106,3.533333333333333
0.9496273234878695,0.5358797635329383,-0.5995208621025085,0.9999967217445374,1.0372944230216856,0.6808941019174634,-0.27437856793403625,0.999998927116394,0.8341372281290493,0.698907142150486,-0.3269438147544861,0.9999969601631165,1.0115145211471135,1.0620347238232033,0.011136936023831367,0.999992847442627,0.8821271574295396,1.0695202565009234,-0.011362584307789803,0.9999940395355225,1.0319486102759763,1.3678055615282811,-0.13826671242713928,0.9878636598587036,0.9084217417007534,1.4003927019374747,-0.020762821659445763,0.9903379082679749,1.01940286830683,1.5358797635329384,0.2766452431678772,0.953424870967865,0.9388129188824884,1.667558366620459,0.20652595162391663,0.9894809126853943,1.104582326882996,1.067869178319762,-0.3630962073802948,0.9948374629020691,0.7982925885341181,1.1110509807790225,-0.4599223732948303,0.9920077323913574,0.009544789791107178,0.9468208392883266,1.0657774901620634,171.9078424127253,178.0540415851136,1.0,-0.007190403044230972,0.014368933201433492,-0.010428824595871092,0.06542987725238598,97.1806048376324,0.986943993993939,107,3.566666666666667
0.9262777935920549,0.5208573842131343,-0.5197986364364624,0.9999964833259583,1.009542378748423,0.6648997506615639,-0.19623132050037384,0.9999986886978149,0.8118880204215032,0.6764454908224479,-0.26932579278945923,0.9999968409538269,0.9863752315034457,1.0372724940520746,0.013077102601528168,0.9999927878379822,0.8610569142655322,1.0490647831862605,-0.013333437032997608,0.9999940395355225,1.0068753668033723,1.3325521739359627,-0.20604190230369568,0.988899290561676,0.8853012444078959,1.367994934159893,-0.030269350856542587,0.9905300736427307,0.9964172974806099,1.5208573842131343,0.1490049660205841,0.955781102180481,0.9164913917618159,1.6267492347647012,0.20869076251983643,0.9899426102638245,1.0783981806552734,1.041381131107386,-0.28218698501586914,0.9938274025917053,0.7864871614426838,1.079183732907402,-0.44243067502975464,0.9924446940422058,0.006266355514526367,0.923716072884489,1.0431686386191676,172.84972682505017,177.4738805089056,1.0,-0.004896434383863666,0.019286458683861474,0.015494286959528102,0.038363425001029905,98.93569344930445,0.982454594952659,108,3.6
