nose_x,nose_y,nose_z,nose_visibility,left_shoulder_x,left_shoulder_y,left_shoulder_z,left_shoulder_visibility,right_shoulder_x,right_shoulder_y,right_shoulder_z,right_shoulder_visibility,left_hip_x,left_hip_y,left_hip_z,left_hip_visibility,right_hip_x,right_hip_y,right_hip_z,right_hip_visibility,left_knee_x,left_knee_y,left_knee_z,left_knee_visibility,right_knee_x,right_knee_y,right_knee_z,right_knee_visibility,left_ankle_x,left_ankle_y,left_ankle_z,left_ankle_visibility,right_ankle_x,right_ankle_y,right_ankle_z,right_ankle_visibility,left_wrist_x,left_wrist_y,left_wrist_z,left_wrist_visibility,right_wrist_x,right_wrist_y,right_wrist_z,right_wrist_visibility,trunk_lateral_inclination,center_mass_x,center_mass_y,left_knee_angle,right_knee_angle,person_height,center_mass_velocity_x,center_mass_velocity_y,center_mass_acceleration_x,center_mass_acceleration_y,body_orientation,torso_leg_ratio,frame,timestamp
0.7500311917357425,0.44380534985412745,0.19538486003875732,0.9999980330467224,0.6652106237432825,0.5883037086449967,0.019859811291098595,0.9999986886978149,0.8335309921086337,0.5803306247795149,-0.0325610414147377,0.999991774559021,0.7130729850424437,0.9052839848009101,0.028711512684822083,0.9999867081642151,0.7966759800586233,0.9018823236290685,-0.028831258416175842,0.9999809265136719,0.7336055284518156,1.1877235804569632,0.15211369097232819,0.9886283874511719,0.8084098824562058,1.1878105363492772,0.05125601962208748,0.8817847371101379,0.7483922684116007,1.4438053498541275,0.256930410861969,0.9901559948921204,0.8067463867112348,1.4456874258541488,0.1954280436038971,0.9458817839622498,0.6281788902713786,0.920392118691269,0.08119912445545197,0.994475781917572,0.8820614280043308,0.9163556699813402,-0.005704425275325775,0.9540727734565735,0.004989743232727051,0.7548744825505335,0.9035831542149892,179.14679479593403,177.2804235224247,1.0,-0.21866794848921225,0.09078365049990635,-1.3090223568771833,0.5125008655833297,96.25651804713218,0.8489086623186317,0,0.0
0.7300614039120584,0.42984045287206735,0.19701433181762695,0.9999979138374329,0.6445804473419452,0.5720971582862563,0.020341578871011734,0.9999987483024597,0.8300635381142659,0.5654076095872876,-0.024776853621006012,0.9999924898147583,0.6958871855072063,0.902667780964665,0.02839178778231144,0.9999876022338867,0.7939463495411418,0.8983557523283723,-0.028511235490441322,0.9999825358390808,0.7157993861207096,1.1834433293629651,0.16419605910778046,0.9874163866043091,0.8013152702732051,1.1822433812231385,0.06948330253362656,0.8921350836753845,0.7284051407760204,1.4298404528720674,0.2718912661075592,0.9874235987663269,0.8037866200188355,1.4327366686871075,0.20563217997550964,0.9463440179824829,0.6097017071643288,0.9123797172567548,0.08585421741008759,0.9940816760063171,0.8784040642731448,0.9057902974278726,0.0015098683070391417,0.9581330418586731,0.004240989685058594,0.744916767524174,0.9005117666465187,178.87217359406634,179.07835526297677,1.0,-0.00197521251267408,0.06625383366155616,1.6587058923135278,-0.1811848444298276,96.3044036221663,0.8864928924035171,1,0.03333333333333333
0.723516767158761,0.4270211099763571,0.20782342553138733,0.9999976754188538,0.6411230176156071,0.5641335573677969,0.024391043931245804,0.9999987483024597,0.8259171457590578,0.5554533435704221,-0.020149869844317436,0.9999931454658508,0.6874172886782397,0.9013241663156781,0.027142245322465897,0.9999881982803345,0.7898263602045698,0.8959158577104478,-0.027269069105386734,0.9999839067459106,0.7087117326646697,1.1752811694210157,0.16748078167438507,0.9856224060058594,0.79780506421829,1.1783761315058372,0.0843401774764061,0.9002649188041687,0.7210479761653055,1.4278644172739097,0.26722580194473267,0.9832407832145691,0.8054952191710987,1.427021109976357,0.2114345282316208,0.9430834650993347,0.6062737314543901,0.9069526022414289,0.12162286043167114,0.991628885269165,0.8726645239071357,0.9024653699064361,0.015364721417427063,0.9613714218139648,0.005535125732421875,0.7386218244414047,0.898620012013063,178.35150641861912,179.8465198080078,1.0,-0.0151607079678404,0.025595193882979105,-0.10137104176475195,-0.3093629095118295,94.79446653588244,0.8912770649731602,2,0.06666666666666667
0.7319219625276495,0.43332720740425956,0.19143913686275482,0.9999973177909851,0.6407703945836444,0.5646754482306573,0.0181636493653059,0.9999987483024597,0.8317272162805098,0.5570258882326826,-0.04361395165324211,0.9999937415122986,0.6898190584846633,0.9113036461313583,0.03138742223381996,0.9999885559082031,0.7949821729822268,0.9041370143256003,-0.03151994198560715,0.9999849796295166,0.7120690628687223,1.1778726740451437,0.17935484647750854,0.9843323826789856,0.805039509891824,1.184938977895081,0.08264661580324173,0.9077984094619751,0.7262234380679149,1.4333272074042596,0.27175384759902954,0.9808427691459656,0.8147228031198327,1.4347002053526139,0.20024649798870087,0.941702127456665,0.6092606934485892,0.9124555840758378,0.10235558450222015,0.9898042678833008,0.8764526103439438,0.9073510819787062,-0.02482934109866619,0.964399516582489,0.004849076271057129,0.7424006157334451,0.9077203302284793,178.40012673095916,179.83099916119735,1.0,-0.004606446122799234,0.02824584832180147,0.08001694954656804,0.01878173541478144,94.15545795737253,0.9003226175827558,3,0.1
0.7281243829960822,0.4377217003578581,0.18963366746902466,0.999997079372406,0.6378895372011876,0.5681230978141685,0.011639075353741646,0.9999987483024597,0.8292251874737917,0.5585100501649655,-0.04517124965786934,0.9999942779541016,0.6893247033305009,0.9162657343507313,0.02793237939476967,0.9999887943267822,0.7950578159906875,0.9066670083768138,-0.028074687346816063,0.9999858736991882,0.7120575833105749,1.1819118937131945,0.16392019391059875,0.9841306805610657,0.8047139228872949,1.1819621137982417,0.07819382846355438,0.9154031276702881,0.7281527907927834,1.439120607679989,0.23704829812049866,0.9801895022392273,0.8188890836657666,1.4377217003578582,0.1695018708705902,0.9429682493209839,0.6132446193489508,0.9169672137750773,0.09046022593975067,0.9877976775169373,0.8771070705875331,0.9087023822552182,-0.03845851123332977,0.9675222039222717,0.006081223487854004,0.7421912596605942,0.9114663713637726,178.68948238465433,178.83655058899274,1.0,-0.013203112821424945,0.014277797287428805,-0.06527482701122168,-0.1066188108779817,93.21693667074837,0.8978314944649537,4,0.13333333333333333
0.7289884653328127,0.4417470982395333,0.18656985461711884,0.9999964833259583,0.6398514216035387,0.5719077965528812,0.006398484110832214,0.9999986886978149,0.8304286835633125,0.5608213503031116,-0.04391486570239067,0.999994695186615,0.6897518211610301,0.9205785465156044,0.024356652051210403,0.9999889135360718,0.7967552271286066,0.9108967279634731,-0.024513844400644302,0.9999866485595703,0.7144724634237885,1.184194885686846,0.1472831517457962,0.9838288426399231,0.8100849568849635,1.182843923245705,0.07041934877634048,0.9221298098564148,0.732847153581533,1.4484925320508995,0.22524890303611755,0.9797218441963196,0.8245622610759311,1.4417470982395333,0.14723721146583557,0.944287121295929,0.6197787684140984,0.9202539972327105,0.0561361238360405,0.9856483340263367,0.8806782151646173,0.9132537363428317,-0.06629377603530884,0.9705256819725037,0.0069755613803863525,0.7432535241448184,0.9157376372395388,178.6197097365427,179.60563415767578,1.0,-0.02229229429791909,-0.0049787953626501255,-0.06808111784257044,-0.145964105281796,92.97451824570844,0.8937663677494749,5,0.16666666666666666
0.7352233134402913,0.4461420441936382,0.1952522248029709,0.9999961256980896,0.6444971500374642,0.5775936032021494,0.01520699542015791,0.9999986290931702,0.8364527504096234,0.5672170998804581,-0.04046235233545303,0.9999951124191284,0.6929764835455332,0.9285789356934732,0.02487068995833397,0.9999892115592957,0.8033757624572455,0.919294857017276,-0.025041207671165466,0.9999874830245972,0.7191267931591332,1.1922181822113218,0.15648183226585388,0.9830047488212585,0.8175236088053942,1.1930071236745154,0.07829148322343826,0.92769855260849,0.740102389217277,1.4607176564018327,0.21973343193531036,0.979318380355835,0.8319518805026359,1.4461420441936381,0.1703203171491623,0.945382297039032,0.6295159208836948,0.9288523767196444,0.06972804665565491,0.9834553003311157,0.8901064147705227,0.92248688394385,-0.062307219952344894,0.9732764363288879,0.00646442174911499,0.7481761230013894,0.9239368963553746,178.80233788485432,179.69667935354886,1.0,-0.018778396899059975,-0.007021581760294786,0.028209137688547298,-0.015048996831001433,93.0571316392219,0.900394150840297,6,0.2
0.7352196625147297,0.45097690681992425,0.17494486272335052,0.9999957084655762,0.6480285533242334,0.5815351147077545,-0.0031269812025129795,0.9999985694885254,0.8415781251453455,0.5729080609121261,-0.05376410484313965,0.9999954700469971,0.6980553342355574,0.9366649400734635,0.024259556084871292,0.9999894499778748,0.8087734005231447,0.9261702352136619,-0.024441376328468323,0.9999882578849792,0.7240928481399184,1.199965182164419,0.14828772842884064,0.9822890162467957,0.82374670853611,1.198699228026314,0.07825279980897903,0.9325371384620667,0.7470921395892527,1.4702216653596323,0.21232178807258606,0.9792389869689941,0.836503801549519,1.4509769068199243,0.16375207901000977,0.9467715620994568,0.6364620818395539,0.935732415872441,0.0580228790640831,0.9807886481285095,0.8978268590586643,0.9305193800246742,-0.07511255145072937,0.9757248759269714,0.005334436893463135,0.7534143673793511,0.9314175876435627,179.21668478951884,179.75006080602938,1.0,-0.002878971843097768,0.003989198830459755,0.11959689551072267,0.08248873416586189,92.60368298711487,0.906161051867236,7,0.23333333333333334
0.7451020913892501,0.45817209282937665,0.16365362703800201,0.9999939203262329,0.6586761224716482,0.5897493774152479,-0.009805429726839066,0.9999983310699463,0.8527264596601585,0.5815888881846533,-0.06455455720424652,0.9999957084655762,0.7079846980076067,0.9527888195355247,0.025621304288506508,0.9999896287918091,0.8192647007871926,0.9403535928568157,-0.025814536958932877,0.9999889135360718,0.7317108200418903,1.2145459723637413,0.15080302953720093,0.9815443754196167,0.834199306970237,1.2030457773089316,0.07892930507659912,0.9368824362754822,0.7553826991001872,1.4865034435249256,0.20555882155895233,0.9796611666679382,0.8472958092805236,1.4581720928293767,0.15964721143245697,0.94902104139328,0.6490354841422614,0.9483707047076404,0.03121834062039852,0.9756978750228882,0.9090508021632099,0.9439203372994397,-0.0903562530875206,0.977886438369751,0.004976749420166016,0.7636246993973996,0.9465712061961703,179.79539863854765,179.68472448690122,1.0,-0.0020028409347814936,0.016685716478922207,0.0069361439255728975,0.09570422452907715,91.35848195929579,0.9272101521168294,8,0.26666666666666666
0.74693989144119,0.4588237357384967,0.17862504720687866,0.9999918937683105,0.6591622147423787,0.5902097199134496,-0.003916188143193722,0.9999980330467224,0.8564713130299818,0.5837333341563349,-0.05345962196588516,0.9999960064888,0.708881750003172,0.9548731076045691,0.023344703018665314,0.9999895691871643,0.8210611302565125,0.9423816088926891,-0.023538313806056976,0.9999894499778748,0.7325932099526563,1.2162318646330885,0.15629878640174866,0.9804725646972656,0.8350971776286806,1.2001718701677742,0.08811312913894653,0.9398051500320435,0.7586852020344012,1.4903363690825144,0.1997910439968109,0.979365885257721,0.8491376829261901,1.4588237357384968,0.1630525290966034,0.9496164321899414,0.653205446722575,0.9504243920430834,0.09539955854415894,0.9560529589653015,0.9106205074461314,0.9468807822904556,-0.015695320442318916,0.9796887636184692,0.003939956426620483,0.7649714401298422,0.9486273582486291,179.74630155746857,179.9906233620524,1.0,-0.0041557386656032175,-0.0021666170836999806,-0.01657620658067792,-0.1458053313302069,91.41016585380355,0.9293536448355973,9,0.3
0.7532481583255018,0.46138409182445556,0.17192690074443817,0.9999858140945435,0.6657074481122606,0.5924829873740142,-0.009448993019759655,0.9999974370002747,0.8619795860805004,0.5871457093695382,-0.05486804246902466,0.9999962449073792,0.7122580819980859,0.9601334159382287,0.02188480831682682,0.9999890327453613,0.8254011038345997,0.9464780877377302,-0.02207169309258461,0.9999897480010986,0.7374110755428336,1.222925666679394,0.14146292209625244,0.9794305562973022,0.8389716429547097,1.2033352013863827,0.08443216979503632,0.941836416721344,0.7636491821006852,1.4972876608732388,0.15728457272052765,0.97889643907547,0.8537014916916801,1.4613840918244556,0.1404624581336975,0.949657678604126,0.6600834342287261,0.955718274608725,0.11934288591146469,0.9156420230865479,0.9149407868239444,0.9530130053442739,-0.01372416503727436,0.9812833070755005,0.0032285749912261963,0.7688295929163428,0.9533057518379795,179.99538989663148,179.75730698025146,1.0,-0.0037448685156126257,-0.0054368660224207305,0.0032496117182579036,-0.024362938902045692,90.3344039791695,0.9329520874440441,10,0.3333333333333333
0.7519472221037833,0.4586264451004568,0.17454300820827484,0.9999852776527405,0.6639274077704562,0.5911982152818483,-0.006580435670912266,0.9999972581863403,0.8610297243031819,0.5861215866043257,-0.05421987175941467,0.999996542930603,0.710781373846038,0.9581490911242257,0.021239537745714188,0.9999889731407166,0.8236033332797285,0.9435836106156757,-0.02142946422100067,0.9999902248382568,0.7355424546523558,1.220396492233906,0.14259746670722961,0.9784055352210999,0.8370114891993284,1.1993854421028616,0.07728307694196701,0.9444782137870789,0.7626095783474026,1.4927406934416683,0.17058725655078888,0.9777605533599854,0.8517282436821109,1.4586264451004567,0.1298549473285675,0.9496602416038513,0.6600667739846336,0.9484628356090083,0.1186237707734108,0.8942826390266418,0.9116035252737451,0.9514133666096733,-0.027650276198983192,0.9827906489372253,0.0030764341354370117,0.7671923535628832,0.9508663508699507,179.71806367668881,179.751365091025,1.0,-0.001959772063726529,-0.005568588428910844,0.013636290622283807,-0.0010849501116847319,89.92013453999392,0.9356626070667196,11,0.36666666666666664
0.7510442990888294,0.4554855735577189,0.1679309904575348,0.9999805092811584,0.6622485486794524,0.5896026284929548,-0.006217543967068195,0.9999963045120239,0.857911233007075,0.5849840096609443,-0.05720817297697067,0.9999967813491821,0.7090682359158013,0.9552316636194856,0.020686235278844833,0.9999886751174927,0.8215465598393192,0.941524158446083,-0.020876329392194748,0.9999907612800598,0.7327099796911308,1.2170898564402828,0.15312090516090393,0.9776321053504944,0.8351551314148329,1.195876844159561,0.08206813782453537,0.9471288919448853,0.7619956005956431,1.489170795115978,0.18871985375881195,0.97784024477005,0.8498092780085138,1.455485573557719,0.14423231780529022,0.9516391754150391,0.6638427733128975,0.9429119769720273,0.15627677738666534,0.8281968235969543,0.908612444511796,0.9495819466598722,0.006683471612632275,0.9842095971107483,0.0028048455715179443,0.7653073978775603,0.9483779110327843,179.01551635294044,179.83181330136998,1.0,-0.0018551674892796958,-0.0034138675347519824,0.0007354651405778089,0.015691600198393062,90.34889444935231,0.9383022619769654,12,0.4
0.7449298450625185,0.4493989010509285,0.1856287270784378,0.9999752640724182,0.6582744651172999,0.583225878794005,0.00404344592243433,0.9999955296516418,0.8509841781332563,0.5797599497631069,-0.043879128992557526,0.9999970197677612,0.7036548429929185,0.9457929303048763,0.02043137140572071,0.9999882578849792,0.8144664576123294,0.9320261605224084,-0.020618941634893417,0.9999911785125732,0.728025654182181,1.2064518568704077,0.15603265166282654,0.9749855399131775,0.8275703713877085,1.1860655792356511,0.08514919131994247,0.948090672492981,0.7561729925695398,1.476429507137358,0.20242051780223846,0.9759320020675659,0.842655163665329,1.4493989010509285,0.15099717676639557,0.9509333968162537,0.6597462293251098,0.932161651794342,0.16671761870384216,0.7649758458137512,0.9010302933468772,0.9416867271455449,0.04297461360692978,0.9853209853172302,0.0021224021911621094,0.7590606503026239,0.9389095454136424,179.38940994202582,179.67427591773236,1.0,0.0006695139484376816,-0.011956146588484377,0.018574235450170874,-0.06344005651120987,90.05237303608678,0.9317996291997142,13,0.43333333333333335
0.7413042229745694,0.448009652402523,0.17874819040298462,0.999971866607666,0.6558745478465415,0.5808212054307608,0.003971542231738567,0.9999949336051941,0.8477079542417186,0.5773753520114786,-0.04822290688753128,0.9999971985816956,0.7009419040813097,0.9414848541465081,0.020833399146795273,0.9999880790710449,0.8108934118572466,0.9281106837255773,-0.021024838089942932,0.9999915957450867,0.725066319071613,1.2011087952647201,0.17121130228042603,0.9735850095748901,0.8237856406699783,1.1848323127696352,0.08487732708454132,0.9504446983337402,0.7529816138597955,1.4702246209447345,0.23181648552417755,0.9749227166175842,0.8391132642747455,1.448009652402523,0.15270580351352692,0.9516511559486389,0.6578023627449056,0.9275566253521932,0.1797998547554016,0.7075358033180237,0.8966510050183673,0.9367156483929666,0.05088305473327637,0.9863405823707581,0.002118915319442749,0.7559176579692781,0.9347977689360426,179.38662247176276,179.5417258605753,1.0,8.921629393356672e-05,-0.0015802984523806364,-0.0043569675258903606,0.0779039934050959,90.18735964496061,0.9261258699036737,14,0.4666666666666667
0.7372563832582317,0.4461678551770953,0.20076647400856018,0.9999655485153198,0.6522585492656099,0.5781702922187782,0.011689489707350731,0.9999942183494568,0.8436963638232536,0.5737122385518636,-0.02993716672062874,0.9999973773956299,0.6976969029977436,0.9356511308555456,0.019324008375406265,0.9999873638153076,0.8070677102926422,0.922617173619154,-0.019521381705999374,0.999991774559021,0.722516824843972,1.1952007006856604,0.16152025759220123,0.972622275352478,0.8196154554285557,1.181317801686529,0.08006380498409271,0.9518312811851501,0.749332338656568,1.464575324359665,0.19650785624980927,0.973480761051178,0.8349141577583654,1.4461678551770953,0.1314031481742859,0.9508148431777954,0.6530657192347967,0.9223357687189367,0.18740028142929077,0.6559504866600037,0.892880383671512,0.931404878511369,0.06954849511384964,0.9872068166732788,0.002754420042037964,0.7523823066451929,0.9291341522373499,179.77749765015463,179.47089952488435,1.0,0.000425376028158324,-0.009336175163474904,0.002569914667100689,-0.059275724278295513,90.44784470243782,0.9156125580695562,15,0.5
0.732800824962103,0.4436631615685019,0.19896622002124786,0.9999617338180542,0.6492807469531342,0.5747472810480202,0.010318812914192677,0.9999938011169434,0.838685008106758,0.5683232865784495,-0.029931385070085526,0.9999975562095642,0.6939364710146247,0.9287011832702594,0.01873588189482689,0.9999866485595703,0.8027022207051681,0.9165571543217985,-0.01893281191587448,0.9999918937683105,0.7183947180948016,1.187926156111901,0.15641894936561584,0.9706538319587708,0.8145974378617719,1.1794283944592154,0.0744471400976181,0.9525305032730103,0.7449101928459179,1.45640213354913,0.1884145438671112,0.971181333065033,0.8297390975850395,1.4436631615685018,0.12581561505794525,0.9491859674453735,0.647854801300533,0.9168294570150064,0.18275244534015656,0.6169055104255676,0.8888614775105781,0.9237209204214555,0.07085977494716644,0.9880194664001465,0.003993481397628784,0.7483193458598965,0.922629168796029,179.7495747662972,179.3112505927179,1.0,0.004295310258516123,-0.00666064225651755,0.031148697230577047,0.021061807627037313,90.81972822193326,0.9061575784819853,16,0.5333333333333333
0.7305100394147709,0.442990790596382,0.1963280886411667,0.9999616742134094,0.6473504578880515,0.5743200440377388,0.012789471074938774,0.9999936819076538,0.8362185919820483,0.5658973769964403,-0.03377806767821312,0.9999976754188538,0.6927699228976159,0.9260626371038989,0.01886739954352379,0.9999862313270569,0.801570097258295,0.9136253804576413,-0.01906510442495346,0.9999920725822449,0.7168478014506977,1.1847957334806358,0.15318796038627625,0.9699004888534546,0.8130175854488784,1.1794415447024937,0.06951337307691574,0.9539309740066528,0.7431318704964555,1.4540932776077928,0.18420538306236267,0.9697109460830688,0.8275898805774713,1.442990790596382,0.119181789457798,0.9482290744781494,0.6447159208169934,0.914626290323537,0.18419618904590607,0.590425431728363,0.8866710097445738,0.9172180788077371,0.05153912305831909,0.9887827038764954,0.005249470472335815,0.7471700100779555,0.9198440087807701,179.7421265054919,179.30113986257595,1.0,0.0058866730622484055,-0.003108279316881309,0.012141582804221123,0.026786458772342134,90.83638282822821,0.9001408674377702,17,0.5666666666666667
0.7291261054663017,0.4435672851168323,0.1927231252193451,0.9999635815620422,0.648177732857971,0.5744553368493772,0.009108562022447586,0.9999938011169434,0.8375330170063794,0.5659757456952786,-0.03560004010796547,0.9999977946281433,0.6932376589905409,0.9259567406385009,0.0190967358648777,0.999986469745636,0.8030732492779737,0.9136657136562838,-0.019290393218398094,0.9999923706054688,0.7191278408062536,1.1855819598094501,0.15364763140678406,0.970528244972229,0.8136632701216588,1.1834949612738017,0.07425534725189209,0.9565209150314331,0.7433779853023544,1.4537149831565868,0.20196600258350372,0.9702031016349792,0.8275506759672727,1.4435672851168322,0.12914994359016418,0.9497989416122437,0.6408762983788175,0.913722809162002,0.11969359219074249,0.6106876134872437,0.8876606713675937,0.9151731497720794,-0.0024831925984472036,0.9895691275596619,0.005284786224365234,0.7481554541342573,0.9198112271473924,179.4730259626327,179.19094965741613,1.0,0.006985442002030286,-0.0004431951030477046,0.007973358395872873,0.019343406975475666,90.92000558723115,0.8990429394656362,18,0.6
0.727547836858002,0.44298607756432284,0.1876971572637558,0.999965250492096,0.6478685982104977,0.5736063933412022,0.005252879578620195,0.9999940395355225,0.8370353232044128,0.5649847825561772,-0.03813163936138153,0.9999978542327881,0.6926790597984955,0.9246478474476203,0.019060177728533745,0.9999866485595703,0.8031877902178473,0.9124673037179873,-0.019253350794315338,0.9999925494194031,0.7200368946502949,1.1864104163648848,0.1522713601589203,0.9704529047012329,0.8133078940591286,1.1851391847292547,0.08469584584236145,0.9577789902687073,0.7422263464546884,1.4556454935731329,0.20293664932250977,0.9700633883476257,0.8262169156786604,1.4429860775643228,0.15619812905788422,0.9495219588279724,0.6359826349357524,0.9123890990526541,0.08052186667919159,0.6379501819610596,0.8888657277459744,0.9129079808004205,-0.0236118845641613,0.9901453256607056,0.0053817033767700195,0.7479334250081714,0.9185575755828038,178.744932096916,179.2594317573785,1.0,0.007654228753632993,0.0014795704491485891,0.005496759189527409,0.015543948212397612,90.98457676285545,0.8947541578664873,19,0.6333333333333333
0.7270623819290231,0.44272936568577687,0.2001705914735794,0.9999675154685974,0.6474753937949281,0.5732960152600141,0.00664103776216507,0.9999943971633911,0.8364839360501757,0.5645174809088822,-0.029117897152900696,0.9999979138374329,0.6928296757776519,0.9246345032273589,0.019017569720745087,0.9999869465827942,0.803155272961995,0.9126225754498617,-0.019207937642931938,0.9999927282333374,0.7206925300931468,1.1869171883483156,0.1515456885099411,0.9705791473388672,0.8133269619549618,1.187335459129702,0.08513231575489044,0.9591688513755798,0.7416239582526833,1.4570598149638376,0.20574812591075897,0.9699634313583374,0.8254841014407778,1.442729365685777,0.16251367330551147,0.9491509199142456,0.6296506088945415,0.9166748598699859,0.07040777802467346,0.6690365672111511,0.8889468654426045,0.9102240062336086,-0.036139123141765594,0.9907709360122681,0.005484223365783691,0.7479924743698234,0.9186285393386103,178.36667825301103,179.39519093973507,1.0,0.005144514457712482,0.006306376394989183,-0.018887913624654754,0.03642794624487052,91.14191216694171,0.8946443270484211,20,0.6666666666666666
0.7241425653589726,0.4408277769136904,0.19321200251579285,0.9999700784683228,0.6451115082851516,0.5708787806607047,0.0036611079704016447,0.9999947547912598,0.8335597643419951,0.5612028336956324,-0.04855692386627197,0.9999980330467224,0.6907360659418278,0.9209613419132301,0.023425139486789703,0.9999874830245972,0.8004623886202195,0.9091964940707823,-0.023598916828632355,0.9999929666519165,0.7196533596049678,1.1835680731992748,0.16183851659297943,0.9704920649528503,0.8101645115736349,1.1847646626627697,0.08235970139503479,0.9612889289855957,0.7385078622502628,1.4527826500798628,0.22953590750694275,0.970059335231781,0.8220093600773707,1.4408277769136904,0.16448131203651428,0.9498650431632996,0.6209680783109561,0.9157217736621671,0.06158546358346939,0.6985373497009277,0.8865769246738666,0.9054789336500929,-0.06423722207546234,0.9913471937179565,0.006070047616958618,0.7455992272810236,0.9150789179920062,177.72229632422233,179.36794646135135,1.0,0.004767379777447314,0.0017558657852696745,-0.002389226128143614,-0.03038206948457357,91.30536177865342,0.8909274170862763,21,0.7
0.7219347727266817,0.4387127108012652,0.19236186146736145,0.9999724626541138,0.6431747088359419,0.5680560956347079,0.00285570090636611,0.9999951124191284,0.8309971735179171,0.5586973361759685,-0.05343621224164963,0.9999980926513672,0.6881018980239683,0.9173512243794658,0.02769364044070244,0.9999880790710449,0.7976686546044568,0.9063539232124457,-0.02785089612007141,0.9999932646751404,0.7171664168447648,1.1789039527963072,0.17056623101234436,0.9705421924591064,0.8067386434257048,1.1827611304699117,0.07662513107061386,0.9634299874305725,0.7347976418955703,1.4476246038445546,0.24229928851127625,0.9701837301254272,0.8180140305275194,1.4387127108012652,0.1642260104417801,0.9503880143165588,0.6119656378070167,0.9125360165489971,0.05490366742014885,0.7262101173400879,0.8840067256894056,0.8998783314938468,-0.07397380471229553,0.9917367100715637,0.005899488925933838,0.7428852763142125,0.9118525737959557,177.41303076603717,179.35701222127375,1.0,0.006091339031748884,0.008200692836456285,0.009340984619078143,0.04475371473274003,91.59765510525467,0.8896066655404125,22,0.7333333333333333
0.7199898100804952,0.43756406419177796,0.19707128405570984,0.9999746084213257,0.6425935712037364,0.5665168071434674,0.012599500827491283,0.9999954700469971,0.8303003093563754,0.5575156644315984,-0.043284203857183456,0.999998152256012,0.6872645243129443,0.9151001292081039,0.027866244316101074,0.9999886155128479,0.7971335641388764,0.904824209272242,-0.028028246015310287,0.9999935030937195,0.7163958030280827,1.1769357970948073,0.16626015305519104,0.9710160493850708,0.8054976718589427,1.1811335988408047,0.07554775476455688,0.9654904007911682,0.7326498845123597,1.4458729128628922,0.231183260679245,0.9704036116600037,0.8159156056646372,1.437564064191778,0.1626599133014679,0.9513417482376099,0.6081268710044454,0.9111530677541949,0.0664675384759903,0.7513181567192078,0.8843091459006744,0.8974468433409735,-0.06707592308521271,0.9919486045837402,0.005689471960067749,0.7421990442259103,0.909962169240173,177.11015025532316,179.4073985960003,1.0,0.008770271309044016,0.003835132947440131,0.017822056144585673,-0.028717917983145692,91.95939040890914,0.8877375095128222,23,0.7666666666666667
0.720146959907727,0.43728618624945853,0.19732765853405,0.9999765157699585,0.6428737548496817,0.5663664118035513,0.012980008497834206,0.999995768070221,0.8306295783563851,0.558197452688648,-0.03916408121585846,0.9999982118606567,0.68784085643811,0.9154771719102855,0.027551602572202682,0.9999890923500061,0.7976588605115834,0.9052585137808498,-0.027716804295778275,0.9999936819076538,0.7173946079505791,1.1774262077716517,0.16385534405708313,0.9711164236068726,0.8061306669570231,1.1811549300952944,0.07356564700603485,0.9671236276626587,0.7323771370769505,1.4463474726506471,0.22605600953102112,0.9702878594398499,0.8157385397620869,1.4372861862494586,0.15587478876113892,0.9516321420669556,0.6071037378195275,0.9125458925653219,0.05968068912625313,0.7741681337356567,0.8841122755217812,0.8944006945927258,-0.06229805201292038,0.9921718239784241,0.0051649510860443115,0.7427498584748468,0.9103678428455677,176.7518139857064,179.61055422075682,1.0,0.005567809144554242,0.004863060102834382,-0.02329862448246239,0.007492352743566014,92.02344068847536,0.8896436122223584,24,0.8
0.7214570352627997,0.43704839958125097,0.19328634440898895,0.9999781250953674,0.6433298330807222,0.5660030004318632,0.014869722537696362,0.9999960064888,0.8303322105894669,0.557869859188474,-0.05099096894264221,0.9999982714653015,0.6874573695234205,0.9160518770976078,0.03257794305682182,0.9999895095825195,0.796965407228923,0.9061138415551899,-0.03273916617035866,0.9999938607215881,0.7172271969816304,1.1776483088372176,0.17038027942180634,0.9702580571174622,0.8057353206075629,1.180454194989633,0.06724120676517487,0.9682988524436951,0.7315321949127569,1.4473420816409899,0.23107337951660156,0.9694230556488037,0.8152005111511905,1.4370483995812509,0.14960530400276184,0.9506887197494507,0.6067661679262049,0.9123510806755155,0.06257887184619904,0.7931322455406189,0.8837384469053194,0.8927475620077946,-0.08286143839359283,0.9922278523445129,0.005145609378814697,0.7422113883761717,0.9110828593263989,176.54385355858068,179.71841012716732,1.0,-0.00045963520443552673,0.009721575259164906,-0.04505812084842875,0.03636471980373121,91.99938587304759,0.8918506475844995,25,0.8333333333333334
0.719954000283123,0.43652586216184086,0.19805249571800232,0.9999796152114868,0.6425655549833191,0.5659905824217344,0.021823523566126823,0.9999962449073792,0.8292202644334485,0.5570944622458744,-0.0490870364010334,0.9999983310699463,0.6865677919274957,0.9163857195945216,0.03310104459524155,0.999989926815033,0.7958304805802732,0.9069318218011541,-0.03326507657766342,0.9999940395355225,0.7164790400805278,1.1767212715711297,0.17377690970897675,0.9692228436470032,0.8049677586565501,1.1805971109132982,0.06855125725269318,0.969420313835144,0.7303956292741604,1.445744906221521,0.2427748739719391,0.967943549156189,0.8141052249169085,1.4365258621618409,0.15466052293777466,0.9495114088058472,0.606222080833249,0.9116434807412176,0.06831644475460052,0.8115717768669128,0.8828763447575655,0.8916803488255408,-0.0675266906619072,0.9923048615455627,0.005635440349578857,0.7411991362538844,0.9116587706978379,176.40701269086057,179.86753860064857,1.0,-0.0005496526780565682,0.012637190080581276,-0.0006632090047044859,0.0214332148388449,92.21250076534145,0.8967166020951457,26,0.8666666666666667
0.7189408700876623,0.4375835484467108,0.1955217719078064,0.9999808669090271,0.6435044867491463,0.567950051519334,0.019518902525305748,0.9999964237213135,0.8302722358580689,0.5575854629035593,-0.048839960247278214,0.9999983310699463,0.6871287118451789,0.919367496244221,0.032339196652173996,0.9999902248382568,0.7963280303098467,0.9094826053176206,-0.03250374644994736,0.999994158744812,0.7174940513576603,1.179228444683291,0.171005517244339,0.969109833240509,0.8059945299483187,1.1825454861333073,0.07595609128475189,0.9703060984611511,0.7311688979149332,1.4487134016171979,0.237505242228508,0.9674893021583557,0.8151680946344662,1.4375835484467108,0.17181196808815002,0.9489057064056396,0.6076073844708437,0.9128460949579076,0.07057240605354309,0.8269429206848145,0.8839540015940303,0.8928925930823381,-0.056641586124897,0.9923816919326782,0.006557077169418335,0.7417283710775128,0.9144250507809208,176.24003117540244,179.96743302317282,1.0,-0.0035671234803709953,0.012665509974859261,-0.024319872234962802,9.47436749018668e-05,91.90397131323554,0.9013076640584801,27,0.9
0.7198039729934654,0.43832533414476754,0.19567996263504028,0.9999818801879883,0.6442543342503627,0.5690238864525374,0.01730579137802124,0.9999966025352478,0.8306957556140561,0.5585290692730658,-0.0421968549489975,0.9999983310699463,0.6877996571244075,0.9217755335895884,0.029403749853372574,0.9999902844429016,0.7969904557285508,0.9117085681027225,-0.02957480028271675,0.999994158744812,0.7183162073965804,1.180742014248612,0.16953715682029724,0.968238353729248,0.8067546425705171,1.1837414093044254,0.08254757523536682,0.9702301025390625,0.7320160450044141,1.4502116125608617,0.2365429401397705,0.965964138507843,0.8160910720434432,1.4383253341447675,0.17634151875972748,0.9464346766471863,0.6091536587002713,0.9148471847410504,0.07118506729602814,0.8389233946800232,0.8850363162233372,0.8940771356423334,-0.04099148139357567,0.9924923777580261,0.0066318511962890625,0.7423950564264791,0.9167420508461555,176.18968501258408,179.9553751733094,1.0,-0.0013385737948111637,0.009173523968622968,0.016163311596652023,-0.025385626114333003,91.76970272037003,0.9062829562230238,28,0.9333333333333333
0.724402453832561,0.44261618201252284,0.20623639225959778,0.9999820590019226,0.6465886472002311,0.5712277076195348,0.01952372118830681,0.9999966621398926,0.8335210081583647,0.563065130610698,-0.03443017974495888,0.9999983310699463,0.6901641195520188,0.9253490884266476,0.027978524565696716,0.9999899864196777,0.7996778227801898,0.9150675496849221,-0.028160518035292625,0.9999939203262329,0.720281432725012,1.1846695667286233,0.1635167896747589,0.96722412109375,0.8093033831069182,1.185349209588606,0.08191566914319992,0.9697606563568115,0.7345950142611412,1.4533922129966645,0.20558783411979675,0.9648858308792114,0.8189789227414559,1.442616182012523,0.15495239198207855,0.9443074464797974,0.6135267198088065,0.9202127679714421,0.0754477009177208,0.8493591547012329,0.8884824388993496,0.898078560656516,-0.02312619984149933,0.9928171038627625,0.005139857530593872,0.7449209711661043,0.9202083190557848,176.42437699894555,179.88579798603854,1.0,-0.0007780881061568319,0.001621662360614646,0.00420469340255971,-0.056419529987367996,91.6517035415373,0.9040661206984755,29,0.9666666666666667
0.7293850794342074,0.44692901050364325,0.20553162693977356,0.9999829530715942,0.6506918912240064,0.5760648462588946,0.009627304971218109,0.9999967217445374,0.8377269487494056,0.568819780698359,-0.03538674861192703,0.9999983906745911,0.6951064226558051,0.9303445765498337,0.022835712879896164,0.9999892711639404,0.8037514210217017,0.9193983715405916,-0.023031223565340042,0.9999934434890747,0.7254575585007129,1.192830023113888,0.1281360387802124,0.9667881727218628,0.8150956646491749,1.186303238499401,0.07172928005456924,0.9683076739311218,0.7398840511121628,1.4636968759069084,0.1458021104335785,0.9632065892219543,0.8244025225828521,1.4469290105036432,0.12673841416835785,0.939805805683136,0.6238699040092929,0.92750348653228,0.07214108854532242,0.8592185378074646,0.8947908137835197,0.9066457862440142,-0.049429405480623245,0.9933009147644043,0.00452953577041626,0.7494289218387534,0.9248714740452126,176.45291197679174,179.61136915007359,1.0,-0.00628903370056894,-0.01447079260258249,-0.040744030138000216,-0.1191834799741611,91.39239499526354,0.9001067766832233,30,1.0
0.7509235498602599,0.4627960127630913,0.15855540335178375,0.9999826550483704,0.6676788191201427,0.5960345880579259,-0.017913371324539185,0.9999966025352478,0.8612320242720322,0.588353750324639,-0.07508333027362823,0.9999983906745911,0.7155525801374453,0.9565852445267199,0.023252014070749283,0.9999890923500061,0.8273041127059333,0.9455512715226531,-0.023449696600437164,0.9999933838844299,0.7453278600163913,1.2277156075350895,0.13828696310520172,0.9671838879585266,0.838842002992199,1.2101284527840546,0.08387960493564606,0.9676482677459717,0.7616352022580205,1.5058563578635065,0.17607346177101135,0.9649620652198792,0.8475852377064178,1.4627960127630912,0.16084271669387817,0.941135048866272,0.6495780318364831,0.9578000433653451,0.03043510392308235,0.8649512529373169,0.9207814064238119,0.936735614032531,-0.10844473540782928,0.9937195777893066,0.004665195941925049,0.7714283464216892,0.9510682580246864,177.08834532924973,179.48483825703053,1.0,0.00020040301024196826,-0.006886075204354634,0.04996841418003639,0.059965077702690286,91.92455020010792,0.9146750590447358,31,1.0333333333333334
0.7678167259824852,0.474555487461775,0.14997361600399017,0.9999794960021973,0.6801775727976096,0.6116053469048769,-0.03038751147687435,0.9999962449073792,0.8786101887187447,0.6020013151645819,-0.08764516562223434,0.9999983310699463,0.7308473703404056,0.9777545994774149,0.023330720141530037,0.9999883770942688,0.8438301994228262,0.9662810398677634,-0.02352926693856716,0.9999930262565613,0.7564627860634685,1.2527153795161636,0.12872520089149475,0.9655625820159912,0.8545264567408806,1.2118865961196374,0.06350694596767426,0.9651620388031006,0.7784091624369696,1.5391554368353113,0.119600310921669,0.9654096961021423,0.8648781491638985,1.474555487461775,0.10292714834213257,0.940121054649353,0.669114632226628,0.9860260628485366,0.04786031320691109,0.8509988188743591,0.9411125554081166,0.963629745911226,-0.09586212038993835,0.9940314292907715,0.005706757307052612,0.7873387848816159,0.9720178196725892,179.0589830949692,179.7631524323581,1.0,-0.009082419485296615,-0.0010695278080908102,-0.07050403291821558,0.0453153984836793,92.08028654415976,0.9289225619868818,32,1.0666666666666667
0.7909609058345066,0.49113158440654264,0.15891580283641815,0.9999759793281555,0.7004580463468029,0.6310702306887589,-0.019244058057665825,0.9999957084655762,0.9047739494986418,0.6225933207334015,-0.07487975805997849,0.9999983310699463,0.7529936210970852,1.0078443286529968,0.02127741277217865,0.9999875426292419,0.8689911561132803,0.9958083799213928,-0.021513573825359344,0.9999926686286926,0.7780642495206272,1.289493593259786,0.10356900840997696,0.9662541747093201,0.8799880524482633,1.2363199576273398,0.06569264084100723,0.9632636308670044,0.8020375145473797,1.5863302887030346,0.06770827621221542,0.9663234353065491,0.8906597925854979,1.4911315844065427,0.10272904485464096,0.9383556842803955,0.6952732265818138,1.0154826561218873,0.09153652936220169,0.8162056803703308,0.9679879329313906,0.9973597213354521,-0.0835544615983963,0.9941977858543396,0.004887044429779053,0.8109923886051827,1.0018263542871948,179.53062727942634,179.78028912719336,1.0,-0.00409816507313228,-0.00016513593171817682,0.04245571461094633,0.0075603764338766635,92.01403614891458,0.9498545492204039,33,1.1
0.7959445717889343,0.49571165586848437,0.17104914784431458,0.9999720454216003,0.7047900932782845,0.6366163399276292,-0.018273603171110153,0.9999951720237732,0.9104372827881407,0.6288117175785801,-0.06484092772006989,0.9999983310699463,0.7581087612459557,1.0148610716006288,0.019388100132346153,0.9999865889549255,0.8745430889247425,1.0024301440934642,-0.019648198038339615,0.9999921917915344,0.7828674451005281,1.2968884421493228,0.08638410270214081,0.9660912752151489,0.8855374283052836,1.240996325243177,0.06347187608480453,0.9597423076629639,0.807618424953262,1.5973379550403823,0.0337989404797554,0.9663305878639221,0.8965523810961493,1.4957116558684844,0.08057006448507309,0.9342169165611267,0.7023185662019713,1.0223003264570778,0.11637602001428604,0.7789904475212097,0.9738364289452883,1.0058428086916757,-0.06143151968717575,0.9942921996116638,0.004468351602554321,0.8163259250853492,1.0086456078470465,179.69234938099606,179.83755248568795,1.0,-0.0021939067556764977,-0.0010929392437210763,0.0135496958947277,-0.006496238053335285,91.9297320256723,0.9522702362054916,34,1.1333333333333333
0.7988847256872184,0.5008413978968901,0.21886488795280457,0.9999604821205139,0.7089376858775251,0.6428151142841003,0.019433479756116867,0.9999940395355225,0.915682679883321,0.6346185590445209,-0.0026519426610320807,0.9999982714653015,0.7624732925601453,1.0208651914765918,0.00854329951107502,0.9999843835830688,0.8792724508847753,1.0081766085887556,-0.008865898475050926,0.9999912977218628,0.7869578326230982,1.3015608489860007,0.03944119065999985,0.9650335907936096,0.889593717087699,1.24455520565442,0.06411322951316833,0.9494211077690125,0.8120574205964928,1.6064310096392582,-0.0588691309094429,0.9637401103973389,0.8997706972809888,1.50084139789689,0.04633181914687157,0.9227999448776245,0.7158866069024521,1.0268964095033801,0.17565874755382538,0.7130775451660156,0.9779571708235888,1.0123446733097217,0.01694910228252411,0.9938634634017944,0.0046659111976623535,0.8208728717224603,1.0145209000326738,179.72129506463085,179.77380600476772,1.0,-0.0011128709914605124,0.0005648289326667375,0.008251162711918857,0.012554607332923438,91.85998874600314,0.9516806271049563,35,1.1666666666666667
0.801280111328608,0.5014350953376954,0.26190900802612305,0.9999425411224365,0.7110342536665926,0.6435377222066202,0.0613245889544487,0.9999915957450867,0.9163439492314721,0.6358797936061499,0.03234545513987541,0.9999982118606567,0.7630418152934322,1.020989173125207,0.0056567108258605,0.9999814033508301,0.8793172320421841,1.0080614738465794,-0.005979996174573898,0.9999903440475464,0.7881372787364873,1.300337946875799,0.040382735431194305,0.9650529026985168,0.8889985455185625,1.247080872521199,0.09046725183725357,0.9384745955467224,0.8127404400330297,1.6075197109480117,-0.037813104689121246,0.9607813954353333,0.8974767681170962,1.5014350953376954,0.07752498984336853,0.9090967774391174,0.7256184689801445,1.0163813591647002,0.24623794853687286,0.6461350917816162,0.9764407539830576,1.012745889098934,0.0799180120229721,0.9937254190444946,0.0043558478355407715,0.8211795236678082,1.0145253234858933,179.44580510593227,179.5896382690587,1.0,-0.0025975041213387212,-0.0060446535654323655,-0.011227630299857514,-0.05001768866158649,91.50097657022799,0.9490908169600473,36,1.2
0.7964423330221361,0.49989353961739974,0.2733735144138336,0.9999265670776367,0.7091424239964254,0.6408434411682326,0.08070866018533707,0.9999885559082031,0.9106096766629729,0.6325194837600921,0.04465976729989052,0.999998152256012,0.7591287630126273,1.013028990810248,0.004559556487947702,0.9999772906303406,0.873464297915777,1.000888289394364,-0.00485669169574976,0.9999887347221375,0.7838186154609844,1.2922019084553185,0.05620396137237549,0.9656288623809814,0.8814128191006121,1.2433858265379463,0.14206936955451965,0.9256701469421387,0.8077283832961186,1.5975272656000912,0.02132302336394787,0.9576729536056519,0.8906657338213414,1.4998935396173998,0.22572946548461914,0.8894336223602295,0.7320890234789275,1.0005231633475102,0.29053330421447754,0.5848179459571838,0.9693304014246372,1.0062325016648592,0.1309511959552765,0.993166446685791,0.004764080047607422,0.8162965304642021,1.006958640102306,179.4235974409053,179.81143879253324,1.0,0.001330556109543772,-0.009477546071810582,0.028362036133038254,-0.025158667252382496,91.58809894401494,0.9349647907775849,37,1.2333333333333334
0.7935212612928714,0.49742492862716153,0.2527344822883606,0.9999201893806458,0.7060873639303429,0.6389058091025019,0.07336784154176712,0.9999866485595703,0.9052855418854971,0.6301205946367429,0.022292548790574074,0.9999980926513672,0.7563473173219424,1.0081695046931027,0.006836266256868839,0.9999739527702332,0.8693476301004338,0.9960844900997963,-0.007118412759155035,0.9999874830245972,0.7804877012232049,1.2882207412824334,0.08303562551736832,0.9645737409591675,0.8748252184979325,1.2412724564980055,0.14428330957889557,0.9114212989807129,0.8038825994872714,1.5882002435370557,0.11395736038684845,0.9516277313232422,0.8847363837053549,1.4974249286271615,0.2797568142414093,0.86221843957901,0.7286113023686945,0.9890751422468379,0.26814064383506775,0.5317197442054749,0.9633545402506012,1.0013044443828274,0.10978849232196808,0.9930691719055176,0.005051761865615845,0.812847473711188,1.0021269973964495,179.53266438090859,179.06398726109288,1.0,0.0028858525526550553,-0.0008363759861143141,0.011897834463326712,0.06550118512362224,91.64642412783998,0.932551990892133,38,1.2666666666666666
0.7941021738940517,0.49616822438119573,0.22325411438941956,0.9999154806137085,0.7051020262049212,0.6383399741748212,0.055806033313274384,0.9999840259552002,0.9023020119167604,0.6283700532347719,-0.007633543573319912,0.9999980926513672,0.7585426944359451,1.005554651775963,0.00725734094157815,0.9999711513519287,0.8680710109189154,0.9936822446390577,-0.007519529201090336,0.9999866485595703,0.778882697869446,1.2876017068665935,0.08572224527597427,0.9646839499473572,0.8699359157374839,1.2427704826653436,0.15846353769302368,0.8874030709266663,0.8017310902988505,1.58400763992718,0.10995062440633774,0.9495200514793396,0.8820228520626878,1.4961682243811958,0.30164554715156555,0.8396567106246948,0.7371355246016645,0.9693836865905352,0.3105124533176422,0.48011329770088196,0.9607096770291502,0.9986857890231049,0.06339915841817856,0.9926031827926636,0.0057478249073028564,0.8133068526774302,0.9996184482075104,179.71686421717627,177.69805311621894,1.0,0.019182542941387402,0.0005669430388074159,0.12239075005643302,0.010518150459728618,92.09364714705872,0.9308801624959994,39,1.3
0.7945665645547996,0.4986226639104428,0.17666085064411163,0.9999043941497803,0.7077888565343268,0.6400372551593596,0.027858680114150047,0.9999787211418152,0.902849625560511,0.6290468590126937,-0.04244276136159897,0.9999979734420776,0.7646197845854424,1.0075996842404387,0.007792199961841106,0.9999678134918213,0.8706823702325339,0.9967401994176179,-0.008048499003052711,0.9999856948852539,0.7828479580057576,1.2893814727011874,0.09625133126974106,0.9595133662223816,0.8703003429556001,1.250970611002613,0.1682184338569641,0.8498912453651428,0.8022462645273553,1.5830585540334807,0.13190850615501404,0.9402964115142822,0.8805994590377899,1.4986226639104427,0.3231114447116852,0.8039451241493225,0.7485304156504359,0.9622906078288799,0.2996775805950165,0.43291613459587097,0.9613319707383451,0.9993285299066945,0.058890003710985184,0.9907293915748596,0.0063325464725494385,0.8176510774089882,1.0021699418290282,179.92216881534588,177.5325130618414,1.0,0.02616395283296829,0.01336739977189526,0.046980483325554594,0.08627156127150681,92.94322929993007,0.9348650724231586,40,1.3333333333333333
0.8019735904924731,0.5099676684709648,0.1936495304107666,0.9998787641525269,0.7171653465385212,0.6459191047695191,0.04334468021988869,0.9999735951423645,0.9092023891216059,0.6348189864072158,-0.023295020684599876,0.9999977350234985,0.774257331887117,1.0156180426338672,0.00846817810088396,0.9999641180038452,0.8788169498985001,1.0051100743377765,-0.008724543265998363,0.9999844431877136,0.7910994673045296,1.298432747685164,0.09832443296909332,0.9581857919692993,0.8759784421750018,1.2686432607056686,0.15685126185417175,0.8326748609542847,0.8079908226896239,1.5915282279118885,0.13403382897377014,0.9356357455253601,0.8854038836898309,1.5099676684709649,0.3003360629081726,0.7818746566772461,0.759903383026403,0.9620551550103453,0.2531749904155731,0.3909485936164856,0.9684479173312881,1.006284686730531,0.04011669382452965,0.9894564151763916,0.006351381540298462,0.8265371408928085,1.010364058485822,179.8903147723763,177.14622030569362,1.0,0.021942613472723253,0.008236023765801842,-0.03046604835507109,-0.036142638983394204,93.03993605492975,0.9264691644244922,41,1.3666666666666667
0.813807590001421,0.5254595786427225,0.20525307953357697,0.999868631362915,0.7273473086295581,0.6569811678913775,0.05161750316619873,0.9999722242355347,0.9205333536149678,0.6430573658096518,-0.020895352587103844,0.999997615814209,0.7865310388540427,1.0273428105731504,0.013349008746445179,0.9999631643295288,0.8897309372211429,1.0167365621091524,-0.013606877997517586,0.999984085559845,0.8029410441748115,1.312583002044983,0.11601394414901733,0.9559588432312012,0.8858324812132407,1.282737081018423,0.15295159816741943,0.8229373097419739,0.8170654679995942,1.60383626274085,0.1542598456144333,0.9327492713928223,0.8951463021815362,1.5254595786427225,0.2915322184562683,0.7687956690788269,0.770728060466519,0.9773540241118999,0.21524517238140106,0.35533949732780457,0.9801741053318401,1.017553796807307,0.0021372016053646803,0.9887994527816772,0.00787845253944397,0.8381309880375928,1.0220396863411514,179.48377840873363,176.9628506008989,1.0,0.017608256631077523,0.002387142825099995,-0.03511388304379249,-0.04554081636976095,93.21118980762593,0.9157643234719948,42,1.4
0.8229722400898003,0.534237653591839,0.24885740876197815,0.9998493790626526,0.7342221689462799,0.6656780234512361,0.08085206896066666,0.9999694228172302,0.92730070196,0.6487316633869107,0.008077732287347317,0.9999974966049194,0.7940978275604009,1.0331730709613294,0.014666180126369,0.9999610185623169,0.8980921666029157,1.0227803407109561,-0.014926102943718433,0.9999833106994629,0.8100832069177892,1.3181998214549355,0.11421845108270645,0.9535500407218933,0.8912905810854366,1.2905013834963779,0.1478082239627838,0.8076209425926208,0.821862242191515,1.6094227618778414,0.13453231751918793,0.9271619915962219,0.9007310215319243,1.534237653591839,0.27411729097366333,0.748188316822052,0.7843933214437541,0.9795609037818465,0.23027214407920837,0.3217839002609253,0.9880174704109197,1.0237466207490222,0.007373442407697439,0.9878436326980591,0.00953027606010437,0.8460949970816584,1.0279767058361429,179.10616679615543,176.32660293021175,1.0,0.02151146274883121,-0.0024957894720121407,0.02888546051778786,-0.03727492721735016,93.5469046548172,0.9084902532108928,43,1.4333333333333333
0.8278141770693414,0.5324263747807909,0.2471810132265091,0.9998385310173035,0.7389380716100019,0.66467544920759,0.07205645740032196,0.9999666213989258,0.9286561233736765,0.6491810781681238,0.017200525850057602,0.9999974370002747,0.7959332664727721,1.0295350359385667,0.013028955087065697,0.9999593496322632,0.9002516300770418,1.0203812789086881,-0.01327874232083559,0.9999828338623047,0.8111023556034576,1.3134199230031984,0.10211304575204849,0.9537057280540466,0.8924899864066904,1.2877478612926339,0.1482030749320984,0.7993985414505005,0.8206867324966213,1.6012064982449234,0.12484072148799896,0.9253714084625244,0.9002763095575843,1.532426374780791,0.2684497535228729,0.7385801672935486,0.7838179188175373,0.9634259101604415,0.2711838185787201,0.2911183834075928,0.9897678132227254,1.0235722404143652,0.026585951447486877,0.9868375062942505,0.008719146251678467,0.8480924482749069,1.0249581574236275,178.84882956002807,176.51448280802936,1.0,0.018692299710071584,-0.01759833336448052,-0.020769220590011288,-0.11180641061022602,93.86373369421719,0.9094972889492722,44,1.4666666666666666
0.8306179478005483,0.5315979043529659,0.2617650330066681,0.9998286366462708,0.7411629789101286,0.6650214936797829,0.08090756833553314,0.9999656677246094,0.9307287194118818,0.6512250941495071,0.025684639811515808,0.9999973773956299,0.797708567377156,1.028651629750926,0.012879063375294209,0.9999576210975647,0.9031674148646044,1.020357544378102,-0.013128029182553291,0.9999821782112122,0.8122443986955121,1.3123718083173934,0.10203732550144196,0.9522671103477478,0.8962543161798874,1.286204957809017,0.1466347873210907,0.7881484031677246,0.8216533050045312,1.5955307058779367,0.12209814786911011,0.9211179614067078,0.9015111428012132,1.531597904352966,0.26706209778785706,0.7221835255622864,0.785035843301117,0.9696510598805075,0.2497468739748001,0.26469457149505615,0.9918920185692499,1.025172811560798,0.026451941579580307,0.9863632917404175,0.0077547430992126465,0.8504379911208801,1.0245045870645142,178.97027520925187,177.28320879145852,1.0,0.010632168988006157,-0.012636552184025098,-0.06263714825497448,0.038613361944614004,94.3419571819,0.9149227471448979,45,1.5
0.832391655143617,0.533010742815461,0.27676254510879517,0.9998149871826172,0.7439440729342534,0.6661902915162086,0.09576846659183502,0.9999642968177795,0.9339425100938092,0.6539724690494664,0.040301281958818436,0.9999973177909851,0.8023620716307711,1.0298133985502809,0.012022260576486588,0.9999555349349976,0.9067505732671867,1.0206025703122872,-0.012279540300369263,0.9999814629554749,0.8137618854599921,1.3064462468649596,0.08093976229429245,0.9529882669448853,0.9008102926770544,1.2831730408483373,0.14635062217712402,0.7833383679389954,0.8230668133672723,1.5904120721166695,0.06791809946298599,0.9195409417152405,0.904360484150233,1.5330107428154611,0.23027317225933075,0.7150343060493469,0.7878136361360148,0.9745436497937428,0.2789621949195862,0.23954196274280548,0.9968129843949081,1.0280345324544822,0.06972919404506683,0.985516369342804,0.006856769323348999,0.8545563224489789,1.025207984431284,179.51700650114267,177.88986847126404,1.0,0.021333350463520126,-0.006814214835796349,0.08159017985530011,0.04461098331317137,94.08439128501753,0.9182097230377856,46,1.5333333333333334
0.8334544716546146,0.5324539513834368,0.2420824021100998,0.9998111724853516,0.7487016439836819,0.6656607276780286,0.06562548875808716,0.9999638199806213,0.9390662833335377,0.6530001941928226,0.008758703246712685,0.9999973177909851,0.80512636146603,1.024137281535065,0.012511174194514751,0.9999539852142334,0.9094269072067721,1.0154365514623982,-0.012758922763168812,0.9999809861183167,0.8136988149461284,1.2997024694225914,0.09793435037136078,0.9493767619132996,0.9040779272073591,1.282202294150168,0.13505536317825317,0.7736729383468628,0.8226430423322839,1.5795662234410532,0.11096999794244766,0.9131693243980408,0.9043428658710334,1.5324539513834368,0.23375339806079865,0.6992794275283813,0.7838878549452325,0.987143310004189,0.1976347416639328,0.21764691174030304,1.00048120970824,1.0275120651379728,0.007810740265995264,0.9849119186401367,0.0071093738079071045,0.8572766343364011,1.0197869164987314,179.95131276513567,178.79064496105204,1.0,0.0254008092755611,-0.03805190435390124,0.03219217839568536,-0.24650949375371076,94.17648555754346,0.909845913645412,47,1.5666666666666667
0.8344064385358317,0.5289340444751743,0.1968134492635727,0.999809741973877,0.7536372662601469,0.6638271970050522,0.026195507496595383,0.9999638199806213,0.942641999227714,0.6503757276877358,-0.02038216032087803,0.9999973177909851,0.8079630349812071,1.0185161584711386,0.0122527489438653,0.999954342842102,0.9130282699389182,1.0100089305174162,-0.012495582923293114,0.9999812245368958,0.8123184440328718,1.2938268467367313,0.0895557552576065,0.9483667612075806,0.9050118415598079,1.2794013029451632,0.12383434921503067,0.7696380019187927,0.8210857501891634,1.5649204315962797,0.09425593167543411,0.9140071272850037,0.9040379790482315,1.5289340444751742,0.22007353603839874,0.7006754875183105,0.7824791864575775,0.9981936010905904,0.1834968477487564,0.1980496197938919,1.00040511366313,1.0253574657784936,-0.006077936384826899,0.984451949596405,0.007565200328826904,0.8604956524600627,1.0142625444942774,179.0540129606438,178.51913669766904,1.0,0.035879628434266696,-0.031187759111507063,0.08306503117654354,0.05374454068164556,94.07881487119738,0.9124388085671613,48,1.6
0.8370331060484216,0.5237242322476888,0.11425694078207016,0.9998252987861633,0.7591805092244728,0.6623067658227791,-0.05927921459078789,0.9999667406082153,0.9508445054613485,0.6511784912099007,-0.0736527219414711,0.9999972581863403,0.8096683186044961,1.0131090027746907,0.009680529125034809,0.9999571442604065,0.9153199176652593,1.0070394098317548,-0.009915996342897415,0.9999818801879883,0.8091385871348767,1.2666789121232294,0.06807781755924225,0.9513726830482483,0.9041674201077836,1.2689502627316829,0.08619605749845505,0.7829068303108215,0.8176456006557754,1.527994028673937,0.05345272272825241,0.9204447865486145,0.9024007318079472,1.5237242322476887,0.14307768642902374,0.7219687104225159,0.7597901023673275,0.999427375936345,-0.027155671268701553,0.2699478268623352,0.9989168958899428,1.0203067079627324,-0.1630578339099884,0.9856327176094055,0.006270706653594971,0.8624941181348776,1.0100742063032226,178.01572024038987,177.95904752155818,1.0,0.027636594598957443,-0.01687659575888785,-0.06176910953196997,0.10769367739785508,94.90185005941063,0.944208891264141,49,1.6333333333333333
0.8752053958496842,0.5393777952779669,0.101734459400177,0.999841034412384,0.7912138760568594,0.6820291658157024,-0.07771169394254684,0.9999697208404541,0.9886004656519959,0.6739387906067928,-0.07745027542114258,0.9999973177909851,0.838441724615312,1.042254440317385,0.006020598579198122,0.9999601244926453,0.9464275762644194,1.0375396307829319,-0.006213946733623743,0.9999826550483704,0.8327148010361598,1.288597191630031,0.06951496750116348,0.9530357122421265,0.9317584325268471,1.3042921229482956,0.07803232967853546,0.7930101752281189,0.8408785557390255,1.5393777952779668,0.06678731739521027,0.9249507188796997,0.9293190954961388,1.5690478430487256,0.12957388162612915,0.7401069402694702,0.7751061237993233,1.0339545494932156,-0.07787713408470154,0.3397241234779358,1.028712301012599,1.047706531270696,-0.18603995442390442,0.9867247939109802,0.004426002502441406,0.8924346504398657,1.0398970355501584,176.80372737697033,177.3802662286093,1.0,0.0313714496888767,-0.0038714081099182986,0.022512402431421632,0.10470299296063425,94.96921926392926,0.9736488607001879,50,1.6666666666666667
0.8997629610865326,0.5422339936569459,0.09501734375953674,0.9998556971549988,0.8105460919883267,0.6947955397143556,-0.08749238401651382,0.9999725818634033,1.0123286099646704,0.6898265309413015,-0.08147251605987549,0.9999974370002747,0.8572833920736412,1.06111587732233,0.0046653649769723415,0.999963104724884,0.9680966280885701,1.0572795845316776,-0.004854046739637852,0.999983549118042,0.8480413887581935,1.3005008138759706,0.08198526501655579,0.9521758556365967,0.9494503291442417,1.326189400347108,0.08220436424016953,0.8001636862754822,0.8567587727348691,1.5422339936569458,0.09435845166444778,0.9280849695205688,0.9457291506689313,1.5985434320372909,0.12719735503196716,0.757514238357544,0.7822224200614613,1.0556778637447242,-0.09222482889890671,0.40414753556251526,1.0479895151617042,1.0667350544126053,-0.16928979754447937,0.9877810478210449,0.0026680827140808105,0.9126900100811056,1.0591977309270038,175.723757448285,176.8162246839559,1.0,0.02685768633190241,-0.002423848542929343,-0.040020030884414914,0.011919462630366017,95.28809359640319,1.011351705153303,51,1.7
0.9151603196167928,0.5483456139327008,0.11581116914749146,0.9998680353164673,0.825313620132492,0.7078250535989689,-0.07772175222635269,0.9999751448631287,1.032381513366151,0.7060749155016045,-0.07010676711797714,0.9999974966049194,0.8753378917904793,1.0781136827456788,0.0038310810923576355,0.9999659657478333,0.9882489435155766,1.076294665618891,-0.004037315025925636,0.9999845027923584,0.8641684615930985,1.317212473596372,0.09796382486820221,0.9527387022972107,0.9680767753485008,1.3503300538319587,0.0869240015745163,0.8104826807975769,0.8727771527015282,1.5483456139327008,0.11514343321323395,0.9315666556358337,0.9627539758694931,1.6286538119622855,0.12472867965698242,0.7752374410629272,0.793379198397392,1.0760559076039282,-0.05345200374722481,0.46199512481689453,1.0672288733652824,1.086957795364362,-0.11513897031545639,0.9883937835693359,0.0009223222732543945,0.9317934176530279,1.0772041741822849,175.19235945877804,176.88558138446717,1.0,0.01405425923072134,-0.014812200903674792,-0.09949520385912623,-0.0922619969490822,96.77084766902381,1.0344683788875084,52,1.7333333333333334
0.9170786179175376,0.5406896602466925,0.13831230998039246,0.9998785257339478,0.8269551188538056,0.7079691010385399,-0.057742081582546234,0.9999774694442749,1.0344373945690521,0.7075926695759783,-0.059042591601610184,0.9999974966049194,0.8767539846920136,1.075503005197652,0.004559379070997238,0.9999683499336243,0.988744920000532,1.0756670254019076,-0.004736721515655518,0.9999850988388062,0.8648810273392477,1.3097267999561935,0.1309424340724945,0.9492419362068176,0.9689850698033879,1.3511765959355477,0.0888584554195404,0.8152093887329102,0.87361139606493,1.5406896602466924,0.1624014973640442,0.9297855496406555,0.9621331229407272,1.6300899535926963,0.13055555522441864,0.783814549446106,0.7868320867212967,1.0784032989681387,-0.037597522139549255,0.5142165422439575,1.0663796784739896,1.0879026609702944,-0.10293750464916229,0.9884434342384338,0.00019821524620056152,0.9327494523462728,1.0755850152997797,174.93338021400177,177.3049860399787,1.0,0.0014128183023724562,-0.01917680362810202,-0.09664986321143412,-0.03324517709883302,97.80019266559589,1.049215635528269,53,1.7666666666666666
0.9249210320811059,0.5419028531644757,0.14564840495586395,0.9998892545700073,0.8334798862537774,0.7128172143956025,-0.05253343656659126,0.9999796152114868,1.0423196814046432,0.7132960275007326,-0.047595392912626266,0.9999974966049194,0.8848744715162422,1.0795433621800774,0.0024598478339612484,0.9999707341194153,0.9972923001898472,1.0826815314667937,-0.002672104397788644,0.9999858140945435,0.8725874274831302,1.3099414477038944,0.08027572929859161,0.9492695927619934,0.9776316827361192,1.3607793107077542,0.09051821380853653,0.8191440105438232,0.8812875112597277,1.5419028531644758,0.06659200042486191,0.930252730846405,0.9687215010885022,1.6424854538188214,0.10429255664348602,0.7930134534835815,0.7887683082229944,1.0884422427197178,-0.01980939880013466,0.5615511536598206,1.0726641836952866,1.0965444522233103,-0.07896505296230316,0.9885206818580627,0.000250011682510376,0.9410833858530447,1.0811124468234354,174.7993661421365,177.76772530752044,1.0,0.003477023324407355,-0.02776288526683154,0.015971033460261113,-0.06555646401564803,99.57672946944581,1.0549839150110458,54,1.8
0.9281136761196176,0.5457476807907062,0.15929754078388214,0.999893307685852,0.8393645424187859,0.7162178030853875,-0.04805915430188179,0.9999815225601196,1.046699240261151,0.7163971867456185,-0.021285120397806168,0.9999971985816956,0.890356656823225,1.085228922979242,0.0004828374949283898,0.9999727010726929,1.0016188127624104,1.0878179678636497,-0.0006913418765179813,0.9999861717224121,0.8786642497199533,1.3113460710073612,0.10489040613174438,0.9454504251480103,0.9841577323335348,1.3700484129364818,0.09638245403766632,0.8205965161323547,0.8874872066522138,1.5457476807907062,0.11777551472187042,0.9283820390701294,0.9736940488050908,1.651632686743295,0.12245374917984009,0.8005015254020691,0.7908499532839515,1.0950630713981961,-0.03453848510980606,0.6038010120391846,1.0714618724246585,1.0933786892326378,-0.028033584356307983,0.9850451350212097,9.319186210632324e-05,0.9459877347928176,1.0865234454214459,174.88428456317124,178.58786191052684,1.0,0.0009918584424708796,-0.0006051637444112241,-0.01957198790059472,0.21347514948263946,99.20065905304514,1.055954378071412,55,1.8333333333333333
0.9247505553069724,0.5438635861672776,0.16815993189811707,0.9998979568481445,0.8377431363371597,0.7138231669148049,-0.04460573568940163,0.9999832510948181,1.0436601166573782,0.71272760147441,-0.019525032490491867,0.9999969005584717,0.8881247847148395,1.0830490901662888,0.0012801873963326216,0.9999744296073914,0.9986425448107836,1.0849843392562262,-0.001490474329330027,0.999986469745636,0.8767554967093556,1.3093755042393296,0.13957355916500092,0.9395480751991272,0.9819884853194116,1.3698843382262906,0.1058468371629715,0.8209072947502136,0.8859377163580102,1.5438635861672776,0.18486300110816956,0.9235811233520508,0.9712684573051619,1.6528606462731779,0.13115014135837555,0.8035353422164917,0.7885020844753222,1.0928793682145836,-0.03444303944706917,0.6419636607170105,1.0654486342481069,1.0873106205820051,-0.03257717192173004,0.9818350076675415,0.0005706250667572021,0.9433836647628115,1.0840167147112576,174.8817439330242,178.82404201925883,1.0,-0.0013397964889220887,0.002206072831470392,-0.018013843775520424,0.02173072385601713,98.77333103876938,1.0503629980894649,56,1.8666666666666667
0.9183328742573211,0.5398682832043892,0.1575322449207306,0.9998725652694702,0.833210024041056,0.7046382679635195,-0.06796786934137344,0.9999847412109375,1.034215292690182,0.7031762044957217,-0.017957136034965515,0.9999927282333374,0.8799613263926034,1.0744556601235,-0.0010022739879786968,0.9999760985374451,0.9899701254440808,1.0751823507801512,0.000832023739349097,0.9999860525131226,0.8699513129744187,1.297014575918745,0.16570575535297394,0.9354223012924194,0.9741484026481365,1.3565187715557183,0.14060437679290771,0.8155920505523682,0.8791977507658738,1.539868283204389,0.2517102360725403,0.9222720861434937,0.9633014976319282,1.6360891399639343,0.21472588181495667,0.8072900176048279,0.7806555809740288,1.0852463864929736,-0.06382325291633606,0.6752265095710754,1.0423371361170024,1.0664947486584369,-0.03818119317293167,0.9092116951942444,0.0007678568363189697,0.9349657259183421,1.0748190054518256,175.24431579953645,179.00308033298282,1.0,-0.004900205542775454,-0.0019175970647505377,-0.02791149213155563,-0.03208458842258175,97.58343234210972,1.0425919355641167,57,1.9
0.9140622781039079,0.5334299776520345,0.18481987714767456,0.9998106956481934,0.8329865461370299,0.6996914362253444,-0.05973488837480545,0.9999859929084778,1.0286105354179411,0.6981417420953708,0.021421855315566063,0.9999814033508301,0.8738353765995116,1.0670880785753927,-0.0036055301316082478,0.9999776482582092,0.9827950646026169,1.0676754058317506,0.0034403610043227673,0.9999855756759644,0.8644562866670965,1.2857092943101278,0.17012399435043335,0.9284560680389404,0.9674386715831891,1.3449326427720314,0.1562242954969406,0.8058621883392334,0.8734162677139298,1.5334299776520344,0.2716275453567505,0.9182893633842468,0.9568289107023626,1.6235508424105507,0.2533305585384369,0.8058909773826599,0.7739251606894012,1.0792249354063999,-0.028290491551160812,0.7002192139625549,1.0092691985344207,1.0237147891054457,0.04313221201300621,0.8219369053840637,0.0008195340633392334,0.9283152206010642,1.0673817422035716,175.471986838195,179.01057426114485,1.0,-0.0015048399701150287,-0.00015914326278043849,0.02538210981284461,0.013177662225404623,96.65318757608655,1.0447135252512378,58,1.9333333333333333
0.9164882876187269,0.5419151524349036,0.16716794669628143,0.9997915029525757,0.8371303031421925,0.7006814254651095,-0.05595776438713074,0.9999870657920837,1.030892687910005,0.6995089057412253,0.000599615799728781,0.9999735951423645,0.8752086264209208,1.0693122433348792,-0.0011355020105838776,0.9999793171882629,0.9844752923423419,1.0704423066434918,0.001008656108751893,0.9999857544898987,0.8661322691226347,1.2900209018804014,0.19009235501289368,0.9266473054885864,0.9692433758676606,1.3476219495601978,0.14626090228557587,0.8100510835647583,0.877015508221922,1.5419151524349037,0.297048956155777,0.9189774394035339,0.9588280042063467,1.6265344013831757,0.2329612672328949,0.8141516447067261,0.775674811410523,1.0812207032385777,-0.025599926710128784,0.7193323373794556,1.0033621867583182,1.0223446081086558,0.0037994738668203354,0.7426366209983826,0.0006189346313476562,0.9298419593816314,1.0698772749891854,175.17115309933828,178.9931666659923,1.0,-0.0013007454853402487,0.003938926806762615,0.0015189811079264716,0.03009493743493193,96.49009084918312,1.0265185572388233,59,1.9666666666666666
0.9219011209885265,0.5552911754003035,0.1638437956571579,0.9997953176498413,0.8417827965685054,0.705352124136768,-0.0550200454890728,0.9999880790710449,1.0372599866487833,0.7046370589683287,-0.005921606440097094,0.9999703168869019,0.881732971573091,1.0757384934399703,0.006368135567754507,0.9999807476997375,0.9905478885689355,1.0767035813945771,-0.006480302661657333,0.9999858140945435,0.8748177958945804,1.3019251299948018,0.189757838845253,0.9305086731910706,0.9752982033135292,1.35544739418297,0.1392039954662323,0.8233468532562256,0.8845561834158068,1.5552911754003036,0.2821555733680725,0.9246587753295898,0.9649831723300237,1.637055331633633,0.21803775429725647,0.828076183795929,0.7813862126980209,1.0879614255753762,-0.006555425934493542,0.7408204674720764,1.002079962287472,1.0203652651071153,0.014530385844409466,0.6700706481933594,0.0003750324249267578,0.9361404300710133,1.0762210374172738,176.0477094030517,178.96630157971606,1.0,0.0023786084212419675,-0.004906270533728126,0.031204565170479395,-0.07506049347232216,96.66431685477902,1.0020112287632,60,2.0
0.9358368781114642,0.5803455464654643,0.16607239842414856,0.9997779726982117,0.855273078360684,0.715664658944,-0.051824361085891724,0.9999889135360718,1.050462892415573,0.7171994946878633,0.005308807361871004,0.9999644160270691,0.8945688746657663,1.0917097941039269,0.0014375795144587755,0.999981701374054,1.0049827245216891,1.0923419243430508,-0.001565928803756833,0.9999849200248718,0.8953730476478258,1.3230771874032656,0.1778837889432907,0.9339576959609985,0.9894919590485229,1.3717808505242028,0.13417229056358337,0.8326034545898438,0.903691002931357,1.5803455464654643,0.27097344398498535,0.9294708371162415,0.9792951978454068,1.6598931755244752,0.2066238671541214,0.8396995663642883,0.7943755975588149,1.1036304420408813,-0.03257749229669571,0.7603280544281006,1.0059057822678013,1.0266545752443985,0.021285610273480415,0.605177640914917,0.0007933676242828369,0.9497757995937277,1.0920258592234888,178.34731248513785,178.85398627576257,1.0,-0.0004891028230922556,0.0003835106764833921,-0.02126328064827904,0.03927787231257267,96.29363771549411,0.9691566227143591,61,2.033333333333333
0.9445608540759541,0.5969796493352272,0.16853775084018707,0.9997515082359314,0.8636088085314457,0.7239018441334668,-0.042554568499326706,0.9999895691871643,1.0602565953384404,0.7302312734300417,0.0017223823815584183,0.9999607801437378,0.9031486483339931,1.101883600717163,0.0021949687507003546,0.9999827146530151,1.014240575593173,1.1020977018185205,-0.002315826714038849,0.999984860420227,0.907953815167532,1.33630020723217,0.176161989569664,0.9357362985610962,0.998798402682376,1.3840407944675996,0.11529853194952011,0.8410526514053345,0.9139530118518173,1.596979649335227,0.2617379426956177,0.9328606724739075,0.9890022585978065,1.673926001816192,0.16738495230674744,0.8503794074058533,0.805485365683284,1.1144514168626447,0.0075841560028493404,0.7711828947067261,1.0245991571006123,1.043147949798589,0.042483385652303696,0.5481359362602234,0.0032404661178588867,0.958694611963583,1.1019906512678417,179.85595293519316,178.8004822908523,1.0,-0.0018780216816956883,-0.004391315916020356,-0.010660609463665935,-0.03680247732715031,96.08228839047118,0.9469474936139024,62,2.066666666666667
0.9479868322750492,0.6033421737680139,0.16749271750450134,0.9997287392616272,0.8658112664639638,0.7290833635253832,-0.04257389158010483,0.9999902844429016,1.0567443295942696,0.7344684609554153,-0.0023181403521448374,0.9999568462371826,0.9061136958906435,1.1058731368516694,0.0037205417174845934,0.9999834895133972,1.0162899226462452,1.1056043434030804,-0.003839746117591858,0.9999845027923584,0.913673789070036,1.3455176239313313,0.17144891619682312,0.9356834888458252,1.0014979890430165,1.3888204704492793,0.10539422184228897,0.845581591129303,0.9215393558991722,1.603342173768014,0.25122302770614624,0.9333717823028564,0.9927286173847916,1.678430283641337,0.16072025895118713,0.856166422367096,0.8114993949227008,1.1198209585646313,-0.01998268812894821,0.7863819599151611,1.0312358196415818,1.0515399464036843,0.019865192472934723,0.5003246068954468,0.0027477145195007324,0.9612018092684443,1.1057387401273748,179.94048803707352,178.74463151325486,1.0,-0.005495685627053284,0.0001859376560701079,-0.027114102794479865,0.03447782655053385,95.96551254127749,0.9390943441827304,63,2.1
0.9515168399347175,0.6130453767403897,0.16857491433620453,0.999705970287323,0.8692264687843207,0.7362271018508827,-0.03672915697097778,0.9999908208847046,1.0574127583411423,0.7426720695238421,-0.004407298751175404,0.9999500513076782,0.911141724795663,1.1166121764226935,0.0061316778883337975,0.9999842643737793,1.0205588630317204,1.1134940680993541,-0.006255154963582754,0.9999842047691345,0.9203446259767804,1.360251995498872,0.1822429597377777,0.9365688562393188,1.0066453780560969,1.3966952022388637,0.11446347087621689,0.8508507609367371,0.9284986031772212,1.6130453767403898,0.2762790024280548,0.9346165060997009,0.9987594761747179,1.68415781765545,0.19386014342308044,0.8621895909309387,0.8194275428946942,1.1262767498228787,-0.017292259261012077,0.797022819519043,1.038211658034101,1.0489506472397816,0.018869418650865555,0.45532935857772827,0.003270089626312256,0.9658502939136917,1.1150531222610238,179.68428332088374,178.7587466728509,1.0,-0.005776953778891154,0.0233065004597181,-0.0018900138681897261,0.17456426867916378,94.65580602293511,0.9412567862974437,64,2.1333333333333333
0.952467464108769,0.6188372929879146,0.1683303415775299,0.9997049570083618,0.8679902944181705,0.7417762935888401,-0.03708662465214729,0.9999913573265076,1.0578882608494478,0.749292667263761,-0.0036822198890149593,0.9999486207962036,0.9133455876176911,1.122437630024942,0.0057692755945026875,0.999984860420227,1.0212859689622966,1.1178497297013732,-0.005884082522243261,0.9999839663505554,0.9226815368487628,1.3711783829472703,0.17764635384082794,0.9383198022842407,1.008772452557382,1.4016228822088599,0.11452130973339081,0.8576397895812988,0.9319195814799391,1.6188372929879147,0.26683491468429565,0.9365798830986023,1.0023583750429916,1.6890690192063362,0.19212132692337036,0.8683533668518066,0.8227474058375543,1.130682010751823,-0.01903361640870571,0.8115572333335876,1.0425493626917457,1.0554447129305689,0.03963615745306015,0.42576220631599426,0.0038003623485565186,0.9673157782899939,1.1201436798631574,179.98676221453115,178.7533562562739,1.0,-0.015542004304988522,0.009484361383276187,-0.07863984805226945,-0.1122044916283798,94.36084745766088,0.9395193850862801,65,2.1666666666666665
0.9508469183953622,0.6181381345996358,0.16911032795906067,0.9997050166130066,0.8662287239370069,0.7433376538445676,-0.03729047626256943,0.9999918937683105,1.0557699445599853,0.7490997036522067,-0.0015035831602290273,0.9999474883079529,0.9124869648212192,1.1259083383902952,0.005709470249712467,0.9999854564666748,1.0194992134705685,1.119070893697749,-0.00582845788449049,0.9999838471412659,0.9218788332263025,1.3742387161011707,0.1801353394985199,0.9394576549530029,1.0069865023301303,1.4010181873884278,0.1112418994307518,0.86429762840271,0.9313039892065774,1.618138134599636,0.27469000220298767,0.9379835724830627,1.0019410485880766,1.688437015783613,0.19140256941318512,0.873958945274353,0.822712849004024,1.130411882191442,-0.03205735236406326,0.8263672590255737,1.0476872499749608,1.056858124230409,0.03368426114320755,0.4024457335472107,0.0029146969318389893,0.9659930891458939,1.122489616044022,179.95288215259097,178.46459048305672,1.0,-0.006886582723045195,0.02244349811172764,0.06784200781752013,0.10169308437664483,93.23851678618115,0.9506001571736987,66,2.2
0.9498683462930029,0.6234262008242208,0.17071852087974548,0.9997058510780334,0.8671669328061702,0.7500995323679734,-0.03613731265068054,0.999992311000824,1.0575226383257332,0.7529227667282568,0.002416162984445691,0.9999465346336365,0.914096865864921,1.13226755649501,0.00519209261983633,0.9999861717224121,1.0216905125255769,1.1251628771986832,-0.005296261515468359,0.9999841451644897,0.9243432120995859,1.3797039878680857,0.18665778636932373,0.9419506788253784,1.0101326287662478,1.40658663173651,0.12007025629281998,0.8724403381347656,0.9348202474130015,1.6234262008242208,0.2984602749347687,0.9406906366348267,1.0064687016334668,1.694160122833799,0.2100948840379715,0.8817588090896606,0.8262705338573646,1.1365836136677985,0.0013904550578445196,0.8361552357673645,1.0529540597402474,1.0626199262232778,0.08919672667980194,0.37531018257141113,0.0014220774173736572,0.9678936891952489,1.1287152168468466,179.90977116370766,178.37817935339953,1.0,-0.01807239320189403,0.011984781190540835,-0.09160843759133765,-0.0866607211148233,93.22292711743879,0.9538252423934066,67,2.2333333333333334
0.9461909367487703,0.6238065617289821,0.17700019478797913,0.9996982216835022,0.8630620443206776,0.753150293551594,-0.022348206490278244,0.9999927282333374,1.0540719982724287,0.752851614044056,0.0011196255218237638,0.999941885471344,0.9107184990913858,1.1316309055114033,0.007751142140477896,0.9999867677688599,1.0196327774809262,1.1253989371696558,-0.007866261526942253,0.9999839663505554,0.922180880002031,1.3788008328465318,0.18388159573078156,0.9424503445625305,1.0084165837609602,1.4019411268188928,0.11026021093130112,0.8767701387405396,0.9347303312265194,1.623806561728982,0.2827797830104828,0.9408121109008789,1.0068922352855958,1.6906094559197988,0.17747166752815247,0.8862231969833374,0.824966943747588,1.137956614360371,0.015245407819747925,0.8430734276771545,1.0514394523613286,1.0776147136141694,0.07360105216503143,0.34137383103370667,0.00015041232109069824,0.965175638286156,1.1285149213405294,179.72297300970033,177.97998481203015,1.0,-0.021885612038259183,-0.0033966970811313366,-0.028382473134390993,-0.11463031513298202,93.90180227517105,0.955251190524972,68,2.2666666666666666
0.9426937040880482,0.6288499932942274,0.19003234803676605,0.9996989965438843,0.8617174577417431,0.7590329372330175,-0.012696487829089165,0.9999929666519165,1.053323851719674,0.756188690928564,0.011453317478299141,0.9999402761459351,0.9110645128612913,1.1339396033416624,0.007647560443729162,0.9999873042106628,1.0209369914194646,1.1293784890229832,-0.007763179484754801,0.999984085559845,0.9227065782202214,1.3826259139587551,0.1818203330039978,0.9450583457946777,1.0124714291285444,1.4052630089610048,0.09691658616065979,0.8842862248420715,0.9387393789598538,1.6288499932942275,0.2750409245491028,0.9431521892547607,1.0115109817726637,1.691507709736116,0.14506123960018158,0.892864465713501,0.8256339214121501,1.1430599296321908,0.004747512750327587,0.8529800176620483,1.0565912512971627,1.0656637811235832,-0.01170321460813284,0.32343629002571106,0.0014258623123168945,0.966000752140378,1.1316590461823228,178.95476594065343,178.4346669010919,1.0,-0.027498487609970732,-0.015306626797826583,-0.04261663961731589,-0.09193873131398395,95.12130272212707,0.9522293160961274,69,2.3
0.9446121075436915,0.6336474191501352,0.18781420588493347,0.9996547698974609,0.8637006022120528,0.7649315120254081,-0.01749429851770401,0.9999931454658508,1.060644139585778,0.7612373237788683,0.013340404257178307,0.9999378323554993,0.911038872289983,1.1403805882601235,0.00752579141408205,0.9999879598617554,1.0206572975418753,1.135220837591673,-0.007644183002412319,0.9999845027923584,0.9260839500078979,1.3875822805712925,0.18160288035869598,0.9469466209411621,1.0177271292924632,1.4058728439707229,0.08577044308185577,0.8915725946426392,0.9439189353199886,1.6336474191501351,0.26054421067237854,0.9462448954582214,1.0172869762899706,1.6863550536464122,0.1192391887307167,0.9005059003829956,0.8254798725959737,1.1495524154546914,-0.02604314312338829,0.8629461526870728,1.0631482646002315,1.0641451555488275,-0.006135461386293173,0.314418226480484,0.0018414556980133057,0.9658480849159291,1.1378007129258982,179.33722228825252,179.4696337646092,1.0,-0.04362753337789085,-0.00237456663439843,-0.12315529237253622,0.10038584569372812,94.49125444029971,0.9659069320681122,70,2.3333333333333335
0.9441749969981955,0.6329552755680413,0.20514586567878723,0.9996280670166016,0.8574400276585004,0.7665301858221694,0.0019417830044403672,0.9999933242797852,1.0572082273024976,0.7641778844766787,0.02151120826601982,0.999934196472168,0.906462157691042,1.1414104278915098,0.008457162417471409,0.9999886155128479,1.0162699596052296,1.1349396987469278,-0.00858442671597004,0.9999849200248718,0.9247164806186386,1.3881824555993318,0.17539802193641663,0.9495908617973328,1.0169610629751635,1.4024636224997782,0.08573485910892487,0.8986814618110657,0.9450481240428195,1.6329552755680414,0.23930363357067108,0.9491950273513794,1.0189061604209781,1.6782604354753308,0.11514673382043839,0.9073964953422546,0.8233071469042986,1.1500431745072521,0.004460337571799755,0.8679818511009216,1.0588579926828996,1.065882155203405,0.001591701409779489,0.2908490300178528,0.001171201467514038,0.9613660586481357,1.1381750633192187,179.48232442519117,179.74393356338064,1.0,-0.04205819453198193,-0.007099902584892832,0.012160743665239209,-0.03545159343343008,94.0777355535249,0.9761840773358488,71,2.3666666666666667
0.9508304403578802,0.6433778650887192,0.19651201367378235,0.9996509552001953,0.8609719830794321,0.7735890417962479,-0.004163638222962618,0.9999936819076538,1.0628780459894922,0.769398811957309,-0.006398625671863556,0.999939501285553,0.9109711962922004,1.141381083500674,0.012332836166024208,0.9999889731407166,1.0204724449325808,1.1342316293169825,-0.012460625730454922,0.9999854564666748,0.9302400074856324,1.394715840486817,0.13611488044261932,0.953093409538269,1.0239349116546461,1.403408603449046,0.02822103723883629,0.9070783853530884,0.9537849620663046,1.6433778650887192,0.1593971699476242,0.9526817202568054,1.0263035933989697,1.6679882079585366,0.03001946210861206,0.9143158793449402,0.8263906645192902,1.1547917965041445,0.0012954900739714503,0.8797814249992371,1.0762408885667516,1.1019676855330207,-0.05558864027261734,0.3527487516403198,0.002071291208267212,0.9657218206123905,1.137806356408828,178.94056600725298,179.77596968826555,1.0,-0.01912827515796314,-0.06314507106029724,0.1702953085955668,-0.4103986118053215,94.00597344772731,0.9540999563365173,72,2.4
0.9558028561927554,0.6515273443393992,0.1415698379278183,0.9996815919876099,0.8675214280377811,0.7861970622603339,-0.027112111449241638,0.9999940395355225,1.0707272958995577,0.7787923464073703,-0.0530041828751564,0.9999450445175171,0.9211080027794313,1.1526096720495767,0.014978282153606415,0.9999892115592957,1.0286388355687115,1.1432234761348328,-0.015113910660147667,0.9999858736991882,0.9412087669276982,1.4094719422472082,0.12669949233531952,0.9560893774032593,1.0373248023219872,1.400490062752057,0.02939929999411106,0.9136075377464294,0.9668066229764036,1.6558527487412722,0.14372806251049042,0.955797016620636,1.0405861904457296,1.6515273443393992,0.05768641084432602,0.9190523028373718,0.8359596606476583,1.1613371447154917,-0.009253423660993576,0.8912027478218079,1.0977972079705025,1.1296875434896512,-0.11817833036184311,0.41639411449432373,0.0036154091358184814,0.9748734191740714,1.1479165740922046,178.54307139071932,178.81060971981734,1.0,-0.02173317835301728,-0.03077092343235291,-0.018194242657661355,0.25480247568380165,93.33171178904833,0.98057484273462,73,2.433333333333333
0.9833586854993919,0.6724561141038663,0.1292700618505478,0.9997069835662842,0.8936900712369891,0.8126015461676858,-0.02829444408416748,0.9999943375587463,1.1002743738092806,0.8039875096596832,-0.06102827936410904,0.9999500513076782,0.9500166171475459,1.1900630025567123,0.018383977934718132,0.9999896287918091,1.058285646715594,1.1797615699610937,-0.018549570813775063,0.9999865889549255,0.9730520787777099,1.457152525727553,0.10018831491470337,0.958580493927002,1.0728997133849656,1.440941231582083,-0.009399590082466602,0.9199671745300293,1.0000670743415279,1.7104108527420376,0.09661131352186203,0.9587586522102356,1.0762014368043284,1.6724561141038663,0.013604340143501759,0.9237403869628906,0.8639938687868132,1.1924033481138765,-0.000494445557706058,0.9009484052658081,1.1371155395600743,1.1726010842822858,-0.12230726331472397,0.473928838968277,0.004068493843078613,1.0041511319315701,1.184912286258903,178.84064506317887,177.61446900943875,1.0,-0.02878550874182235,-0.013955203858347913,-0.0499738656983892,0.14121548116402238,93.05217463281463,1.0102741525626486,74,2.466666666666667
1.003369460854031,0.6865184305021946,0.14281904697418213,0.9997319579124451,0.9112015427267466,0.8318384525698811,-0.015066651627421379,0.9999946355819702,1.1193578710639072,0.8207435608731511,-0.05028611421585083,0.9999547004699707,0.9691581002243772,1.2102016764273247,0.01871604286134243,0.999989926815033,1.0769500332446422,1.2010366758606765,-0.018893975764513016,0.9999871253967285,0.9940661826886245,1.4873583331496079,0.07502126693725586,0.9607667922973633,1.0981020577640648,1.452654459301067,-0.02467007003724575,0.9251565337181091,1.0221352459349287,1.7456773906907523,0.04692460224032402,0.9611244797706604,1.0998079327376502,1.6865184305021945,-0.016538497060537338,0.9265597462654114,0.8827114580363911,1.2100867996529716,0.012683503329753876,0.9098639488220215,1.1647869293696076,1.2037277062021983,-0.11206154525279999,0.5261097550392151,0.005129188299179077,1.0230540667345098,1.2056191761440005,178.933924565878,175.61270472778392,1.0,-0.02127332366841127,-0.037099589097643396,0.061043050578554386,-0.17139572237246684,93.84882681185516,1.014820944006725,75,2.5
1.0175285652024812,0.6969927722962578,0.14477555453777313,0.9997549653053284,0.9221625463351665,0.8456374780794805,-0.00932912714779377,0.9999948740005493,1.1295929727685097,0.8327734057765369,-0.04390227794647217,0.9999589323997498,0.9833710216456911,1.22630755416133,0.017824996262788773,0.9999901652336121,1.0930232071294956,1.2186189029292736,-0.018009094521403313,0.9999876022338867,1.0120662785705996,1.5078564528657967,0.04416929557919502,0.9628416299819946,1.1146003383770644,1.462407658401144,-0.03568818047642708,0.9296060800552368,1.0379970935317802,1.770036921593002,-0.0032931368332356215,0.9631885886192322,1.1140707001600036,1.6969927722962577,-0.04285246133804321,0.9288311004638672,0.8961503492171154,1.2173366760203812,0.009567300789058208,0.9173172116279602,1.1851296220191332,1.2241981600567216,-0.10156641155481339,0.5730909705162048,0.0058602988719940186,1.0381971143875934,1.2224632285453019,179.82898813946719,174.81271378634685,1.0,-5.6120559802372987e-05,-0.0077698034230424375,0.1656637512083658,0.22988315434622036,95.12355197923074,1.0261960232582437,76,2.533333333333333
1.0266558808945874,0.7062680324351263,0.15107685327529907,0.9997755289077759,0.931290260556323,0.856395353684178,0.006408178713172674,0.9999951124191284,1.1401477252020644,0.8427851534808927,-0.03971197456121445,0.9999627470970154,0.9927787553284303,1.2395500041088445,0.017333349213004112,0.9999905824661255,1.1048820616051436,1.2324550021973386,-0.01752902939915657,0.9999882578849792,1.0245428364577975,1.5239781184509087,0.028125036507844925,0.9647805094718933,1.1278435553137152,1.47647564090366,-0.04378211125731468,0.9340794086456299,1.0497260836465472,1.7892748967859573,-0.03756023198366165,0.9650514721870422,1.123530261011538,1.7062680324351263,-0.07263296842575073,0.931581974029541,0.9067033582294466,1.228513819678494,0.020402919501066208,0.9232461452484131,1.2005030125571847,1.2389684140349662,-0.09657527506351471,0.6153984665870667,0.0061303675174713135,1.048830408466787,1.2360025031530917,179.0503252128236,173.5491560306196,1.0,-0.009512418407389098,-0.0030801765129412724,-0.07537484436016431,0.038088441634503346,95.49565519744824,1.0331925876761954,77,2.566666666666667
1.0331505939490573,0.7114016683672726,0.15227040648460388,0.999794065952301,0.9368141071865809,0.861547397959819,0.006266030017286539,0.9999952912330627,1.1454000370375377,0.8484192489450595,-0.04176162928342819,0.9999661445617676,0.9991483763581179,1.2439337381003925,0.02060757949948311,0.9999909400939941,1.111274028035991,1.2375217558909295,-0.02080726809799671,0.999988853931427,1.0311289117403202,1.531006618611982,0.034905560314655304,0.9655786752700806,1.1350877264245784,1.4817867808486498,-0.06400167942047119,0.9379085898399353,1.05573523474454,1.8004839385139584,-0.03175501897931099,0.9666369557380676,1.128742734080135,1.7114016683672726,-0.09894048422574997,0.9342368245124817,0.9157292136475269,1.2334217896988366,-0.008854608982801437,0.9291207194328308,1.2086661711902693,1.2451215762835102,-0.12821154296398163,0.6534987092018127,0.0058754682540893555,1.0552112021970546,1.240727746995661,178.86062075277454,172.8488980332381,1.0,-0.002620415356048457,-0.023325000219984102,0.05035716641859103,-0.14647663322756535,95.98563406805091,1.0256307058553518,78,2.6
1.048862931440865,0.7265669691059453,0.1570976972579956,0.999809980392456,0.9543590380384188,0.8789331862313822,0.010752715170383453,0.9999953508377075,1.165429404796597,0.8667990385294218,-0.03953666239976883,0.9999691843986511,1.0157358984665585,1.2638292438235865,0.02013387344777584,0.9999910593032837,1.1294017244376169,1.2583765340196886,-0.020297111943364143,0.9999891519546509,1.0481625062418072,1.5550369883235566,0.025040721520781517,0.9671332836151123,1.156021272906152,1.4948743429190356,-0.04095631092786789,0.9390912652015686,1.0727435786614188,1.833501036158637,-0.04737970605492592,0.96802818775177,1.1471649089687996,1.7265669691059453,-0.06206641346216202,0.9333926439285278,0.9431285663412461,1.2495078271905633,-0.0033654707949608564,0.9326707720756531,1.232316891674645,1.2686124534759449,-0.12187640368938446,0.6877456307411194,0.005332291126251221,1.0725688114520877,1.2611028889216376,178.69080541869752,171.3889288012351,1.0,-0.01649357990091187,-0.01966145411841233,-0.10868928635714674,0.03218340201762401,96.31384697211814,1.028413625177242,79,2.6333333333333333
1.0630821445466911,0.7385795621535163,0.15204760432243347,0.999816358089447,0.9672284282679479,0.893387193819569,0.010772312059998512,0.9999947547912598,1.1799707307247285,0.8800310774794897,-0.051392585039138794,0.999971866607666,1.0274791393552487,1.2812259074993622,0.021226851269602776,0.9999904632568359,1.141732913672401,1.275440753213238,-0.021440649405121803,0.9999890923500061,1.060185994963684,1.573876752745523,0.05387135595083237,0.9664154648780823,1.1708059108492115,1.5023198188388223,-0.01742231287062168,0.9322347640991211,1.0863899793609153,1.8564467220733782,0.012292241677641869,0.9679453372955322,1.1602088173588705,1.7385795621535163,-0.0035132472403347492,0.9267711639404297,0.9711725393686317,1.2640677532471762,0.05239821597933769,0.9138118624687195,1.248943966142063,1.2850552883172008,-0.12415212392807007,0.7184904217720032,0.005793869495391846,1.0846060265138249,1.2783333303563,178.92119015186037,170.12953535489245,1.0,-0.015438452832752574,0.00655721902393718,0.010195781127346261,0.21257629727850244,95.93165685922399,1.0375719171537636,80,2.6666666666666665
1.0636245414170895,0.7389209572819851,0.16235563158988953,0.9998101592063904,0.9685387955745022,0.8938938256200281,0.023886440321803093,0.999993622303009,1.1794363990417664,0.8805433372968666,-0.0491814948618412,0.999974250793457,1.0287353871925575,1.2829928393754182,0.020539289340376854,0.9999890923500061,1.1435353681059925,1.2756031210108838,-0.02074480429291725,0.9999886751174927,1.0575874527012783,1.5752273989563719,0.06058628484606743,0.9650166630744934,1.169243513352551,1.4975690069389564,0.039114706218242645,0.9195955395698547,1.0872510409947236,1.8544987707179643,0.011791820637881756,0.9670697450637817,1.159218803951689,1.7389209572819853,0.05553685501217842,0.9171314835548401,0.9847013206995309,1.262107077003976,0.10709327459335327,0.8616730570793152,1.249635216967351,1.2855039327536866,-0.09445419162511826,0.7460185289382935,0.005786806344985962,1.086135377649275,1.279297980193151,179.5753922686247,171.01497414635242,1.0,0.005025668834435822,-0.00042677409667716713,0.1551888601617621,-0.052970635186906555,95.11130477751259,1.042609093612512,81,2.7
1.0656966638172414,0.742624107873139,0.14524956047534943,0.999809980392456,0.9705488381458732,0.8951309123020452,0.015255738981068134,0.9999926686286926,1.1784264740507526,0.8824236417500462,-0.054577089846134186,0.9999763369560242,1.0307833651503469,1.2855610993056497,0.020814940333366394,0.9999870657920837,1.1454062193957368,1.2775366145866653,-0.021033218130469322,0.9999876618385315,1.0567188049740457,1.5778082821381392,0.0770677700638771,0.9646680355072021,1.1708607713612031,1.4942308951751928,0.03308001533150673,0.9125407934188843,1.0896894764616654,1.8553818775038209,0.04397201910614967,0.9673351049423218,1.16142344183347,1.742624107873139,0.06769992411136627,0.9116891026496887,0.9925738188342625,1.2610853328376852,0.07603223621845245,0.8327409625053406,1.2515112364065508,1.2861300661515205,-0.10131467878818512,0.7709247469902039,0.005499213933944702,1.0880947922730417,1.2815488569461575,178.29746847664003,171.12448547142873,1.0,0.001670711837323141,0.00154215598649803,-0.025111658919117378,0.014707226043613707,94.76568097248726,1.039666251413217,82,2.7333333333333334
1.061520523862857,0.7432738108833468,0.1470063030719757,0.9997944831848145,0.9667911356057094,0.8917781430842027,0.021483931690454483,0.9999909996986389,1.1740167951789429,0.8794428439139477,-0.04929646477103233,0.9999781847000122,1.0267493331923139,1.2805999859666364,0.020592691376805305,0.9999844431877136,1.1400695673478336,1.272191216445017,-0.020813392475247383,0.9999865293502808,1.0519174780605234,1.5716287638959279,0.11338862031698227,0.9631218910217285,1.1639794421511624,1.4936659528581866,0.1020037904381752,0.8974844813346863,1.0855944641878643,1.8484361064590442,0.12221165001392365,0.9663865566253662,1.1570309380796007,1.7432738108833468,0.1844453066587448,0.89984530210495,0.9953488933567936,1.2586887337536894,0.1276242434978485,0.7722823023796082,1.2463234610746663,1.2807344209258713,-0.05377960205078125,0.7929220795631409,0.005359739065170288,1.0834094502700737,1.2763956012058266,178.00599804411968,172.24378063130163,1.0,-0.0025216055677422093,-9.818832120861834e-05,-0.03292241115915598,-0.01285364734719589,94.52245979611806,1.0244378940243006,83,2.7666666666666666
1.05184228340768,0.7390738261826826,0.19103819131851196,0.9997584819793701,0.9581464703366845,0.8845446693053985,0.07877557724714279,0.9999870657920837,1.1624178736323028,0.8712690606370523,-0.02840748056769371,0.9999799132347107,1.0171203267833773,1.2680681405567966,0.028012767434120178,0.9999796152114868,1.128828558628113,1.256918077600183,-0.028222421184182167,0.9999850392341614,1.0420701669887242,1.5547314264402832,0.12218548357486725,0.9609898328781128,1.1517150794591606,1.4856561159284818,0.08099357783794403,0.8915165066719055,1.0752318457547678,1.8297134157877593,0.12650339305400848,0.9622123837471008,1.1467237935240453,1.7390738261826826,0.14505751430988312,0.8888508081436157,0.9934687480787788,1.2481957928610223,0.20780138671398163,0.700616180896759,1.2344290988288067,1.268550598469952,0.0009099260787479579,0.8124747276306152,0.005824059247970581,1.0729744427057453,1.2624931090784897,178.097799028689,173.15790782155497,1.0,-0.00048756594335455997,-0.012850900765354799,0.015338062115024654,-0.09732633544939531,93.04176953628166,1.001072233437313,84,2.8
1.0327782901213929,0.7250192943487523,0.20357093214988708,0.9997464418411255,0.9369075955612891,0.8636045124088593,0.09382375329732895,0.9999842047691345,1.1328506957066635,0.8500972421922092,-0.012964467518031597,0.9999815821647644,0.992846063074709,1.237372151121889,0.028801128268241882,0.9999747276306152,1.1015000382738906,1.2261102824878227,-0.028994902968406677,0.9999834299087524,1.0169000932159777,1.5156411638841603,0.12339267879724503,0.9618757963180542,1.1224750581812843,1.4502195198167624,0.09981948137283325,0.8903259038925171,1.0489938274652777,1.7853198587146666,0.13916879892349243,0.960872232913971,1.1206258493572803,1.7250192943487523,0.1923423409461975,0.8818051218986511,0.9862171577709419,1.2165850874980904,0.24563446640968323,0.6347367763519287,1.202541651437193,1.2372882468006507,0.06112967059016228,0.8302910327911377,0.006073892116546631,1.0471730506742998,1.2317412168048558,178.15376341101927,174.2675468624302,1.0,0.0029267259341529527,0.0004073568532235968,0.02627218003260809,0.09995470535259594,92.59425716574955,0.9659751602108024,85,2.8333333333333335
1.0298710950665655,0.7217713862908662,0.19823239743709564,0.9997527599334717,0.9313716506572295,0.8599320388860802,0.09036038815975189,0.9999827742576599,1.1254594813784968,0.8448947537495787,-0.009197800420224667,0.9999831318855286,0.9889272887175599,1.2292052420374115,0.027504175901412964,0.9999714493751526,1.0941895354103472,1.2180194377738456,-0.027698557823896408,0.9999824166297913,1.0115497688110886,1.5055241774098416,0.12235523760318756,0.9631978273391724,1.1141001537748567,1.441865204752275,0.10899005830287933,0.889599084854126,1.0419187889703405,1.7727615752443546,0.14938320219516754,0.9600884318351746,1.115758368090664,1.7217713862908661,0.21684667468070984,0.8762246370315552,0.9883090295331985,1.206726465074149,0.24774475395679474,0.5773200392723083,1.1934365257414896,1.2287935519885407,0.054967187345027924,0.8465113639831543,0.006807804107666016,1.0415584120639534,1.2236123399056287,178.19710459225232,175.25646216028707,1.0,0.011226302155179588,0.0013672224846960049,0.06459370524467571,0.007474020473594623,92.79312122722673,0.956180041913277,86,2.8666666666666667
1.0390681249537432,0.7205818267289619,0.18892712891101837,0.9997420907020569,0.931827064179118,0.8584516223003344,0.08074099570512772,0.9999801516532898,1.1238383243238768,0.8448297733918215,-0.021662011742591858,0.9999843835830688,0.9916064228677587,1.2268600515288075,0.030974406749010086,0.9999680519104004,1.0955485514868069,1.2160171536584625,-0.03115824982523918,0.9999814033508301,1.0117730928865978,1.5028913474116692,0.1389770358800888,0.9618524312973022,1.1119562529651938,1.4462184667373121,0.10996302217245102,0.8827865719795227,1.0406931398906298,1.7683927463192817,0.17746666073799133,0.9567304849624634,1.1149479683665335,1.7205818267289619,0.2184593379497528,0.8651023507118225,0.9923036747567079,1.1985340620824985,0.21506774425506592,0.5235477685928345,1.1905904648175032,1.2268630750569836,0.018514450639486313,0.860663115978241,0.00617632269859314,1.0435774871772827,1.221438602593635,177.96206866389585,176.5478525570499,1.0,0.026983365832044963,-0.002449127939812671,0.11849932737200691,-0.028654104729796397,93.26133587269636,0.955561162894878,87,2.9
1.0392165506998916,0.7157325598008034,0.1862260103225708,0.9997327327728271,0.9310140109315491,0.8555972095131034,0.08127300441265106,0.999978244304657,1.120166270539561,0.8432438476710209,-0.022231565788388252,0.9999855160713196,0.9901986954695824,1.2220876796991536,0.03167824447154999,0.9999651312828064,1.093539952218444,1.211754595573364,-0.03186044096946716,0.9999804496765137,1.0091011084113082,1.497856472307273,0.13844898343086243,0.9603732824325562,1.1079956055798994,1.4488939698434198,0.11097130924463272,0.8748296499252319,1.037154807538431,1.7623019885792504,0.17449486255645752,0.9532740712165833,1.1118649277207506,1.7157325598008033,0.2200375348329544,0.8527399897575378,0.9867972843474233,1.1940730222865958,0.21399454772472382,0.4755651354789734,1.1858045635964964,1.2224959145400451,0.017447926104068756,0.8733891844749451,0.005620211362838745,1.041869323844013,1.2169211376362588,177.86559958887622,177.34241899942765,1.0,0.014672732876094526,-0.0030533554070134306,-0.09814905448361473,-0.004919996374429588,93.46349700898551,0.958093449724719,88,2.933333333333333
1.0364642670950024,0.7116928894525982,0.1869649589061737,0.9997127652168274,0.931460681334844,0.852276263493207,0.0775492936372757,0.999975323677063,1.1179074335461063,0.8415370389273669,-0.023371180519461632,0.9999865889549255,0.9877193092239361,1.2135216206149726,0.0308404378592968,0.9999611377716064,1.0903641544443805,1.2056336001045027,-0.031021108850836754,0.9999793767929077,1.004880244997177,1.490933000322399,0.13316383957862854,0.9581495523452759,1.1013155522390043,1.4534971688725513,0.10342987626791,0.8662458658218384,1.0320409604492153,1.7541558249731866,0.16197362542152405,0.9477916955947876,1.1063845043014129,1.7116928894525982,0.200311541557312,0.837588906288147,0.9827559548975122,1.1821079889380506,0.23166437447071075,0.43010926246643066,1.179657991095634,1.2172340980564933,0.03230466693639755,0.8845495581626892,0.004910022020339966,1.0390417318341583,1.2095776103597375,177.64863086896733,178.59483447089372,1.0,0.01836943925454568,-0.010805276991391354,0.030090150986008212,-0.06200929430786581,94.45745342964743,0.9497794687949344,89,2.966666666666667
1.044504059663666,0.7223700228963669,0.2056291550397873,0.9997131824493408,0.9414372619110631,0.8578373545656215,0.09983217716217041,0.9999735355377197,1.125521640446859,0.8485343626304461,-0.010316495783627033,0.9999876022338867,0.9939306154662888,1.217854816386231,0.03235434368252754,0.9999584555625916,1.096502369032415,1.2115372219249614,-0.03253084793686867,0.9999786019325256,1.011485916035475,1.498605465046749,0.1281479150056839,0.9571797251701355,1.1058470895830177,1.4648338480517649,0.09670914709568024,0.8626178503036499,1.0360744862991265,1.7642715795243908,0.1483469009399414,0.9436919093132019,1.1115889994722674,1.7223700228963668,0.19044998288154602,0.8251513838768005,0.9870353056840532,1.187699373690822,0.25004905462265015,0.3899385929107666,1.1855279134958596,1.2236942022248622,0.05307413265109062,0.8945827484130859,0.004232317209243774,1.0452164922493519,1.2146960191555962,178.29012688931084,179.16440850396873,1.0,0.007577687211208155,-0.006765210755452681,-0.08195516636937726,0.030828389175077034,94.77120584921293,0.9299691508317467,90,3.0
1.0690908339365255,0.7636840195677858,0.19893710315227509,0.9996988773345947,0.964040305027486,0.8915306847631265,0.08681955933570862,0.999970555305481,1.155771484239354,0.8745574698525236,-0.013668480329215527,0.9999884963035583,1.019357689034915,1.2489189008376158,0.03172404319047928,0.9999557137489319,1.1231964206114387,1.2420975668969634,-0.03190198168158531,0.9999780654907227,1.0417110183774612,1.5348048337957452,0.129085510969162,0.9542332291603088,1.132631986363237,1.5041093678798352,0.09296353161334991,0.8589592576026917,1.0613088659290757,1.8064983982386495,0.15075047314167023,0.9378165602684021,1.13854757577793,1.7636840195677859,0.17788775265216827,0.8142415285110474,1.013087934587772,1.2212164582463383,0.22023312747478485,0.35305091738700867,1.21479666344062,1.254082409599845,0.0319586843252182,0.9030503630638123,0.0075383782386779785,1.071277054823177,1.2455082338672896,179.6548812091217,179.24307538516635,1.0,0.004827374054156039,0.009667169784874717,-0.02263591724941161,0.12801547697635343,95.04010203164684,0.8917059507023785,91,3.033333333333333
1.085734013305488,0.7865492115738504,0.21025554835796356,0.9996728897094727,0.9800533946536674,0.9107411780344199,0.11095136404037476,0.9999669790267944,1.1732966898102426,0.8936153851122542,-0.008055740967392921,0.9999892711639404,1.0368653605498976,1.265535427077338,0.03535381704568863,0.9999529719352722,1.138858396059416,1.2579686574130893,-0.03553277254104614,0.9999774694442749,1.0615377973022544,1.551352323462949,0.1271311491727829,0.9525893926620483,1.1478902720489221,1.5238427560425947,0.08149588108062744,0.8600373864173889,1.0776754525677947,1.8262928383647352,0.14942704141139984,0.9333639740943909,1.1539805126172322,1.7865492115738504,0.14106665551662445,0.8107926249504089,1.0267415900700767,1.252396657071766,0.23525989055633545,0.31983235478401184,1.232258448345789,1.27165340866016,0.05058964341878891,0.9109542965888977,0.007506519556045532,1.0878618783046567,1.2617520422452135,178.42544017844816,179.38241395556776,1.0,0.018362802480052294,-0.0022194012188666147,0.10449834133358885,-0.09320023163169165,94.85439625539954,0.8713190211661148,92,3.066666666666667
1.0819559815430504,0.780303782482694,0.20678821206092834,0.9996576905250549,0.9856913940035908,0.9076580899508776,0.09530352801084518,0.9999639391899109,1.1737956284959807,0.8947009076089202,0.003158224280923605,0.9999899864196777,1.0390680229215106,1.2607265612248284,0.029044857248663902,0.9999504089355469,1.138782418353463,1.2531322023383409,-0.029214462265372276,0.9999768733978271,1.0611072544373008,1.544510086914001,0.1136264055967331,0.9508941173553467,1.143608776600608,1.518475439158506,0.08409111201763153,0.852655827999115,1.0746221682513646,1.8185734400619837,0.12390746921300888,0.9288012385368347,1.1499415177746006,1.7803037824826942,0.14191214740276337,0.7973742485046387,1.027371306933818,1.2471399922926725,0.23151648044586182,0.288948118686676,1.2308206407376279,1.2671710518741064,0.05649459362030029,0.9168540239334106,0.005701631307601929,1.0889252206374866,1.2569293817815845,178.3823474253125,179.6565237340681,1.0,0.0393627993552074,0.0008035527593585548,0.1560598520268475,0.02232409953655733,94.24153170287674,0.8778346424670341,93,3.1
1.0783315405792961,0.7720679503787978,0.19836771488189697,0.999653160572052,0.9884794679036794,0.9045412247684731,0.06929376721382141,0.999963104724884,1.175253534842798,0.8974113611631961,-0.00046641830704174936,0.9999906420707703,1.0390929835542433,1.2552114661999505,0.022201772779226303,0.9999483823776245,1.1391461896801423,1.2476140009179422,-0.022381383925676346,0.9999762177467346,1.0585486520496699,1.5355750479114725,0.09622029960155487,0.949243426322937,1.1392544763842274,1.5117982274828554,0.08604595810174942,0.8421749472618103,1.0701798981983615,1.8091794086156974,0.0939667597413063,0.926048219203949,1.1455201365734027,1.7720679503787977,0.14658299088478088,0.7842344045639038,1.0201074789365168,1.2458021202752425,0.2076766937971115,0.2620871067047119,1.2355237836642023,1.2636501425156863,0.04130718111991882,0.9227094054222107,0.0031513869762420654,1.0891195866171928,1.2514127335589464,178.46460234487435,178.64442888326766,1.0,0.03919900348576356,0.00048627150926811046,8.51408016584879e-05,-0.002445919842063527,93.87061196063793,0.8886598996154955,94,3.1333333333333333
1.0829140182023111,0.7695465218399203,0.20640882849693298,0.9996410608291626,0.9963726765283372,0.9045228838718933,0.07408961653709412,0.9999620914459229,1.1825320026312596,0.8996535831892375,0.010249298065900803,0.9999911785125732,1.0430026009757352,1.255640444157598,0.020390352234244347,0.9999474287033081,1.1436214380078076,1.248019962284739,-0.02057015523314476,0.9999760389328003,1.0624058813090929,1.5291935127161025,0.0934205874800682,0.9489437937736511,1.1398590847557382,1.5118681531993121,0.08872970193624496,0.8376572132110596,1.0704838591861967,1.800882603746476,0.0929078683257103,0.9243345260620117,1.145332849420414,1.7695465218399204,0.14981767535209656,0.7788625359535217,1.023409928223106,1.2476379399689432,0.21493181586265564,0.23753435909748077,1.2440127748154486,1.2649399626705384,0.04635327309370041,0.9267966151237488,0.0021515488624572754,1.0933120194917714,1.2518302032211686,177.64581291032138,177.96611436547343,1.0,0.028336350580475785,0.00019005029808812234,-0.08000744149916761,-0.0021804368083268694,93.23376725532832,0.9040632327686219,95,3.1666666666666665
1.0842299004908102,0.7687501977386857,0.18321868777275085,0.999660849571228,1.0001279693942002,0.9043822400607345,0.055843912065029144,0.9999634027481079,1.1869709752326942,0.8997495725977389,0.009108166210353374,0.9999918341636658,1.0464735324956251,1.2529260097422688,0.0189814455807209,0.999947726726532,1.1487413835683924,1.245651384791421,-0.019160952419042587,0.9999762773513794,1.0621262738840505,1.5217072048118112,0.08801830559968948,0.949325442314148,1.142551496550459,1.5118027649619123,0.07866750657558441,0.8386212587356567,1.0698449802908918,1.791731126386338,0.08419781923294067,0.9243968725204468,1.1450914562923806,1.7687501977386857,0.13107088208198547,0.7794255614280701,1.0138836336589054,1.247430408968462,0.2017292082309723,0.21956010162830353,1.2474364802628628,1.2641894751143377,0.04155481606721878,0.9325616359710693,0.002046644687652588,1.0976074580320088,1.2492886972668449,178.30445681249873,178.10135328992922,1.0,0.03193828538699774,-0.021386877342072334,0.02794684164918966,-0.167634799097931,93.50536909391822,0.9052414730607765,96,3.2
1.086746301866261,0.7705755101298082,0.11289004981517792,0.9996910691261292,1.0102270504920665,0.9062544160695312,-0.020039619877934456,0.9999665021896362,1.194813734119146,0.899784064558345,-0.0469118170440197,0.9999924302101135,1.0578473737370253,1.2509051314787143,0.015489645302295685,0.9999509453773499,1.1601926284033204,1.2465095758482962,-0.015636799857020378,0.999977171421051,1.0660826310070468,1.5107524295865853,0.08984096348285675,0.9509503245353699,1.148583756142924,1.5104886069549464,0.07865634560585022,0.8434802293777466,1.069423504932367,1.7862387274170364,0.09520943462848663,0.9285774230957031,1.1475529537683309,1.7705755101298082,0.13332518935203552,0.7903892397880554,0.9958071142681435,1.256646858998777,0.0203253086656332,0.28779304027557373,1.2557080563111143,1.2676347333723925,-0.09008573740720749,0.9388142228126526,0.002850562334060669,1.1090200010701727,1.2487073536635054,178.87955338078834,177.70903406938254,1.0,0.06711597760692518,-0.03264368623011163,0.2819155500191401,-0.08996252011615144,95.40749266054544,0.9036214664459962,97,3.2333333333333334
1.090196194284098,0.7694231773393087,0.09706069529056549,0.9997175335884094,1.012421888288185,0.9040664871315273,-0.029982615262269974,0.9999692440032959,1.195102903704609,0.8984815453686775,-0.06461717933416367,0.9999929070472717,1.0616093155644202,1.2460535484870618,0.01567811891436577,0.9999531507492065,1.162687878457649,1.242124065289209,-0.015824275091290474,0.9999775290489197,1.0656718411689994,1.5041248554313076,0.08648937195539474,0.9502964615821838,1.1506359129588983,1.5066502274565456,0.07705768942832947,0.8419564962387085,1.065099312641273,1.7821569851725318,0.0975113958120346,0.9299264550209045,1.1467979640185189,1.7694231773393088,0.13840845227241516,0.7943538427352905,0.991615489056586,1.2549934844374186,0.014795778319239616,0.34717464447021484,1.2555485038272678,1.2667859902019134,-0.10192251205444336,0.9444137215614319,0.0024620890617370605,1.1121485970110347,1.2440888068881355,178.9801473520552,178.22815306409345,1.0,0.02526967272485272,-0.024988107212047812,-0.27440173932897893,0.05011355957157412,95.95834385070391,0.8936195604670918,98,3.2666666666666666
1.1038534290970872,0.774301001465769,0.09462961554527283,0.9997424483299255,1.02333127972214,0.9100187304051643,-0.043591372668743134,0.9999719262123108,1.2053149891323875,0.9043084154425932,-0.052082836627960205,0.9999933838844299,1.0697099068737494,1.2554604695282556,0.0032154626678675413,0.9999558925628662,1.1728956285596248,1.2510133093347322,-0.0033953883685171604,0.9999781250953674,1.072973800180044,1.504064610975982,0.018858445808291435,0.9543305039405823,1.1594988462228424,1.5146792790993824,0.07001440227031708,0.8514432907104492,1.0726962698148168,1.774301001465769,-0.011563834734261036,0.9358639121055603,1.155089007904201,1.779491057665157,0.0975140780210495,0.8106089234352112,0.9962390719439072,1.2638415460300627,-0.02097667194902897,0.40964484214782715,1.265372832590006,1.276157764741153,-0.10741724818944931,0.9497644305229187,0.0024987757205963135,1.1213027677166871,1.2532368894314938,179.1889717135511,178.0453641630699,1.0,0.007253192566212173,-0.000855817430886452,-0.14951453892228836,0.19972706108978344,95.17890100038166,0.9151059334274827,99,3.3
1.1408568793021805,0.8047565941260615,0.10270968824625015,0.9997585415840149,1.0606123441223676,0.9398165810247061,-0.053993403911590576,0.9999743103981018,1.2495440911268925,0.9353717597540716,-0.035985443741083145,0.9999935626983643,1.1057812017362463,1.2962423314502187,-0.0068368082866072655,0.9999582171440125,1.2140399809460416,1.2923952331330604,0.006656447891145945,0.9999783039093018,1.1085353008351235,1.5408869941254986,0.019981415942311287,0.9576681852340698,1.19916283605645,1.5597224088762738,0.07029110938310623,0.859165608882904,1.1075746520436214,1.8047565941260615,0.0012917726999148726,0.9409091472625732,1.193223320412573,1.836593732035769,0.09808014333248138,0.8251739740371704,1.0255474319021523,1.3033229737402963,-0.05167164281010628,0.46649789810180664,1.3053441849894492,1.317278098431848,-0.06690836697816849,0.954297661781311,0.0018826425075531006,1.159910591341144,1.2943187822916395,179.14642603600225,178.0436279523293,1.0,0.011074689597074416,-0.003285671505311521,0.027117198641162993,-0.01818431184359204,95.18722354249947,0.9306444822036297,100,3.3333333333333335
1.1745257555005495,0.8263784878938428,0.10493767261505127,0.9997684955596924,1.088790195047089,0.9631515046246539,-0.04819045960903168,0.9999765157699585,1.2890697920672984,0.9588409123106073,-0.03846781700849533,0.9999936819076538,1.1388866207466442,1.3294100403331794,1.3448880054056644e-05,0.9999604821205139,1.246814013522103,1.324987355307352,-0.0001895102468552068,0.9999786615371704,1.1361829070299874,1.574676251146534,0.03873445838689804,0.9580236077308655,1.231665772714066,1.599361749581131,0.06744290143251419,0.8640747666358948,1.1356133548728302,1.826378487893843,0.014079233631491661,0.9430810213088989,1.222746395505212,1.8815376234787058,0.08757968991994858,0.8352428078651428,1.047102670287872,1.3364296119803305,-0.04007057845592499,0.5172141194343567,1.3378941746701631,1.3445982421208345,-0.06201651692390442,0.9579461216926575,0.0017809867858886719,1.1928503171343736,1.3271986978202657,179.49806924618133,178.65037758700464,1.0,0.029184608160909745,0.002486594767796918,0.1383521835363061,0.04542796348725641,95.44194823044704,0.9510687352548736,101,3.3666666666666667
1.2013881974537703,0.8417843168543407,0.10302934795618057,0.9997847080230713,1.113961539621132,0.977301449452273,-0.05871383100748062,0.9999786615371704,1.3159527992275863,0.9774761690809497,-0.03635986149311066,0.9999939203262329,1.1646673672119792,1.3548596838133589,-0.0027536663692444563,0.9999629259109497,1.2741939255514956,1.350972172075303,0.002583308145403862,0.9999793171882629,1.1578591109741723,1.5998263098640848,0.05380268767476082,0.9591984748840332,1.256751229692336,1.6324894679213733,0.06989843398332596,0.8695736527442932,1.1578594786501586,1.8417843168543409,0.03790225833654404,0.945813000202179,1.2465620456903594,1.918741989259449,0.09734891355037689,0.8457893133163452,1.0627299353699151,1.3622608543466288,-0.050520382821559906,0.5646374225616455,1.3634177100698364,1.370124708341024,-0.0519026443362236,0.9616270661354065,7.081031799316406e-05,1.2194306463817375,1.352915927944331,178.40792481830002,178.4930971643196,1.0,0.02520712994200993,-0.0007928949103762476,-0.033987544854131614,-0.02488408224514786,95.61622814979023,0.9693330762186994,102,3.4
1.2291701564591542,0.8536450453307248,0.09625104069709778,0.9997955560684204,1.1342631036295932,0.988653508917297,-0.07327478379011154,0.9999805688858032,1.340130180083743,0.992052753420146,-0.023298900574445724,0.9999939799308777,1.1844936464128815,1.375024671153308,-0.01371303666383028,0.9999653100967407,1.2954400841073581,1.3716225153797208,0.013500703498721123,0.9999798536300659,1.1751704138453467,1.6164430661443698,0.01564343087375164,0.9612820744514465,1.2774049858273369,1.6555945815130426,0.0629136934876442,0.8749656677246094,1.1754805015029621,1.853645045330725,-0.024505119770765305,0.9494072794914246,1.2652684206550329,1.9431321331731686,0.040328964591026306,0.8573058843612671,1.077987269834189,1.3826948991252155,-0.08630628138780594,0.6075146198272705,1.3815724922836397,1.3796852423655284,-0.04208585247397423,0.9647350907325745,0.0013571083545684814,1.23996686526012,1.3733235932665144,177.71351692228345,178.7829607320704,1.0,0.016191793613133665,-0.0005076797725119846,-0.07303701434811026,0.002310109207067605,95.65083028624706,0.9892617673867176,103,3.433333333333333
1.2432747886115654,0.8574742791608616,0.10929044336080551,0.9998023509979248,1.1464522990845911,0.9877218569595173,-0.0635162815451622,0.9999822974205017,1.3501562889615915,0.9963357537592918,-0.0019854181446135044,0.9999938607215881,1.1925457651947768,1.3818764817594864,-0.017354683950543404,0.9999673962593079,1.3031108659911799,1.3784474866388465,0.017151588574051857,0.999980092048645,1.1808095399130232,1.6193045748841224,0.033386532217264175,0.9636483192443848,1.283484651214709,1.6588956280199687,0.06533621996641159,0.8809462189674377,1.1818984015226508,1.8574742791608616,0.007157654967159033,0.9529516696929932,1.2712581944056442,1.9513993390763813,0.053040288388729095,0.8680110573768616,1.0850185245253794,1.38298807330833,-0.07498843222856522,0.6460420489311218,1.3827684255788784,1.3796947076599746,-0.006062498781830072,0.9671053886413574,0.0034221112728118896,1.2478283155929784,1.3801619841991666,176.9081932381284,178.39040652779352,1.0,0.013654769506652063,0.0004859808655348807,-0.020499735895094417,0.00780350269966168,94.89365680885615,0.9961878190715762,104,3.466666666666667
1.2433639507936096,0.8561037370325885,0.11412034928798676,0.9997935891151428,1.1507154933991106,0.9835507139114907,-0.05592851713299751,0.9999838471412659,1.3556875068031478,0.996041989875033,-0.010514499619603157,0.9999929666519165,1.1980019743723307,1.3871878226198588,-0.010982725769281387,0.999969482421875,1.3081425721303146,1.3840765854582695,0.010790558531880379,0.9999802708625793,1.1862179621178137,1.6215898857297173,0.05026469752192497,0.9639289379119873,1.2906249705746207,1.6646361742524824,0.06557632982730865,0.8823292255401611,1.1878364050604495,1.8561037370325884,0.03983411192893982,0.9546172618865967,1.2765384529915207,1.9592937306333924,0.06860378384590149,0.8753596544265747,1.0913239480968324,1.3800705907787547,-0.055369120091199875,0.6801946759223938,1.3834887181683309,1.3749801602322542,-0.0065214745700359344,0.9612653255462646,0.0049419105052948,1.2530722732513226,1.385632204039064,176.7266051471564,179.1642209147586,1.0,0.00034420058218286406,-0.0022612862086264234,-0.10706401772393073,-0.022019876991417053,95.06374635429424,1.01364785977417,105,3.5
1.2450397315587927,0.8555655224652644,0.10133209079504013,0.9997571706771851,1.1531103409324335,0.9835974975118977,-0.0670447051525116,0.9999851584434509,1.3602812051550355,0.9955603791676986,-0.02931038662791252,0.9999917149543762,1.2002864797130557,1.3894376221278573,-0.009577557444572449,0.9999713897705078,1.309348678837126,1.3865059877775394,0.00950856227427721,0.9999806880950928,1.1901028561445017,1.6237257646242063,0.13208791613578796,0.9567916989326477,1.292815896576418,1.66736111493535,0.08931984752416611,0.8776910305023193,1.1910834622615256,1.8555655224652645,0.1933678239583969,0.9529877305030823,1.2783467700536364,1.9589522911248245,0.13730014860630035,0.8792693018913269,1.0933142638547861,1.3797779088203026,-0.0865931436419487,0.7104541063308716,1.3817599416781137,1.3621650189833545,-0.053088121116161346,0.9529237747192383,0.00472608208656311,1.2548175792750909,1.3879718049526983,177.2687938778375,179.4718812979575,1.0,-0.00039936090746113957,0.00267887849004868,-0.005667627603265764,0.03765499765951009,95.09072254480391,1.0246642347458472,106,3.533333333333333
1.2253762422105416,0.8405483950699498,0.1049286276102066,0.9996726512908936,1.1370159330579157,0.9678270185738225,-0.06450926512479782,0.9999861717224121,1.3379393330130205,0.9786364296032305,-0.0042504845187067986,0.9999892115592957,1.1792890047269018,1.366130329184913,-0.010278011672198772,0.9999718070030212,1.287815381708393,1.363446552993901,0.010172185488045216,0.9999791979789734,1.17133630622665,1.5994211527096833,0.13078874349594116,0.9484354257583618,1.2709328795657844,1.6377305561379014,0.11346820741891861,0.8657931685447693,1.1733338247533451,1.84054839506995,0.19495119154453278,0.9484562873840332,1.256387242726607,1.9257741218567874,0.17022454738616943,0.875249445438385,1.0750480673288922,1.3556151768989682,-0.07799932360649109,0.7364850640296936,1.3564119299079826,1.3339853794636318,0.01270002406090498,0.9388628602027893,0.004344046115875244,1.2335521932176474,1.364788441089407,177.572956285592,179.36869026606018,1.0,8.410217282457909e-05,0.002678809949227334,0.003640495987592402,0.0003463679963792626,94.64169288035593,1.0107797855512273,107,3.566666666666667
1.2345157705403653,0.8463980933774377,0.110520139336586,0.9996359944343567,1.1478329538641419,0.9754859291329612,-0.06180598586797714,0.9999872446060181,1.3490950453588646,0.9881616071812132,6.549027602886781e-05,0.9999881982803345,1.1880880916404088,1.3756346038547096,-0.010989174246788025,0.9999728202819824,1.2974040571762635,1.37371199315648,0.010847999714314938,0.9999788403511047,1.179874821861161,1.5991958117060798,0.12681844830513,0.9407064318656921,1.2804463230089074,1.6485317624118179,0.1016031950712204,0.8601798415184021,1.1831201146065442,1.8463980933774378,0.1747010052204132,0.9447148442268372,1.2646530331697787,1.9386834068924554,0.14240413904190063,0.8757467269897461,1.0902354701277743,1.3614245877358297,-0.05817035585641861,0.7601671814918518,1.365189420187263,1.3457076524522924,0.03366047143936157,0.9289908409118652,0.00505635142326355,1.2427460744083363,1.374673298505595,177.14385318859797,179.58464596382245,1.0,-3.1145024708632114e-05,-0.002153141000210921,-0.0008549551810773605,-0.03579895263869814,94.7370597731932,1.0195403334274078,108,3.6
