nose_x,nose_y,nose_z,nose_visibility,left_shoulder_x,left_shoulder_y,left_shoulder_z,left_shoulder_visibility,right_shoulder_x,right_shoulder_y,right_shoulder_z,right_shoulder_visibility,left_hip_x,left_hip_y,left_hip_z,left_hip_visibility,right_hip_x,right_hip_y,right_hip_z,right_hip_visibility,left_knee_x,left_knee_y,left_knee_z,left_knee_visibility,right_knee_x,right_knee_y,right_knee_z,right_knee_visibility,left_ankle_x,left_ankle_y,left_ankle_z,left_ankle_visibility,right_ankle_x,right_ankle_y,right_ankle_z,right_ankle_visibility,left_wrist_x,left_wrist_y,left_wrist_z,left_wrist_visibility,right_wrist_x,right_wrist_y,right_wrist_z,right_wrist_visibility,trunk_lateral_inclination,center_mass_x,center_mass_y,left_knee_angle,right_knee_angle,person_height,center_mass_velocity_x,center_mass_velocity_y,center_mass_acceleration_x,center_mass_acceleration_y,body_orientation,torso_leg_ratio,frame,timestamp
1.0180050579728703,1.0476926007097274,-0.1891564428806305,0.9997203946113586,0.9498733221532227,1.2074826519157573,0.03388846665620804,0.9999859929084778,0.9217869542635021,1.240146304575435,-0.35018858313560486,0.9999945759773254,1.0527831383955386,1.6389558891719347,0.12528114020824432,0.9999880790710449,1.0273599439770909,1.6777868608538995,-0.12539415061473846,0.9999920129776001,1.2771367928641348,1.7083539392679044,0.21799619495868683,0.24164322018623352,1.3282881197768197,1.7115917103405358,-0.1459774523973465,0.949284017086029,1.2489589435516772,2.0476926007097274,0.3389940559864044,0.3859260380268097,1.2839425536657092,2.0800373181360383,-0.00305266329087317,0.9263144135475159,1.204859327495138,1.5857312690001595,0.03281008452177048,0.2790471613407135,1.2071384361018687,1.6010935779255684,-0.447340190410614,0.991064190864563,0.013631105422973633,1.0400715411863148,1.658371375012917,102.44130128163584,89.54644415247724,1.0,0.03875724200649798,0.010103231486701768,0.22696306572606506,0.05963980523112609,133.37177949946894,1.3158198910845778,0,0.0
1.029274698430325,1.0617795382682451,-0.21180450916290283,0.9997438788414001,0.9712260030639382,1.2194999318667972,0.01093511376529932,0.9999868869781494,0.931291434022497,1.256052078726347,-0.3616865575313568,0.9999949336051941,1.0753487579594838,1.6456924847381986,0.12279850244522095,0.9999884963035583,1.0390780167373235,1.6946867860035284,-0.12288466840982437,0.999992311000824,1.3166224600363958,1.7252018044875002,0.18522867560386658,0.23779039084911346,1.3445883084578012,1.735598303659983,-0.15386250615119934,0.9484878182411194,1.2634414834614496,2.061779538268245,0.3169901371002197,0.3768162429332733,1.2940051221452675,2.101132035510636,-0.0032941997051239014,0.9250729084014893,1.2239639010164869,1.5987145511673861,0.008821041323244572,0.279882550239563,1.2207773302330862,1.6205575727007244,-0.44113874435424805,0.9916182160377502,0.015101015567779541,1.0572133873484035,1.6701896353708636,99.26032310111484,89.74856924758302,1.0,0.05364046208698792,-0.040252571014184474,0.11748666391316208,-0.40909203053222426,129.75830215973792,1.3038203395730734,1,0.03333333333333333
1.0364216014270515,1.0739602277592881,-0.23815540969371796,0.9997642040252686,0.9812249536629156,1.226750250009797,0.001398269785568118,0.9999876618385315,0.937005659147746,1.2646363500456477,-0.3825705647468567,0.9999951720237732,1.0855876064809507,1.6511969264397879,0.12316791713237762,0.9999889135360718,1.0461425919448222,1.7044426994962067,-0.12324385344982147,0.9999925494194031,1.3277608846790803,1.7339357275248812,0.18401870131492615,0.23895962536334991,1.352693501777283,1.7488804350823617,-0.16732241213321686,0.948733925819397,1.271430520499352,2.073960227759288,0.31734469532966614,0.3749803602695465,1.2995773419277679,2.113840310142778,-0.013212422840297222,0.9237771034240723,1.2351691575722126,1.6078762157588178,-0.015574092045426369,0.281860888004303,1.2299741789591174,1.6345036743094432,-0.47010692954063416,0.9918381571769714,0.015558302402496338,1.0658650992128864,1.6778198129679973,99.45628945155164,89.96749167663836,1.0,0.01706399406271076,-0.018297109823769232,-0.27657313402327166,0.16638034736889437,129.65475457392122,1.2849780202432606,2,0.06666666666666667
1.037342733445452,1.0755405154019824,-0.24768123030662537,0.9997839331626892,0.9900464104880529,1.2245581317538559,-0.0076484838500618935,0.9999883770942688,0.9375595306469107,1.2647525274975497,-0.3862743675708771,0.9999954104423523,1.0928895193968073,1.6449075602233407,0.1232331171631813,0.9999893307685852,1.0483265053856583,1.7018134492683077,-0.12330857664346695,0.9999927878379822,1.3317697137112285,1.7338230209322787,0.17802117764949799,0.23365692794322968,1.354284442168704,1.7506588215578525,-0.16922587156295776,0.9478235840797424,1.2741139145930265,2.0755405154019826,0.314037561416626,0.3667955994606018,1.299676931653771,2.11495465033555,-0.01866985112428665,0.9210130572319031,1.2362302409804944,1.6087123460262827,-0.0450584813952446,0.28516629338264465,1.2311372711550808,1.636951455811578,-0.4772064685821533,0.9918506145477295,0.016497671604156494,1.070608012391233,1.6733605047458242,100.83921128805387,90.54547931141843,1.0,0.03274395344922017,-0.04164621667979348,0.12246109554285721,-0.18238626149592096,128.18752103319684,1.2629069504217623,3,0.1
1.0373254395069813,1.077370731191934,-0.23296372592449188,0.9998003840446472,0.9879890248065147,1.2249001806558877,0.005758477374911308,0.9999890327453613,0.9371021303694622,1.2663860172807342,-0.3787733018398285,0.9999955296516418,1.0907712386770787,1.6450927428811595,0.123695507645607,0.9999896883964539,1.0482927234919994,1.7008386102035746,-0.12376636266708374,0.9999929666519165,1.3339411312588092,1.7382061369594546,0.1836199015378952,0.2274203896522522,1.3545640283476488,1.7519879694324665,-0.16754014790058136,0.945580244064331,1.279776873724321,2.0773707311919343,0.3288012742996216,0.35746434330940247,1.2984290716655869,2.113908703759175,-0.013411169871687889,0.9154797196388245,1.2376067564837583,1.6074307505114327,-0.02929583564400673,0.2864178419113159,1.2326066461861407,1.6360425330834802,-0.46396589279174805,0.9913848042488098,0.017038345336914062,1.069531981084539,1.672965676542367,101.879129106943,90.66478645790917,1.0,-0.0030124258915788966,0.004756377674338832,-0.26280631205760185,0.34105895385594515,128.947413830801,1.2522737674858824,4,0.13333333333333333
1.0381579074277654,1.0763825328515424,-0.2318727970123291,0.9998144507408142,0.9864186091574946,1.2250030331306339,0.010480912402272224,0.9999896287918091,0.9366554689212708,1.2654860627194124,-0.38597777485847473,0.9999957084655762,1.090520873921625,1.6448672141458396,0.12647496163845062,0.9999901056289673,1.048675346822987,1.6998125296831628,-0.12654337286949158,0.9999932050704956,1.3366152785806298,1.737079026668561,0.18699899315834045,0.2239128202199936,1.3556710985545908,1.7509891486805464,-0.1699211150407791,0.9452380537986755,1.2805309708200867,2.076382532851542,0.33356475830078125,0.3529197573661804,1.297010895991503,2.112572259396958,-0.01509865652769804,0.912796676158905,1.2381482188144313,1.6059791797791099,-0.01263941265642643,0.2921745777130127,1.2318401773306318,1.6357111844670642,-0.490744411945343,0.9915265440940857,0.01663672924041748,1.069598110372306,1.6723398719145013,101.15532659849563,90.249355578402,1.0,0.005648520792763191,0.0031491252672838327,0.06751961196510066,-0.012509786543853336,128.78239625265343,1.2546853581150346,5,0.16666666666666666
1.0393533018643848,1.0772488349635323,-0.22743234038352966,0.9998266100883484,0.987123405202784,1.224208099754899,0.011059020645916462,0.9999901652336121,0.9369079854179608,1.265584509067358,-0.3807483911514282,0.9999958872795105,1.0902730923083115,1.6452305758658041,0.12641975283622742,0.9999904632568359,1.0486526336478414,1.7004079214139343,-0.1264893114566803,0.9999933838844299,1.3366628481828116,1.737161825750216,0.188139408826828,0.22010257840156555,1.356355491055936,1.7509208420681606,-0.16821429133415222,0.94417405128479,1.2808442294295954,2.077248834963532,0.32992884516716003,0.34858080744743347,1.297173125271292,2.1130114565394527,-0.015906069427728653,0.9099581837654114,1.2386279712464177,1.605931595832522,-0.00933720264583826,0.2957969903945923,1.2317037871889684,1.6360131257209518,-0.47736111283302307,0.9917515516281128,0.017002403736114502,1.0694628629780765,1.6728192486398692,101.14032998664334,90.03990038655768,1.0,-0.0017968778722333273,0.0026493275086380713,-0.05883496734675299,-0.003951383506373495,129.2064303647347,1.2528704596474591,6,0.2
1.0395346865349382,1.0774205743131922,-0.23233410716056824,0.9998385906219482,0.9888099715913686,1.222174762078528,-0.0013460858026519418,0.9999907612800598,0.9372750010208887,1.267617112256489,-0.3816073536872864,0.9999960660934448,1.08953400836019,1.6429948864173347,0.1248868927359581,0.9999907612800598,1.048640868899247,1.6999234133992969,-0.12493888288736343,0.9999935030937195,1.3351652030059897,1.7369102663108824,0.1843222677707672,0.2125905305147171,1.3561783206463882,1.7513308000786538,-0.16711483895778656,0.941331684589386,1.2811827831812952,2.077420574313192,0.3263399004936218,0.3378724455833435,1.2973078203267758,2.1152112274984702,-0.014068466611206532,0.9054035544395447,1.2390654476348637,1.6059788756181816,-0.018807772547006607,0.3050888776779175,1.231797445232312,1.6361329184789708,-0.47323331236839294,0.9917292594909668,0.01867157220840454,1.0690874386297184,1.6714591499083158,101.91565479811777,90.29973263444882,1.0,-0.003559397445116688,-0.011450918112817033,-0.013415852923950124,-0.10733866826528049,130.84878814744187,1.2429604500948512,7,0.23333333333333334
1.0414488014584127,1.0775890338131446,-0.22811873257160187,0.9998503923416138,0.9894024500731006,1.2212666043324052,0.0006009404314681888,0.9999912977218628,0.9376084247598186,1.2677439350330737,-0.3788316547870636,0.9999962449073792,1.0892088017834332,1.643856041519029,0.12507186830043793,0.9999911189079285,1.0464421443450231,1.700395218950544,-0.12512539327144623,0.9999937415122986,1.3354555421484657,1.7375006456877633,0.1849256157875061,0.21030613780021667,1.356295586281587,1.7519383691755337,-0.1660003513097763,0.9412844181060791,1.2827492833591319,2.0775890338131444,0.3277846574783325,0.33086925745010376,1.2974632741506087,2.11559232928741,-0.009525088593363762,0.9028635621070862,1.2391480926238372,1.6064228375554057,-0.013721439056098461,0.31691116094589233,1.2320685978679826,1.6368061468314288,-0.4702025055885315,0.991875171661377,0.019092321395874023,1.067825473064228,1.6721256302347867,102.01168448486406,90.25474598887799,1.0,-0.011726384532008532,0.0021043395749313254,-0.06323138135085411,0.10498080679625456,129.60736627365,1.2420439694027794,8,0.26666666666666666
1.0400802900943606,1.0758131632032852,-0.23053821921348572,0.9998598098754883,0.9887600097323961,1.2193366686854363,-0.0013894557487219572,0.9999916553497314,0.937121086841208,1.2669373281066976,-0.381557434797287,0.9999963641166687,1.0885379305938767,1.640352617544433,0.12451299279928207,0.999991238117218,1.0460416361986027,1.697585277802466,-0.12456806749105453,0.9999938011169434,1.3329566701935376,1.736992065228784,0.18723899126052856,0.200511172413826,1.3540616853980523,1.7492675169547307,-0.164336696267128,0.9366939663887024,1.2834758822229413,2.0758131632032852,0.32731619477272034,0.3174661695957184,1.295508965705473,2.1123434032050703,-0.00702629005536437,0.8943411111831665,1.2369429179325626,1.6033937059154728,-0.018955621868371964,0.32095831632614136,1.2301454520931931,1.6341043555369734,-0.4750433564186096,0.9920879006385803,0.0195845365524292,1.0672897833962396,1.6689689476734495,103.26445543645956,90.36372214129665,1.0,0.009076535660208879,-0.0042127793744703036,0.1652284407228008,-0.050192285457422735,130.07271103534933,1.2378622117182418,9,0.3
1.0400107455146204,1.076433955101914,-0.2290850579738617,0.9998700618743896,0.985570619346808,1.2192006035334606,0.0006885475595481694,0.9999920725822449,0.9373020660779617,1.2666003751369534,-0.3801575303077698,0.9999964833259583,1.087867324618187,1.640357273151112,0.12437520176172256,0.9999914765357971,1.0481895336109137,1.6974568345159604,-0.12443436682224274,0.9999939799308777,1.3322957687689252,1.7384733242744406,0.20234477519989014,0.19421090185642242,1.3543150925880791,1.7495063806381992,-0.1640077531337738,0.9366865754127502,1.2834351112804654,2.076433955101914,0.34912893176078796,0.3100799024105072,1.2954035112395867,2.1121909659599103,-0.007230558432638645,0.8930072784423828,1.23628652223766,1.6021598513358486,-0.017625099048018456,0.3217979669570923,1.2301686189688754,1.633872591195095,-0.4715180993080139,0.9922917485237122,0.019503653049468994,1.0680284291145503,1.6689070538335362,103.64448914452419,90.42344701003681,1.0,0.006235512727483304,0.0006676369342790655,-0.02119883060629186,0.03642385224861463,131.55258398535463,1.23680998873645,10,0.3333333333333333
1.0399508639290869,1.0753329480034994,-0.2322380095720291,0.9998772144317627,0.9899775623335695,1.2189234409674163,0.0007271987851709127,0.9999923706054688,0.9373863398884301,1.267631265707127,-0.38027262687683105,0.9999966025352478,1.0880206641450783,1.6395932631677732,0.12402354180812836,0.9999916553497314,1.0479002106762625,1.6971857839649398,-0.12407602369785309,0.9999940395355225,1.3318203996085682,1.73775736588487,0.20222322642803192,0.18635974824428558,1.3539440864301286,1.7490507837397375,-0.16545715928077698,0.9350436925888062,1.283021045757749,2.0753329480034997,0.34251660108566284,0.29896080493927,1.2951279430700515,2.112075079360229,-0.011077632196247578,0.8895763158798218,1.2362881933094827,1.6014819605825248,-0.015003140084445477,0.3234499990940094,1.230689131656661,1.6334215652723492,-0.46989044547080994,0.9922623634338379,0.0200464129447937,1.0679604374106704,1.6683895235663566,103.70620515948848,90.41555452850156,1.0,0.001411027034967346,-0.0011393020290681472,-0.03921658727367407,-0.014691052941491214,132.01852292815428,1.2385627356377313,11,0.36666666666666664
1.040484387993887,1.079968438167108,-0.1985245794057846,0.9998844861984253,0.9885276565926403,1.222650792261608,0.024105902761220932,0.9999926090240479,0.9391439164617857,1.2704109049294046,-0.3572922646999359,0.9999966621398926,1.086859138643588,1.6420670042166312,0.12394009530544281,0.9999918937683105,1.0492640273342526,1.7002449580501273,-0.12400267273187637,0.999994158744812,1.3318374188557878,1.7398398023803487,0.20080259442329407,0.1862521916627884,1.3555524441024263,1.7514353390290327,-0.1618707925081253,0.9359305500984192,1.2839377983620301,2.079968438167108,0.3262380063533783,0.3021540343761444,1.2988767372222905,2.1160993698872357,-0.0167209692299366,0.8920549154281616,1.2377248883919265,1.6024464916065813,0.025182047858834267,0.32738009095191956,1.2332417855522535,1.6354872234686968,-0.4281916618347168,0.9923854470252991,0.019630074501037598,1.0680615829889204,1.6711559811333794,103.74120726212305,90.65404889661089,1.0,-0.009858989213658981,0.00394338058219987,-0.08359703497468265,0.03770655641317778,133.9344959715264,1.2284287245768581,12,0.4
1.0390018611964222,1.0783083950196453,-0.1904143989086151,0.9998888969421387,0.9840222810683178,1.2217233320585545,0.03064802661538124,0.9999927282333374,0.9386382958142412,1.2684577092238625,-0.3536803424358368,0.9999966621398926,1.0848847768381613,1.6405804245230766,0.12393166124820709,0.9999919533729553,1.0488185030119004,1.6980391623066673,-0.12399715185165405,0.999994158744812,1.3289892384241417,1.7383379094563345,0.20190873742103577,0.17986519634723663,1.3535226252006836,1.748842598793792,-0.15893206000328064,0.9336035251617432,1.2807621970777203,2.0783083950196453,0.3280109167098999,0.29488635063171387,1.2971227116790547,2.1133991806565318,-0.017194285988807678,0.8905215263366699,1.2358754045347278,1.5977251207069796,0.03975896164774895,0.32554712891578674,1.2314243459783576,1.632766672174136,-0.4246067404747009,0.9924207329750061,0.019236624240875244,1.0668516399250307,1.669309793414872,103.75090530480014,90.67146563499861,1.0,0.0026235275548760484,0.004454446969841916,0.09278723155608433,0.0038462740168010894,134.34463330806557,1.2303080166922304,13,0.43333333333333335
1.0402921901885656,1.0779898206856813,-0.19733348488807678,0.9998952150344849,0.9872177288879849,1.2219931679442084,0.026925256475806236,0.9999930262565613,0.9386893571801374,1.2683140429222204,-0.35615333914756775,0.9999967813491821,1.0857662608791332,1.642076139997061,0.12374845892190933,0.9999921321868896,1.0486059001222647,1.6985295661231956,-0.12381470203399658,0.9999942779541016,1.3291239723503705,1.737856523932826,0.199985533952713,0.17467047274112701,1.3525608627008698,1.7486444833574508,-0.1594586968421936,0.9318944215774536,1.2804384445382282,2.0779898206856813,0.3263661861419678,0.2892821133136749,1.296856805525293,2.1134053215909034,-0.016939641907811165,0.8891419768333435,1.2362696888511824,1.5968299492771616,0.033915918320417404,0.32892003655433655,1.231242430845161,1.632318562879453,-0.4292246699333191,0.9926112294197083,0.019070208072662354,1.067186080500699,1.6703028530601283,103.33774261907232,90.67969653232721,1.0,0.004133592749393136,0.010021942858051674,0.01142874863328461,0.04212908755583934,133.44271330900375,1.2363084222370841,14,0.4666666666666667
1.0415569478451252,1.0798817989290637,-0.20312821865081787,0.9999024868011475,0.9871833393990697,1.2234184712504022,0.019868716597557068,0.9999933838844299,0.9399443555938249,1.269406582600367,-0.3621193766593933,0.9999969005584717,1.0853937092795332,1.6436262635974597,0.12377534061670303,0.9999924302101135,1.0492143392123519,1.7002847575206497,-0.1238434687256813,0.9999944567680359,1.33048080699822,1.7382188558733946,0.19991599023342133,0.1749958097934723,1.3538482985301596,1.7503851555406715,-0.15945394337177277,0.9323017597198486,1.281870674540072,2.0798817989290637,0.32793325185775757,0.28799352049827576,1.297997394064022,2.117409276787194,-0.008447043597698212,0.888113796710968,1.237294576767986,1.5981789604035541,0.006334321107715368,0.3358699381351471,1.23269857690797,1.6334901681816274,-0.4313144087791443,0.9926944375038147,0.018915772438049316,1.0673040242459426,1.6719555105590547,103.00692601507002,90.68686574778556,1.0,-0.006792541141719524,0.0008855882091045204,-0.08574537915953144,-0.07174715085083877,134.2847158760454,1.2313679238431934,15,0.5
1.0443575906768732,1.0762796032996818,-0.204965278506279,0.9999070167541504,0.9872768531793734,1.2205492679104992,0.019781503826379776,0.999993622303009,0.9383738976620978,1.267346060528382,-0.3625065088272095,0.9999969601631165,1.0860283868975342,1.639787806346942,0.12370368093252182,0.9999925494194031,1.0464145242323675,1.6964690704899867,-0.12377192825078964,0.9999945759773254,1.3276681274263615,1.7343810147360559,0.19173522293567657,0.173831969499588,1.3500864911138142,1.746311576348893,-0.16228049993515015,0.931190550327301,1.2807410686150789,2.0762796032996818,0.31698307394981384,0.28648513555526733,1.2948456732358564,2.11109913510332,-0.011674025095999241,0.8859755992889404,1.2357027973183092,1.5937669722861927,0.008795168250799179,0.33777788281440735,1.2302914731378747,1.629197931095256,-0.43585005402565,0.992702305316925,0.01929253339767456,1.0662214555649507,1.6681284384184643,103.56328318940025,90.70996572197107,1.0,0.009240519709924703,-1.4745118018017664e-05,0.10890438897264838,-0.006107662507685269,131.79635997221487,1.2343992339219008,16,0.5333333333333333
1.0553148439568278,1.087356327525336,-0.19524028897285461,0.9999123215675354,0.9953273003182767,1.2313380287069589,0.027507003396749496,0.9999938607215881,0.9462785401598346,1.2766744701408532,-0.3483925461769104,0.9999970197677612,1.0936655524423948,1.649780980615815,0.1225910633802414,0.9999926686286926,1.0528700593143094,1.707143681823119,-0.12266246974468231,0.9999946355819702,1.3390060388108562,1.7418468923880805,0.17427511513233185,0.1748628169298172,1.3581473093873693,1.7551141322665957,-0.1633506566286087,0.9302190542221069,1.2888431756315681,2.087356327525336,0.28757020831108093,0.2854163348674774,1.3030941494168273,2.124381737935237,-0.02301543578505516,0.8855760097503662,1.2466741507656238,1.6022890837619375,0.027350565418601036,0.3512844443321228,1.2384003680599454,1.63650821169005,-0.4191111624240875,0.9928030967712402,0.018572092056274414,1.073267805878352,1.678462331219467,102.30820921789733,90.45065759137523,1.0,0.0019484636794498782,-0.0023455466495726327,-0.05744105056022005,-0.018212347244069102,131.35504201848022,1.2270571934794592,17,0.5666666666666667
1.067787503248582,1.0938093297739762,-0.19892485439777374,0.9999167323112488,0.9994112550241142,1.2365587980367276,0.02569715306162834,0.999994158744812,0.9532283835867136,1.2822945944545894,-0.353109210729599,0.999997079372406,1.0962880060344533,1.6566574906327225,0.12258049100637436,0.999992847442627,1.0554227628037967,1.7142994084566954,-0.12265481799840927,0.999994695186615,1.343728211120529,1.7438462523693552,0.17885610461235046,0.1791374236345291,1.3604077113755568,1.7593903471980656,-0.16337957978248596,0.930846631526947,1.2932058844395462,2.093809329773976,0.2990674376487732,0.2901571989059448,1.3086998577674553,2.132731086238864,-0.023138197138905525,0.8870762586593628,1.254405997746286,1.6083042705345267,0.024783549830317497,0.3676229417324066,1.2462598656612265,1.6425645812980607,-0.4244511127471924,0.9929420948028564,0.018655478954315186,1.075855384419125,1.685478449544709,101.19583407273089,90.52472708842951,1.0,-0.015655516558488933,-0.0015479447018937045,-0.13603390938950619,0.006238390575501583,131.67959347727438,1.2240840975283345,18,0.6
1.074075702319402,1.1003981768113718,-0.21056827902793884,0.9999203681945801,0.996837035755608,1.2419306420733887,0.025550762191414833,0.9999942779541016,0.9659447930558398,1.2861539642893072,-0.3741585612297058,0.999997079372406,1.0973529591278752,1.6631215939499224,0.12608344852924347,0.9999929666519165,1.0591735451687019,1.7193281016345523,-0.126193106174469,0.9999947547912598,1.3471798013431608,1.7418504469203706,0.18026016652584076,0.19319485127925873,1.3624069888262398,1.7570544807548851,-0.16718646883964539,0.9333998560905457,1.2965965528760093,2.100398176811372,0.29242584109306335,0.3082333207130432,1.3130753562602813,2.1381885948204555,-0.04162699356675148,0.8916605114936829,1.2579155986496733,1.6105072722606029,0.0069380151107907295,0.3780011832714081,1.2528565264383527,1.6441682810108502,-0.4767078459262848,0.9932039380073547,0.017987430095672607,1.0782632521482887,1.6912248477922374,99.46120807854436,89.71692788000934,1.0,-0.004818514219363457,0.007098250145228031,0.08073539249516716,0.06418321336719679,132.3904875500907,1.21990295352589,19,0.6333333333333333
1.0766925231526527,1.1083240999246766,-0.22287476062774658,0.9999241232872009,0.9914280431748452,1.246890389474076,0.012054012157022953,0.9999943971633911,0.9743884880023052,1.291003504944562,-0.3836080729961395,0.999997079372406,1.1002025981216061,1.6705684529102043,0.12617328763008118,0.9999929070472717,1.0644344836888213,1.7263179431422067,-0.12628725171089172,0.9999946355819702,1.3509767556383363,1.7463750689288113,0.1674955189228058,0.20852278172969818,1.3661900006780727,1.759079592056165,-0.1702619343996048,0.9351612329483032,1.3014056697174055,2.1083240999246766,0.26606836915016174,0.32782885432243347,1.318120088293597,2.144910608395952,-0.05240088701248169,0.8955833315849304,1.2630802945453685,1.6137506672250104,-0.006354613695293665,0.3917868137359619,1.2586210472296024,1.6468516466649927,-0.4869387745857239,0.9935910105705261,0.017876088619232178,1.0823185409052138,1.6984431980262054,99.02107917314578,89.0945702273973,1.0,0.0003282704705064483,0.00704284284805224,0.03930653371710164,-0.0006226946845286138,132.9172707741543,1.217206049511962,20,0.6666666666666666
1.0847464137449996,1.1092466427022534,-0.21023008227348328,0.9999269247055054,0.9938955279420197,1.2463136336888505,0.01283965539187193,0.9999945759773254,0.9802859084849431,1.2937851589930236,-0.37614813446998596,0.9999971389770508,1.0977577936158784,1.6733903252811855,0.12540294229984283,0.999993085861206,1.0646334958391444,1.7312074954637178,-0.12552069127559662,0.9999947547912598,1.345924719090458,1.7397192747864532,0.17040002346038818,0.22749528288841248,1.3648339465718333,1.7566099403577944,-0.16137553751468658,0.9378275871276855,1.2959164519050326,2.1092466427022534,0.2663126289844513,0.3507792353630066,1.3197730398216379,2.1433448274314264,-0.04208165779709816,0.9013847708702087,1.2636321178277383,1.6110000439297703,-0.0027407780289649963,0.4048704504966736,1.2619062738849731,1.6455718166019653,-0.47338995337486267,0.9939302802085876,0.019226431846618652,1.0811956447275115,1.7022989103724515,97.25694643707052,88.19082443730508,1.0,-0.012645633276006922,0.0214746563419862,-0.09542400263060573,0.10611700900582736,136.5223622908997,1.2335536330956152,21,0.7
1.1014759608185407,1.1188367137925974,-0.2063312977552414,0.9999322891235352,1.02190299853655,1.256770552672403,0.015603291802108288,0.9999948740005493,0.9949401077767654,1.3049921291884596,-0.36457180976867676,0.9999972581863403,1.1068439477859549,1.6892831855215653,0.12426228821277618,0.9999932050704956,1.071531407483942,1.7501008802516167,-0.12436572462320328,0.9999948143959045,1.362058814930485,1.7439539745631873,0.15084919333457947,0.2382054179906845,1.3760861786709095,1.7683479250427452,-0.1621338129043579,0.9387627840042114,1.3126616996530371,2.1188367137925974,0.23806123435497284,0.35861462354660034,1.3302579759214161,2.1568249738394023,-0.04145388677716255,0.9035893082618713,1.276631087857906,1.6229163720152022,0.006947427988052368,0.4283200204372406,1.274955711380524,1.6583860020507,-0.45863842964172363,0.9942256212234497,0.019367098808288574,1.0891876776349483,1.719692032886591,94.58442975815151,86.70068779160933,1.0,-0.008693777280396747,0.023853880810585627,0.031675417064516154,0.017158187770907916,138.74840445067116,1.256433578166227,22,0.7333333333333333
1.1253202280241419,1.12978969044102,-0.21946163475513458,0.999937117099762,1.0486750327652627,1.2635282255837978,0.011929597705602646,0.9999951720237732,1.0067470623192165,1.3129622095860518,-0.3711105287075043,0.9999973773956299,1.1130499318428808,1.7006998081094287,0.12458095699548721,0.9999933242797852,1.0749204485386141,1.7626733887564483,-0.12467750161886215,0.9999948143959045,1.371926848174234,1.7488713855609583,0.14557050168514252,0.25512003898620605,1.3825717157058657,1.7742768137151166,-0.16522106528282166,0.9409217238426208,1.3198883578327856,2.12978969044102,0.2218455821275711,0.3759068548679352,1.3373792326585874,2.167348486589598,-0.0466119609773159,0.9072321653366089,1.2842630927483034,1.63126774629613,-0.01803695410490036,0.4629541337490082,1.2843656194418072,1.665079467887953,-0.4811194837093353,0.9946415424346924,0.01974356174468994,1.0939851901907474,1.7316865984329384,92.76178043987733,85.60130455196558,1.0,-0.009352952706694836,0.017107662006187137,-0.0044029475225595615,-0.04961410479649696,140.02114788891325,1.2598858230821959,23,0.7666666666666667
1.1496692753792992,1.1459688384815356,-0.1838703602552414,0.9999380111694336,1.0611633556353208,1.2737775085900715,0.038962867110967636,0.9999951720237732,1.0269892677779382,1.3209378310508069,-0.34042027592658997,0.9999974370002747,1.1187791588855118,1.7202735316751065,0.12413915246725082,0.9999932050704956,1.0807816045865053,1.7813501800585503,-0.12425146251916885,0.9999946355819702,1.3829191526693614,1.7612119884018334,0.1541563868522644,0.2762010991573334,1.3933171043628185,1.7819122355663821,-0.1646655797958374,0.9437932968139648,1.3273097988444398,2.1459688384815356,0.23385755717754364,0.39955905079841614,1.3489753315988373,2.1783919361804545,-0.042998455464839935,0.9113079309463501,1.2940999437568486,1.6340932914381139,0.03293157368898392,0.486924409866333,1.2944144361483059,1.675558458999314,-0.4306963384151459,0.9950525760650635,0.018689632415771484,1.0997803817360086,1.7508118558668284,90.58597010571724,83.72167147333012,1.0,-0.020959874559707107,0.042900496140049725,-0.08817173148079772,0.19615402402250778,140.76024858853745,1.2764960226989746,24,0.8
1.1638512973563244,1.1450130488879582,-0.17770472168922424,0.9999402165412903,1.0722732923533795,1.274149092090875,0.04953506588935852,0.9999951720237732,1.0421595020190257,1.3157889551179778,-0.33773481845855713,0.9999974966049194,1.118378861726614,1.7224145515765203,0.12437599897384644,0.9999929070472717,1.0806311391240326,1.7825059987128236,-0.12449252605438232,0.9999943971633911,1.3887727742562315,1.7568659623975116,0.15079709887504578,0.29166895151138306,1.3936117572439775,1.7802406163945839,-0.1645035445690155,0.9463615417480469,1.3272038646279127,2.145013048887958,0.2160409390926361,0.41840457916259766,1.3473541846282078,2.178874347170141,-0.04119119793176651,0.9145654439926147,1.2940757319114073,1.629764175355333,0.0450393483042717,0.5031314492225647,1.2953952494210752,1.6727692847250881,-0.4265553951263428,0.9954318404197693,0.016499578952789307,1.0995050004253233,1.752460275144672,88.24773068387,82.96627962616361,1.0,-0.003219964577535604,0.01055872513679951,0.13335747914489476,-0.24312998419843582,141.9917318675389,1.2900267623160313,25,0.8333333333333334
1.1828084513357284,1.151940253375051,-0.16979627311229706,0.9999361634254456,1.0925800372037453,1.2821087068989683,0.05424762889742851,0.9999948740005493,1.0585416098557359,1.3195802334304947,-0.32552284002304077,0.9999973773956299,1.1272898819156234,1.730056973760396,0.12346295267343521,0.9999924898147583,1.0861398405357314,1.7902407831419387,-0.12357111275196075,0.9999939203262329,1.3970034354415128,1.7654551610544078,0.1526532769203186,0.28978976607322693,1.4001226624970182,1.7880391447052515,-0.16162623465061188,0.9454996585845947,1.333777922548841,2.151940253375051,0.23161360621452332,0.4216238856315613,1.352468199290516,2.18878781360106,-0.026897508651018143,0.9141302704811096,1.3012067000592156,1.6379694301845702,0.05689390376210213,0.5113998651504517,1.3028272897081299,1.6807795030166557,-0.40070462226867676,0.9954923391342163,0.01477968692779541,1.1067148612256774,1.7601488784511672,88.18619024779166,82.81684772924153,1.0,0.0170533171627571,-0.0031883141225301555,0.1620146613963081,-0.11016863220824756,141.20726240832334,1.2946091525235501,26,0.8666666666666667
1.2015177715378218,1.1536141091722791,-0.16021879017353058,0.9999315738677979,1.1035682646752103,1.2846003847051537,0.060113489627838135,0.9999945163726807,1.0721649921031937,1.3168136384713622,-0.3242437243461609,0.9999972581863403,1.1320248176483811,1.730837949097071,0.1234642043709755,0.9999915361404419,1.0915224312168097,1.7899185656263579,-0.12357232719659805,0.999993085861206,1.3975205185028874,1.7680437052636226,0.15448832511901855,0.2925725281238556,1.4009069702612982,1.7903080945269905,-0.15834851562976837,0.9464823007583618,1.3326010512592663,2.153614109172279,0.21600019931793213,0.43398675322532654,1.353744486430868,2.191467668836622,-0.04015811160206795,0.916849672794342,1.3071050540240747,1.6396617237878692,0.046306632459163666,0.5243645906448364,1.3061393973628017,1.6833355347663994,-0.4063490033149719,0.9957032799720764,0.012697577476501465,1.1117736244325955,1.7603782573617144,88.41991231839856,83.36691624638148,1.0,0.031269400136751335,-0.00643861670930501,0.1020838728674257,-0.023343272226411384,141.9188224746935,1.2976339735854658,27,0.9
1.2179270810487866,1.154353281050299,-0.15229660272598267,0.9999321699142456,1.1095668121213955,1.2848863713708794,0.07048682868480682,0.9999940991401672,1.089093391011049,1.314942864273344,-0.3196081519126892,0.9999972581863403,1.1309700595179575,1.7305274939687965,0.12417755275964737,0.9999905228614807,1.095441166461215,1.7852968713368473,-0.12428389489650726,0.999992311000824,1.3911269086206506,1.7721725188876873,0.14487537741661072,0.3013719916343689,1.4006449417298776,1.7915073092891878,-0.15799474716186523,0.9487526416778564,1.3289903122613043,2.154353281050299,0.17854033410549164,0.45278123021125793,1.3515646340817824,2.192666661624908,-0.06186646968126297,0.9212115406990051,1.3063550355822096,1.6385077403595278,0.06401409953832626,0.5203739404678345,1.3078861671796655,1.6839675109091046,-0.4073038697242737,0.9959493279457092,0.011844456195831299,1.1132056129895862,1.757912182652822,89.8599637657809,84.19046867279418,1.0,0.009223479786558905,-0.023302315129691744,-0.1766116482716933,-0.13503517070345797,144.2788385497429,1.2934798268963932,28,0.9333333333333333
1.2592075857584528,1.178752174852094,-0.16174672544002533,0.9999276399612427,1.1549815557525618,1.3076219443754258,0.06720572710037231,0.9999932646751404,1.1217569334196646,1.3310025094167293,-0.324443519115448,0.9999971985816956,1.1490420230957052,1.752972965062848,0.12460391223430634,0.9999893307685852,1.1113659883127822,1.8080895725318584,-0.12469568103551865,0.9999915361404419,1.4092428637767422,1.7986101326559218,0.14801634848117828,0.2858542799949646,1.415512996170636,1.8186575781236294,-0.16444681584835052,0.9477618932723999,1.3479488297497164,2.178752174852094,0.20400485396385193,0.44041794538497925,1.3669947457243647,2.2210715461502293,-0.062369078397750854,0.9199442267417908,1.3227020426007068,1.6605571988494976,0.029793674126267433,0.5020706653594971,1.326088487184031,1.706176438206542,-0.4109196066856384,0.99590003490448,0.009094595909118652,1.1302040057042437,1.7805312687973534,90.78851450705729,85.11516624880856,1.0,0.019253863591842318,-0.003124237073450438,0.07866301602840502,0.16259566369305847,146.40877118856278,1.290241938828659,29,0.9666666666666667
1.2890414362834048,1.1859811738711084,-0.12546882033348083,0.9999139308929443,1.177019198052195,1.3170638088650868,0.09897050261497498,0.9999924302101135,1.1453434610633808,1.334329689140831,-0.2921845316886902,0.9999968409538269,1.1524511236749126,1.7597978040768911,0.12605760991573334,0.9999880194664001,1.1169887478405351,1.8130359463603436,-0.12615159153938293,0.9999904632568359,1.407584514555544,1.8177588112350505,0.18333831429481506,0.26796597242355347,1.4172094807469549,1.830411428336897,-0.16173771023750305,0.9489567875862122,1.3537270381170274,2.185981173871108,0.260137677192688,0.43334388732910156,1.3708278241057181,2.23497559363809,-0.056702423840761185,0.922581136226654,1.3298802905013831,1.6669047518947222,0.07332439720630646,0.4944341778755188,1.335118421717062,1.7117106342933268,-0.36325690150260925,0.9956366419792175,0.00669485330581665,1.134719935757724,1.7864168752186174,94.47789738457587,86.77216102428888,1.0,0.006610399231564542,0.0016720791472041331,-0.09038189696634831,0.034192135764043854,149.5082653252836,1.2881760794228818,30,1.0
1.3350279566390808,1.2344515332826635,-0.10143421590328217,0.9999027848243713,1.1917423962610785,1.3487064075358561,0.11581522226333618,0.9999898076057434,1.2004462637516564,1.3666226239927513,-0.27611568570137024,0.9999958276748657,1.1566449702497394,1.8031337355885304,0.12677308917045593,0.9999857544898987,1.145284369721936,1.8538585815225013,-0.12689392268657684,0.9999887943267822,1.4096682815822072,1.8624415094734792,0.1946556121110916,0.25496411323547363,1.451934446045336,1.8784374957925087,-0.14866460859775543,0.9504628777503967,1.3867001622999173,2.2344515332826638,0.2711808979511261,0.43262815475463867,1.404771017595207,2.290182457294603,-0.05359137803316116,0.9263530373573303,1.363324659438272,1.707956994970537,0.10550491511821747,0.4646034836769104,1.380120452946921,1.7541858190358677,-0.3500998616218567,0.9943649768829346,0.006781399250030518,1.1509646699858376,1.8284961585555157,99.65878661872202,88.0481501836901,1.0,-0.09017717442237756,-0.01219082324605777,-0.7623099499711142,-0.10932507719879025,171.79249948337213,1.2485274542309472,31,1.0333333333333334
1.3572581274459188,1.2313239982816988,-0.07116676867008209,0.9998822808265686,1.213516960341138,1.3499928666858465,0.13643492758274078,0.999986469745636,1.2247125589680734,1.3682333421350286,-0.2457156926393509,0.9999948143959045,1.1532355688325404,1.8104729663157813,0.12596926093101501,0.9999815225601196,1.1463827791549583,1.855877890273076,-0.12610143423080444,0.9999862313270569,1.4187589609795892,1.8571164858378097,0.1964157372713089,0.24074102938175201,1.4537418370845632,1.8841792550613032,-0.1429043412208557,0.9521661400794983,1.3872456342935062,2.231323998281699,0.266104131937027,0.4315391778945923,1.4061554589558563,2.2940739894143194,-0.04108383506536484,0.9304912686347961,1.370870855485361,1.7169195117817915,0.1214417964220047,0.44058069586753845,1.3939263573987444,1.7626381439195393,-0.3103802502155304,0.9941104650497437,0.0068967342376708984,1.1498091739937495,1.8331754282944286,95.14956425938954,88.63885229550684,1.0,-0.01753574505917951,0.01993693156420805,0.5336246449774332,0.23579284185178423,178.8755171593628,1.2849517627241107,32,1.0666666666666667
1.3895859068579122,1.2289716032447093,-0.054657358676195145,0.9998432993888855,1.239195880377028,1.350130090166934,0.15053069591522217,0.9999817609786987,1.2489730500466747,1.3665650677930625,-0.23776721954345703,0.999993085861206,1.1497813935757113,1.813039653000528,0.1259411871433258,0.9999788403511047,1.1449165022877654,1.853364495464024,-0.12606951594352722,0.9999840259552002,1.4107606958849819,1.8834255453117044,0.19526731967926025,0.2270084023475647,1.451913159451037,1.8932830054059857,-0.13463716208934784,0.9519060850143433,1.3851899273930541,2.2289716032447093,0.26966795325279236,0.42508387565612793,1.4039619861048762,2.2931452207400245,-0.0184097308665514,0.9320656657218933,1.3837313180121886,1.729735031365612,0.12342952191829681,0.41762053966522217,1.4042500870403305,1.769370793067095,-0.30398333072662354,0.9927223324775696,0.006222367286682129,1.1473489479317383,1.8332020742322759,100.86127373695581,90.57034182103119,1.0,-0.007323810448884339,0.01949536579657207,0.08042354380117918,-0.003275767479034887,175.94658518119954,1.3173688481114132,33,1.1
1.375556143832316,1.2226188323822542,-0.047035329043865204,0.9998212456703186,1.2350793713439505,1.3403260963332142,0.1625535786151886,0.9999796152114868,1.2353520516620007,1.3534471986855185,-0.23413152992725372,0.9999916553497314,1.1352591094803677,1.797239876158209,0.12596310675144196,0.9999765157699585,1.1309979335262168,1.8350310595049917,-0.12609609961509705,0.9999818801879883,1.4008152642323761,1.866125351516597,0.18852663040161133,0.2131497859954834,1.4376632981495645,1.8834873503943648,-0.1398550570011139,0.9524204134941101,1.372211286063649,2.222618832382254,0.2624664604663849,0.4123421907424927,1.3911962632188726,2.274878608119852,-0.01458480954170227,0.9330737590789795,1.3837354614045814,1.7218929068330286,0.1412947177886963,0.41535863280296326,1.394769186562476,1.7550497727378025,-0.30692505836486816,0.9921445250511169,0.005013465881347656,1.1331285215032922,1.8161354678316002,99.95463754083215,92.20846886597693,1.0,-0.027880466115709764,-0.0025145847908214,-0.15330509517594837,-0.1622889843064372,174.10968694440763,1.2849475969333481,34,1.1333333333333333
1.4066812862786187,1.2294207211523003,-0.0529867522418499,0.9997962713241577,1.251999751828058,1.3443386479839825,0.1662018597126007,0.9999757409095764,1.26469923899936,1.3570861734820456,-0.2482806146144867,0.999990701675415,1.141478896661344,1.7982069498940692,0.13154016435146332,0.9999743103981018,1.1360684040736815,1.8360174944006793,-0.1316990852355957,0.9999806880950928,1.4119863136146955,1.870159444213772,0.21121017634868622,0.20001742243766785,1.441881487570161,1.8921356486555019,-0.13921476900577545,0.9539733529090881,1.378867877467216,2.2294207211523003,0.2954690456390381,0.4025907516479492,1.3953149800324078,2.281617883902318,-0.015704479068517685,0.9352864027023315,1.3847578144626815,1.7253628517115531,0.14741989970207214,0.3916212320327759,1.4069873545755058,1.7623935166723115,-0.31600120663642883,0.991869330406189,0.004855751991271973,1.1387736503675128,1.8171122221473743,99.62834439927882,93.58043823456649,1.0,0.017891617368939825,-0.03845724833293925,0.3814376938889002,-0.2988990432873356,174.4577835556181,1.2818807206485199,35,1.1666666666666667
1.3965142206364387,1.2099967559304705,-0.05097956210374832,0.9997008442878723,1.2507780088397225,1.321575519180532,0.17811627686023712,0.9999656677246094,1.273057017515735,1.3338169178187338,-0.2452118694782257,0.9999887943267822,1.1261460956166895,1.774951348614325,0.1335131824016571,0.999972939491272,1.1359541717042196,1.7932369610075822,-0.13366664946079254,0.9999800324440002,1.3742644927975707,1.9009562935991857,0.21306733787059784,0.1935943067073822,1.4345579856761852,1.8668519213984898,-0.12774792313575745,0.9563602209091187,1.3497923571452466,2.2099967559304705,0.32297974824905396,0.4070225656032562,1.382063548069516,2.2462101209870284,0.01325399149209261,0.9383562803268433,1.3639021667742228,1.70245215036073,0.14589136838912964,0.3634131848812103,1.4001031705275009,1.740948493616816,-0.3322121500968933,0.991714358329773,0.004722118377685547,1.1310501336604546,1.7840941548109535,112.39571325462582,95.97061437847675,1.0,0.05245110210725602,-0.0821928606943167,0.278835456933767,-0.35445926868981364,136.42089051090883,1.2591891527036319,36,1.2
1.335235090727692,1.0804510318750669,0.01886111870408058,0.9996800422668457,1.1839224604660747,1.2048148134522718,0.2214745730161667,0.9999583959579468,1.2284787232055014,1.2265916812757327,-0.1980813592672348,0.999988317489624,1.0525199980639066,1.6365017676230493,0.13382162153720856,0.9999735355377197,1.0724733024323003,1.6384938375745972,-0.13400492072105408,0.9999808669090271,1.2874308941224486,1.7583993383234628,0.2070845067501068,0.19183063507080078,1.3487834169986843,1.743006529554604,-0.08772409707307816,0.9592253565788269,1.25710376429519,2.080451031875067,0.31161609292030334,0.4134249985218048,1.2937370477762804,2.106093883077122,0.03975554183125496,0.942362368106842,1.2323783213218353,1.6482475937510346,0.209991455078125,0.3324030637741089,1.3276706205821596,1.6323495540312547,-0.23811697959899902,0.990868866443634,0.008997082710266113,1.0624966502481035,1.6374978025988232,112.04564756009835,102.09807304970191,1.0,0.04892319162748382,-0.2143715463698552,-0.000375363994236473,-1.043243072312726,78.77144432880107,1.2329176171218617,37,1.2333333333333334
1.3063748361590515,1.0225596679359394,0.0851588100194931,0.9996495246887207,1.1568792050876229,1.15709243115389,0.25489214062690735,0.9999558329582214,1.215326255488383,1.1733377365041204,-0.1653079241514206,0.9999885559082031,1.0202943598099186,1.5788028221187627,0.1366669237613678,0.9999746680259705,1.0531284430407704,1.5676401399435234,-0.1368481069803238,0.9999820590019226,1.2450298719565218,1.7103206597921743,0.254861056804657,0.18889811635017395,1.3123462864142155,1.6966586460053759,-0.08406120538711548,0.9628276824951172,1.2179921065040742,2.0225596679359397,0.37305551767349243,0.4322814345359802,1.2563298030939558,2.0460629925119487,0.01699208840727806,0.9474449753761292,1.1465251713896416,1.6205074598312201,0.2708916962146759,0.30272430181503296,1.2973102424558938,1.5934063917962094,-0.2421559989452362,0.9892935752868652,0.006913930177688599,1.0367114014253445,1.5732214810311431,115.38758982016753,107.35240528336664,1.0,0.038672726972203725,-0.11982408296327088,-0.06449430666182125,0.6455381931959893,53.27712447795319,1.2195131441429914,38,1.2666666666666666
1.2752867504697694,0.9645085309674521,0.03158358111977577,0.999492883682251,1.1480637158991776,1.1075733635022516,0.2305123507976532,0.9999451041221619,1.1827148463496515,1.1189504478633447,-0.19928789138793945,0.9999868869781494,0.9885326229313538,1.5129217128357282,0.13876312971115112,0.9999752640724182,1.022158561987366,1.503352446983177,-0.13891413807868958,0.9999827146530151,1.2074981286108193,1.6563470388360924,0.22753243148326874,0.18894349038600922,1.2713091297848953,1.6450655306268054,-0.09866610169410706,0.9658731818199158,1.1773526923246525,1.9645085309674521,0.3290748596191406,0.4522281587123871,1.215896095514376,1.983813287957127,0.008070157840847969,0.9518877267837524,1.129069462864059,1.5679035367714511,0.2089581936597824,0.2767844498157501,1.2609795898516416,1.5468246262962304,-0.2706354856491089,0.9860847592353821,0.005005627870559692,1.00534559245936,1.5081370799094527,117.6382361820527,110.34029099645774,1.0,0.019099137796392156,-0.10378955450248373,-0.1390238336939746,0.09201463918340433,52.631829793560705,1.204873489038136,39,1.3
1.2648488606126993,0.9395380851437073,0.05042948201298714,0.9992347359657288,1.1527223569522242,1.077732433804122,0.2368425875902176,0.999938428401947,1.1798772297964142,1.0849112366607254,-0.19803306460380554,0.9999851584434509,0.9886022435558365,1.4618852618173686,0.1410612016916275,0.999975323677063,1.0143906149357023,1.4604532105988395,-0.14118105173110962,0.9999828338623047,1.2025646759806685,1.6322906525648768,0.195026233792305,0.18078376352787018,1.258183006343395,1.6259544887855686,-0.11353768408298492,0.967240035533905,1.1649961634311379,1.9395380851437072,0.28837132453918457,0.44073134660720825,1.2018893595139544,1.9608898964996833,-0.02885138988494873,0.9538281559944153,1.16736907792453,1.5370849575700927,0.18199025094509125,0.2556930184364319,1.2511937554317913,1.5310846442168244,-0.27056747674942017,0.9779666662216187,0.0031953155994415283,1.0014964292457693,1.4611692362081041,121.56354609472882,114.63036297340162,1.0,0.060160520877857344,-0.23005783021692167,0.32098879581211726,-0.9911135634600237,63.68814079567745,1.1198624013896472,40,1.3333333333333333
1.2489264406179752,0.8973217520300273,0.011688215658068657,0.9991787672042847,1.1495100322912026,1.0450222521250052,0.22651426494121552,0.9999350309371948,1.1574939529810135,1.04533882354376,-0.21240408718585968,0.9999839067459106,0.9810531874735549,1.4269814711955089,0.14575232565402985,0.999975860118866,0.9951855309813459,1.4257197754126427,-0.14581385254859924,0.9999833703041077,1.192369920653223,1.5955634889291472,0.21332383155822754,0.1699284464120865,1.23602622087361,1.5933456530410035,-0.16122224926948547,0.9693934321403503,1.1431772925183512,1.8973217520300274,0.3197651505470276,0.426638662815094,1.1743741337807998,1.9208946512872058,-0.07667027413845062,0.9567892551422119,1.1611600965529714,1.4979616616799674,0.16516999900341034,0.23595789074897766,1.2281097060285544,1.4987583358178858,-0.2804233133792877,0.9735156893730164,0.00014388561248779297,0.9881193592274503,1.426350623304076,119.32288279202903,114.1783985858904,1.0,0.061609337395028343,-0.03831883999862525,0.022572682596776177,1.5665995893694715,61.09922944536317,1.1519185375694372,41,1.3666666666666667
1.2213709175701857,0.8568132940723149,0.011415781453251839,0.9991471171379089,1.1276672929823386,1.0014521058161245,0.22434477508068085,0.999934732913971,1.1353827263735194,1.002322318540913,-0.21403011679649353,0.9999836087226868,0.9688717309519072,1.3676730132438664,0.1467144787311554,0.9999757409095764,0.9775829562860023,1.3700916946133819,-0.14676672220230103,0.9999834895133972,1.1751717327843385,1.5577117877495934,0.17521114647388458,0.16031986474990845,1.207798879500205,1.5565203228821096,-0.15554705262184143,0.9699718356132507,1.1173750509204508,1.856813294072315,0.2626056373119354,0.4044446647167206,1.1463592470321338,1.879378726290996,-0.07367702573537827,0.9575839042663574,1.1541424675726908,1.4598443150864593,0.16108721494674683,0.22174283862113953,1.1964436990563234,1.463877842687426,-0.287964403629303,0.9721260070800781,0.00040477514266967773,0.9732273436189547,1.3688823539286241,121.7138340657639,118.2260175696017,1.0,0.05844186747626592,-0.18882367809269066,-0.013359729800141456,-1.149652450504904,82.07553143736618,1.086308043053821,42,1.4
1.2147756107502952,0.8527300695245944,0.038239188492298126,0.9990500807762146,1.1180327793346105,0.9830379871861648,0.22979474067687988,0.9999340772628784,1.1369311201019743,0.9814852912897675,-0.21107475459575653,0.9999837875366211,0.977611611852126,1.343067365072761,0.14485779404640198,0.9999753832817078,0.9826850610465626,1.3514261555308458,-0.14493152499198914,0.9999836087226868,1.1755917893911823,1.5532734235294072,0.17983584105968475,0.15251411497592926,1.2054833603993202,1.5572050603863854,-0.1443386971950531,0.9702542424201965,1.1166757057211394,1.8527300695245943,0.26728716492652893,0.39201098680496216,1.1441385665940345,1.876111730133879,-0.05482932925224304,0.9583684802055359,1.1489150000070367,1.4461110507654538,0.19246870279312134,0.2075137197971344,1.191252830861699,1.4505382043665607,-0.30279767513275146,0.9718739986419678,0.0007233619689941406,0.9801483364493443,1.3472467603018032,125.58519313320272,121.83749912577564,1.0,0.06360761932712346,-0.14679774684452462,0.03959526540398939,0.31428970216858326,127.43681047525598,1.0163253436931323,43,1.4333333333333333
1.170540354255466,0.7901287749234268,0.02813580632209778,0.9988465309143066,1.0728547608905898,0.924648743737149,0.218235582113266,0.9999284148216248,1.0996045399178056,0.9285953170442295,-0.22034573554992676,0.999983549118042,0.9468159850297962,1.2763951172455597,0.14266371726989746,0.9999749064445496,0.9601602464866964,1.2861240947587615,-0.14272785186767578,0.9999838471412659,1.1322384873395592,1.498592035643154,0.1842299997806549,0.14982247352600098,1.163195301656101,1.506211505750603,-0.09837944060564041,0.971175491809845,1.0782264033361857,1.7901287749234267,0.27013760805130005,0.4002419710159302,1.105936520141467,1.8110760192072495,0.014187313616275787,0.9608389735221863,1.1074505094446183,1.375263101799633,0.18907740712165833,0.19500117003917694,1.148341805654853,1.3803707007563524,-0.30820566415786743,0.9735596179962158,0.0019047260284423828,0.9534881157582463,1.2812596060021606,129.65912847425386,126.67063344885791,1.0,0.05929262143075217,-0.154794454546682,-0.016968435215875544,-0.10543477453629266,106.38111906568585,0.9989505518738563,44,1.4666666666666666
1.1697188383634889,0.7959232510245504,0.04589036479592323,0.9987915754318237,1.0713275624660852,0.9216579812996553,0.22299142181873322,0.9999244809150696,1.105858631299451,0.9303147156867104,-0.1996142566204071,0.9999837875366211,0.9488475998325889,1.277825677729264,0.13676241040229797,0.9999746084213257,0.9696359998667251,1.2857902127455598,-0.13686832785606384,0.9999842643737793,1.0963494209046563,1.5337249169850007,0.1763748973608017,0.1459086835384369,1.1666273819628834,1.5136131717173418,-0.09328348189592361,0.9713140726089478,1.0834002081614498,1.7959232510245504,0.26384562253952026,0.399412602186203,1.1101553828735125,1.8161983694639068,0.011312604881823063,0.9621841311454773,1.1002111712815974,1.3710202252022996,0.21099813282489777,0.17964978516101837,1.1507297727230221,1.3759750523345333,-0.2670513093471527,0.9734582304954529,0.0041657984256744385,0.9592417998496571,1.281807945237412,147.21322501014598,128.5794651103825,1.0,0.02253744523792778,-0.024309836454648584,-0.2806683709505362,0.9951632945847732,91.98582060713278,0.9769696644420143,45,1.5
1.1501699406878192,0.7582767970028934,0.02657882496714592,0.9987956285476685,1.0552942002549004,0.8936723394744946,0.22741441428661346,0.9999221563339233,1.081862393147532,0.8957031702248865,-0.2040608674287796,0.9999838471412659,0.9301345391293727,1.246557005481565,0.13966180384159088,0.9999750256538391,0.9489413974376552,1.2493076327817438,-0.1397859752178192,0.999984860420227,1.0737481577212917,1.4994611976588226,0.18862256407737732,0.1444530338048935,1.144871399601104,1.4798376086639247,-0.08992083370685577,0.9728111028671265,1.0549019805037583,1.7582767970028934,0.2967495918273926,0.3986412584781647,1.0868664967936308,1.7765769926947406,0.022191524505615234,0.9643216729164124,1.0789426157785873,1.3411670252119026,0.20917987823486328,0.16739672422409058,1.124702556086546,1.3405873590736683,-0.28048714995384216,0.9741812348365784,0.0009990036487579346,0.9395379682835139,1.2479323191316543,146.24482875641442,128.57803548834028,1.0,0.008938173567274561,-0.0463203917207952,-0.10121900213064265,-0.17403133496017975,78.79252461526241,0.9947616575372594,46,1.5333333333333334
1.135371732349887,0.7292255754849903,-0.0022633252665400505,0.9988365769386292,1.0407116788910122,0.8587429741241689,0.22442004084587097,0.9999219179153442,1.0671872218921037,0.861032566020013,-0.2239379584789276,0.9999846816062927,0.9227458176457319,1.2168529455395334,0.14027036726474762,0.999975323677063,0.9407990357750826,1.2225310234681377,-0.14038988947868347,0.9999856352806091,1.0696998679008038,1.4669497995561152,0.18788276612758636,0.14838773012161255,1.132317947022377,1.4574808775326533,-0.09796992689371109,0.9751710295677185,1.0461924029394851,1.7292255754849903,0.2988298535346985,0.4120139181613922,1.0710324548515644,1.7520613678524515,0.016545075923204422,0.9675201177597046,1.0593464992637183,1.304348252258662,0.2011304348707199,0.15745283663272858,1.1092870719581414,1.3057314029231086,-0.30555346608161926,0.9763164520263672,0.001141667366027832,0.9317724267104073,1.2196919845038354,144.44032529943743,129.06250922308953,1.0,0.04085697501311912,-0.0956057812603655,0.2678720021317245,-0.41727886756819105,89.2268226606958,0.9904388577298945,47,1.5666666666666667
1.0780682820199012,0.6358486400053376,-0.09731695801019669,0.9989218711853027,1.0104671429213585,0.7792826664608532,0.15857554972171783,0.9999263882637024,1.0068001570741463,0.7714435470259808,-0.2871535122394562,0.9999856948852539,0.9096762027862285,1.1306783957742645,0.140671044588089,0.9999755620956421,0.9023031039106544,1.1309876814402873,-0.1407228708267212,0.9999862313270569,1.0239327736223995,1.3810686074200855,0.18710991740226746,0.14869093894958496,1.0704335059848473,1.377341799957763,-0.15503965318202972,0.9770696759223938,0.9897353911290425,1.6358486400053376,0.2974402606487274,0.4223197400569916,1.0109793018907984,1.6575239675187854,-0.07144202291965485,0.9703033566474915,1.0077625047954828,1.2029311460560566,0.12563884258270264,0.1589135378599167,1.039947438399427,1.2030737454070088,-0.3811838924884796,0.9785033464431763,0.0041318535804748535,0.9059896533484414,1.1308330386072758,147.82738922295226,133.707096743584,1.0,0.18577868280456344,-0.17457681079565807,1.1153107423186526,-0.6377646787897602,108.40652183296957,0.9992884442748742,48,1.6
1.0674816309733435,0.6177989677378218,-0.09087678045034409,0.9990071058273315,1.0062598490694306,0.7640963911684985,0.1586833894252777,0.9999310970306396,0.9966384911343501,0.7468143964404939,-0.2798365652561188,0.9999866485595703,0.9138041548676152,1.1028207487885884,0.14060243964195251,0.999975860118866,0.9028046849409117,1.101882512318423,-0.1406548023223877,0.9999867677688599,1.0258593148202073,1.3518358699095507,0.16097478568553925,0.14292871952056885,1.0623223406923192,1.3613850471733802,-0.17408454418182373,0.9776062369346619,0.9831463184153211,1.617798967737822,0.25387459993362427,0.41317692399024963,1.0030364152047742,1.6453578398873308,-0.11502218246459961,0.9720926284790039,1.0040741105780941,1.1690968615215507,0.12973502278327942,0.15901048481464386,1.0262972258599434,1.1760521371203752,-0.4095025658607483,0.980161190032959,0.00917622447013855,0.9083044199042635,1.1023516305535057,146.64891840396976,136.62828144022188,1.0,0.06502228986356687,-0.14674231599687154,-0.8673862792508775,0.19292317832850997,100.39170133212359,0.9515850123309552,49,1.6333333333333333
1.0566574773837565,0.5978415807485477,-0.08257625252008438,0.9991058111190796,0.9972147654493557,0.7441274892287131,0.16445671021938324,0.9999375343322754,0.9846177816375001,0.7314371549122175,-0.2705545425415039,0.9999879598617554,0.9144372056437715,1.0811903233978206,0.14039334654808044,0.9999769926071167,0.9006486137533409,1.0840466265766997,-0.14039897918701172,0.9999877214431763,1.0112575707676006,1.3361055469703345,0.17847713828086853,0.16583660244941711,1.045008334588657,1.3464442264907728,-0.17645420134067535,0.9797436594963074,0.973668989890307,1.5978415807485478,0.29501408338546753,0.44792038202285767,0.9869782158262556,1.6310025694170744,-0.12842635810375214,0.9747887253761292,1.148935340272869,1.0306955907278277,0.13481426239013672,0.2363930195569992,1.0130824620017604,1.1474093929166638,-0.4314298629760742,0.9821351170539856,0.006806373596191406,0.9075429096985562,1.08261847498726,151.030008758269,139.6560203595978,1.0,0.0641307757752701,-0.06684262172088845,-0.0018471146745919276,0.6032626365680004,115.50119325807557,0.9449094550183953,50,1.6666666666666667
1.0368246482874668,0.565520854592762,-0.07536022365093231,0.9991932511329651,0.9708724329563749,0.7069881966743172,0.16076338291168213,0.999942421913147,0.9651460087105527,0.699132075360559,-0.26738858222961426,0.9999890923500061,0.895504674610889,1.0469659070667132,0.13659922778606415,0.9999772906303406,0.8906316454178734,1.0517378727310747,-0.13657748699188232,0.9999885559082031,0.9914927743122144,1.3074665604072473,0.17665915191173553,0.17290356755256653,1.0187229867768763,1.320722517510497,-0.1601901650428772,0.9814286828041077,0.9624139664669794,1.565520854592762,0.2931669056415558,0.4604708254337311,0.9608358919186374,1.6014138422237423,-0.10100851953029633,0.9770455956459045,1.053655189129513,1.0482182658065704,0.1343105435371399,0.2572774291038513,0.9946935375300204,1.1134712720511293,-0.4267602562904358,0.9839125871658325,0.004292786121368408,0.8930681600143813,1.0493518898988938,153.3431506220089,142.883296432419,1.0,0.017262474384860185,-0.10102313925954863,-0.34726188476024367,-0.26918896069155124,146.89909747021224,0.9373013455982084,51,1.7
1.018930932462686,0.5422067825948256,-0.08333422243595123,0.999273419380188,0.9516113017986673,0.6805207374998216,0.16270415484905243,0.9999474883079529,0.9489087229708574,0.6780908531478259,-0.2679634094238281,0.9999901056289673,0.8884566351380115,1.0299316669827798,0.13515235483646393,0.9999778270721436,0.8769107263440896,1.0387021138356944,-0.13513389229774475,0.9999892115592957,0.979771662251281,1.283217122873093,0.16834720969200134,0.2148035764694214,0.997337029226343,1.2996543580076483,-0.1597091555595398,0.9831385016441345,0.9512328248367616,1.5422067825948256,0.2782362699508667,0.49863913655281067,0.9425619884831801,1.5760016839326654,-0.08153149485588074,0.9792290329933167,1.1082595458899023,0.9761694761013696,0.14193670451641083,0.32262784242630005,0.9790284477066883,1.0841313712211742,-0.43594056367874146,0.9855144619941711,0.0013493001461029053,0.8826836807410506,1.034316890409237,153.8864195429573,144.01591665907998,1.0,0.029266905248076524,0.013007648446323801,0.09267003840636494,0.8483404818055426,137.46622880829423,0.9658024350777739,52,1.7333333333333334
0.9990765496167059,0.523801225624311,-0.08502942323684692,0.9993457794189453,0.9363529622694954,0.6583827512066921,0.15502551198005676,0.9999522566795349,0.9346090729357469,0.657070917019315,-0.2664584815502167,0.9999910593032837,0.8787161070020937,1.0138782232295862,0.1315900981426239,0.9999785423278809,0.8691342968943006,1.0197598266740007,-0.13158510625362396,0.9999898672103882,0.965966896487326,1.2663899473969418,0.1578000783920288,0.25716444849967957,0.9805514308928535,1.2818935385840544,-0.152657613158226,0.9847010970115662,0.9374848175916848,1.523801225624311,0.2530738115310669,0.5376574397087097,0.9314487499329711,1.5552586727712674,-0.07724080234766006,0.9812207818031311,1.1010366941439695,0.9625444395609003,0.14334525167942047,0.38313454389572144,0.9659231722100775,1.0589570002435538,-0.46297487616539,0.9869603514671326,0.0007385611534118652,0.8739252019481971,1.0168190249517934,154.62436191096188,146.7895470689877,1.0,0.024797151773893675,-0.024956615811008147,-0.03038002538784914,-0.2821047541323279,130.75214478322985,0.9666432761082627,53,1.7666666666666666
0.9988022669536905,0.525479395114622,-0.07521908730268478,0.9994094967842102,0.9266231470200101,0.6541656788838192,0.16286814212799072,0.9999551177024841,0.9349514540481301,0.6491115144866696,-0.2599990665912628,0.9999918937683105,0.8792629582809253,1.0082184592197692,0.1307130604982376,0.9999791383743286,0.8796124162556113,1.0122652440051378,-0.13075117766857147,0.9999905228614807,0.9651276109510533,1.2677062061575364,0.14783254265785217,0.2556958794593811,0.9796698930355642,1.2826238986883303,-0.13519486784934998,0.9849205017089844,0.9384600163511164,1.525479395114622,0.23981961607933044,0.5306633114814758,0.933005972034464,1.5564942935281738,-0.07494387775659561,0.9819009900093079,0.9507428444798669,0.9977222204214384,0.14643575251102448,0.3656880259513855,0.9667456681087767,1.0447989446136121,-0.4368191659450531,0.9882394075393677,0.002843916416168213,0.8794376872682682,1.0102418516124536,155.78413953243378,150.02132061655902,1.0,0.04092869421777385,-0.0581005435728891,0.1311677829217246,-0.269614769093732,167.44550361629337,0.935393517024096,54,1.8
0.993136351850408,0.5218546575956772,-0.07687409222126007,0.9994679689407349,0.9253971802127625,0.6486314649392729,0.14747025072574615,0.9999589920043945,0.929795606524655,0.6450269917618238,-0.25945690274238586,0.9999926686286926,0.8866335424411589,1.0027471518980982,0.1272294819355011,0.9999797344207764,0.8813092430003325,1.0107150349334089,-0.12727120518684387,0.9999911189079285,0.962734876039108,1.2620489661206815,0.1685241013765335,0.2878390848636627,0.974482420311913,1.2810276726255645,-0.11716274172067642,0.9861772060394287,0.9406271161284201,1.521854657595677,0.2658690810203552,0.5643268823623657,0.9323963452131502,1.5576977538372903,-0.07428919523954391,0.9835754036903381,1.0770292167348183,0.964205143948834,0.1351531445980072,0.4103013575077057,0.96600272578234,1.0386743511033198,-0.4456711709499359,0.9894103407859802,0.0020308494567871094,0.8839713927207457,1.0067310934157536,158.78002061362417,152.33228263940583,1.0,0.038734108480571794,-0.014918723393843161,-0.014590117937941237,0.29374362981478336,152.49542663567962,0.9279040381697807,55,1.8333333333333333
0.9840033639620587,0.5118644463297796,-0.07190655916929245,0.9995203614234924,0.9026974184765543,0.6329131586635661,0.15401600301265717,0.9999614953994751,0.9229841992902612,0.6354300863436899,-0.2647961974143982,0.9999933838844299,0.8779708152851734,0.9920665089901424,0.13264107704162598,0.9999805688858032,0.8811853625185737,0.9979856064594294,-0.13274630904197693,0.9999918341636658,0.9556765624688773,1.2491698490237557,0.19535240530967712,0.29672810435295105,0.9681866248452311,1.272820066342705,-0.11462421715259552,0.9871754050254822,0.9366659303663848,1.5118644463297797,0.31014248728752136,0.5746946334838867,0.9266560305174131,1.552662524360056,-0.06774170696735382,0.9848554134368896,0.925616591047419,0.9736958957907537,0.16138522326946259,0.3868602514266968,0.9606290621662901,1.0299866567252989,-0.4030175805091858,0.9904596209526062,0.0014272630214691162,0.8795780889018736,0.9950260577247859,159.04416688474493,153.99287527616744,1.0,0.009932833957241283,-0.04060465490499172,-0.22119446448469987,-0.19972877536732955,147.55604824912206,0.9158133576407187,56,1.8666666666666667
0.981699260187767,0.5080908738105966,-0.09256822615861893,0.9995672702789307,0.9136454058250685,0.6288552880798615,0.15894697606563568,0.9999642968177795,0.915192601479205,0.6274382749675488,-0.27224108576774597,0.9999939799308777,0.8958638232940032,0.98395886839861,0.1353832185268402,0.9999810457229614,0.8789591247790488,0.9920783163071906,-0.13543936610221863,0.9999922513961792,0.9539078303409524,1.2470702112249752,0.20615310966968536,0.2993406057357788,0.9647549773719358,1.269562168271762,-0.13537710905075073,0.9878236055374146,0.933615921550312,1.5080908738105967,0.32739076018333435,0.5833417773246765,0.9258023475640031,1.5490187340175108,-0.08016657084226608,0.9857149124145508,1.0418788271596329,0.9633142136790971,0.1471768468618393,0.41014644503593445,0.9605560005658196,1.0213877909852442,-0.47199296951293945,0.9914041757583618,0.0008054673671722412,0.887411474036526,0.9880185923529002,163.11418483134412,154.88363335796723,1.0,0.07612475172442389,-0.03542984448812147,0.507168929751107,0.03889122133573655,118.52196282547722,0.9020854378226204,57,1.9
0.9754722534863525,0.5040050849945471,-0.133858323097229,0.9996074438095093,0.9130540497064474,0.6185034984105481,0.13590215146541595,0.999965488910675,0.9046877945270086,0.6154945290161979,-0.2963310480117798,0.9999944567680359,0.9042136052282838,0.9770193390914952,0.13536955416202545,0.9999805092811584,0.8789035558722379,0.9846353594314734,-0.13542325794696808,0.999992311000824,0.951300487876861,1.2403862864705095,0.20842409133911133,0.2963544726371765,0.9551790997964072,1.2628849887592524,-0.116812564432621,0.9867899417877197,0.9282964147190569,1.5040050849945472,0.32809674739837646,0.5794402360916138,0.9220936808044845,1.5401397278495483,-0.03722115606069565,0.9847504496574402,1.0562432621345454,0.9535696510505921,0.1088215708732605,0.41112253069877625,0.9602932944762995,1.013105906013637,-0.4864991307258606,0.9922485947608948,0.0017197728157043457,0.8915585805502608,0.9808273492614843,164.87614858754793,157.865246725742,1.0,0.07049033995592217,-0.01405283512168077,-0.04089370019575699,0.16599929708471065,108.15954989124657,0.8927858872834056,58,1.9333333333333333
0.9700986890405247,0.4991211637816119,-0.17408280074596405,0.9996432662010193,0.9107735955747437,0.6113140171325409,0.10577356815338135,0.999966025352478,0.8974878751973103,0.608019984934533,-0.3314189016819,0.9999949336051941,0.9079052046290447,0.9706235859893755,0.13615623116493225,0.9999802708625793,0.8823431491209586,0.9758911496900038,-0.13617518544197083,0.9999925494194031,0.9480875047777516,1.234497166538126,0.20945656299591064,0.28212910890579224,0.9500126809410313,1.2563277064719751,-0.1360657513141632,0.984443187713623,0.9247428350345912,1.499121163781612,0.3379109799861908,0.559106707572937,0.9192938998570791,1.5339444873432886,-0.057946182787418365,0.9809166193008423,1.031924859853917,0.959378762179144,0.09296450018882751,0.39397701621055603,0.9601679254723202,1.00340081906985,-0.5100909471511841,0.9929943680763245,0.0018900930881500244,0.8951241768750017,0.9732573678396896,166.30011290763954,160.1196312081053,1.0,0.053561722370757146,-0.02835370009188485,-0.12646741759294308,-0.10902275465080292,102.1013143938123,0.8824966519028897,59,1.9666666666666666
0.9457906978776077,0.4700433142013999,-0.1915079802274704,0.9996737241744995,0.8868277320230838,0.5893474134335491,0.08431341499090195,0.9999666213989258,0.8817976990278945,0.5949299805775101,-0.3519887924194336,0.9999952912330627,0.8915852278304104,0.9459446962061075,0.13767066597938538,0.9999798536300659,0.8757003053550798,0.9520593597644674,-0.13766947388648987,0.9999926686286926,0.9305254475084639,1.2070578036864665,0.22830085456371307,0.2640121877193451,0.9314572038185249,1.231297365407428,-0.13707700371742249,0.9803933501243591,0.9093712683571091,1.4700433142013998,0.36149880290031433,0.5286697745323181,0.9041584198279541,1.5088403675501711,-0.07184159010648727,0.9754270315170288,0.9422522107369535,0.9556141970926199,0.10105705261230469,0.3631526827812195,0.9476983560039753,0.9834800260233671,-0.48338374495506287,0.993557870388031,0.00325620174407959,0.8836427665927451,0.9490020279852874,166.9190115050212,163.09049107464247,1.0,0.02340813654441856,-0.06407181785269853,-0.22269025989304306,-0.275140701919814,110.28910619503365,0.8928486795465854,60,2.0
0.9504495045650583,0.47922489580852107,-0.19102047383785248,0.9996901750564575,0.8929080399420274,0.5943786099322355,0.07407385110855103,0.9999659061431885,0.8833905369524603,0.5981679947025113,-0.3489099144935608,0.9999954700469971,0.903745487850149,0.949407036366902,0.13722753524780273,0.9999780654907227,0.8891179859329084,0.9554054755989597,-0.13723529875278473,0.9999921321868896,0.9364009457271494,1.214029943702084,0.2234019935131073,0.24183106422424316,0.9341898835488377,1.240204904460235,-0.098310686647892,0.9594550132751465,0.9159919409228896,1.479224895808521,0.3565603494644165,0.487005352973938,0.9120920287836538,1.5168380750363977,-0.006319943815469742,0.9527965784072876,0.9553412286700067,0.9686924406332379,0.09673314541578293,0.3343183994293213,0.9569033350899995,0.9896253050120378,-0.4652027189731598,0.9939092397689819,0.0021937191486358643,0.8964317368915287,0.9524062559829309,168.56433006247786,166.43987468874502,1.0,0.0491825167382511,-0.030191227420339434,0.205688920973447,0.27613046115448286,110.54908658852871,0.8724034069739461,61,2.033333333333333
0.9530766987837829,0.48520144365033596,-0.18310680985450745,0.999714732170105,0.892680796469925,0.5958467449831855,0.08522907644510269,0.9999662637710571,0.8868622376580207,0.6030959431352094,-0.3491351902484894,0.9999957084655762,0.9114997764545036,0.9493249703559233,0.13910318911075592,0.9999765753746033,0.8999439386772586,0.9541625726522863,-0.13914401829242706,0.999991774559021,0.9428850976148667,1.2173218342393946,0.21947257220745087,0.22183507680892944,0.9398684126973842,1.2454779402712353,-0.10292395204305649,0.9420916438102722,0.9220885499348802,1.485201443650336,0.34438735246658325,0.4479700028896332,0.9184333413248148,1.525854326091323,-0.026551920920610428,0.9324674606323242,0.9493061018201139,0.9787667286546449,0.10340027511119843,0.31180551648139954,0.9663997511841431,0.9942881728233472,-0.4597080647945404,0.9943450093269348,0.004167765378952026,0.9057218575658811,0.9517437715041048,168.8812796177841,167.82446827912074,1.0,0.0232547557582832,-0.05485970199562932,-0.1984391128912492,-0.18477122098886464,109.66805432093004,0.8464967736094194,62,2.066666666666667
0.9502628255826542,0.4757551096136189,-0.231668621301651,0.9997368454933167,0.8903684062203776,0.5899611515648876,0.03894292563199997,0.9999671578407288,0.8817375785418955,0.5996483641220043,-0.39259272813796997,0.9999959468841553,0.9198170200070577,0.9488020062428565,0.14011558890342712,0.9999761581420898,0.9018100275779882,0.9546881546879687,-0.1401480734348297,0.9999917149543762,0.9434657440395761,1.2127196135941218,0.2564501166343689,0.20489253103733063,0.9376750483255277,1.237266357746919,-0.08489303290843964,0.9314103126525879,0.9169109802045086,1.475755109613619,0.4045243263244629,0.4195331335067749,0.9151666951785214,1.5190841413758251,0.0018251041183248162,0.9229457974433899,0.9556320417049924,0.9734296372878862,0.07107489556074142,0.29327020049095154,0.9644212341418303,0.9917103848439245,-0.49994754791259766,0.9947749972343445,0.0055893659591674805,0.910813523792523,0.9517450804654126,169.11483589266172,168.20022236978923,1.0,0.06351128702009166,0.02590254203621396,0.3079589318800506,0.6150623766214767,103.41007967444992,0.8752442495134487,63,2.1
0.9497512091602611,0.474191745082848,-0.2145695984363556,0.999760627746582,0.8907090179128683,0.5913384193524243,0.05179786682128906,0.9999691843986511,0.8797615916299766,0.5973657404085443,-0.3723883032798767,0.9999962449073792,0.9262417528179866,0.9486527627443951,0.13992580771446228,0.9999767541885376,0.9016674833397909,0.9532257539516138,-0.13995730876922607,0.9999920129776001,0.9522311992931234,1.209744200851345,0.24901631474494934,0.1939815729856491,0.9370735260124791,1.2343474609788183,-0.09782842546701431,0.9302143454551697,0.9162794927626804,1.474191745082848,0.3918333053588867,0.4038778841495514,0.9140095558751176,1.516820483038897,-0.018565895035862923,0.9215144515037537,0.9591582105877668,0.971586120205652,0.07555002719163895,0.2832159996032715,0.9636502136822349,0.9888891015328367,-0.5049115419387817,0.9951891899108887,0.0034821927547454834,0.9139546180788887,0.9509392583480045,166.57350406952466,168.15378903874114,1.0,0.03393360844999588,0.003382108735992814,-0.23142910884941564,-0.1764390072419346,94.86246890274033,0.8779213281431439,64,2.1333333333333333
0.9525660034745942,0.4762200794373339,-0.2188132107257843,0.9997814893722534,0.8938580487401517,0.5948139709445931,0.04965049773454666,0.9999704360961914,0.8819065374096359,0.5991751693701695,-0.37563949823379517,0.999996542930603,0.9317688379586225,0.9494651138795314,0.13984544575214386,0.999976396560669,0.9062703003328983,0.9518822409156188,-0.13987518846988678,0.9999920725822449,0.9588271862834353,1.2115520168201244,0.2409227192401886,0.1830368936061859,0.9396574108446377,1.2361845448963547,-0.10091843456029892,0.9261361956596375,0.9196586755000744,1.476220079437334,0.38014283776283264,0.38564687967300415,0.9171655863452813,1.517455298000737,-0.01906776614487171,0.9172223806381226,0.9628459342310869,0.969312545930433,0.0687665194272995,0.2705153524875641,0.9662602969290917,0.9876383553228488,-0.5028483867645264,0.9956029057502747,0.0025117993354797363,0.9190195691457604,0.950673677397575,165.6873963182423,168.73020346532203,1.0,0.016856803791882268,-0.024477675313712075,-0.1304213359102174,-0.21154683119935305,89.31363651249019,0.8708671030207566,65,2.1666666666666665
0.9480835706519672,0.47069048307873734,-0.22080199420452118,0.9998002648353577,0.8866130028177283,0.5927494746970805,0.052541304379701614,0.9999712705612183,0.8787988287963397,0.5972059048304782,-0.3819712996482849,0.9999967813491821,0.9236008009072304,0.9445327321410149,0.14062945544719696,0.9999759197235107,0.9035548271749014,0.9470716661906724,-0.14066550135612488,0.9999920725822449,0.953276048423411,1.2040480919499383,0.2504907250404358,0.17099592089653015,0.9355314410300771,1.2263388486489613,-0.09923344850540161,0.9213629364967346,0.9158410458668527,1.4706904830787373,0.3975551724433899,0.36504027247428894,0.9149633336655503,1.5110035076537514,-0.014849727973341942,0.9119201302528381,0.958735261654809,0.9636454409622595,0.07468642294406891,0.2573499083518982,0.9629611841158003,0.982102854553833,-0.5005849003791809,0.9959747791290283,0.0025772154331207275,0.913577814041066,0.9458021991658436,165.48488319367013,169.33531664646057,1.0,-0.013260107749493613,-0.007712090755534121,-0.23812454783242268,0.13206948483437786,91.21615734493524,0.8739812027872154,66,2.2
0.9407386173148851,0.46431650485377296,-0.21873216331005096,0.9998124241828918,0.8752376705204459,0.5852733437338005,0.05386768653988838,0.9999706149101257,0.8721270448872332,0.5924015922556521,-0.38064247369766235,0.9999969005584717,0.9155212188046092,0.938862522828391,0.1405508816242218,0.9999738335609436,0.8992703610934547,0.9420638942250195,-0.1405908465385437,0.9999915957450867,0.9457546993670611,1.194943691077277,0.26433923840522766,0.15900975465774536,0.9279605498395274,1.2173072529804663,-0.07910587638616562,0.9103807806968689,0.9111633760329492,1.464316504853773,0.4199736714363098,0.3446406126022339,0.9087557998768436,1.5002950004608904,0.022824328392744064,0.9025757908821106,0.9530727773861148,0.9544901300426689,0.08134696632623672,0.24231496453285217,0.9573554249648655,0.9767649923101406,-0.4934380054473877,0.9962933659553528,0.0041529834270477295,0.907395789949032,0.9404632085267052,165.9491583399871,170.16684119763477,1.0,0.004522257346348523,0.013352342053032368,0.144507616166613,0.1716608755652814,94.64485566459132,0.8808940250643563,67,2.2333333333333334
0.942991499467102,0.4674227913028751,-0.20954668521881104,0.9998286962509155,0.8774833887145369,0.5888562807533813,0.0566742829978466,0.9999715685844421,0.8736623727267769,0.5930391404246699,-0.3677835464477539,0.9999971389770508,0.9228409224650849,0.9418609109582609,0.1395185887813568,0.9999726414680481,0.9047932318879269,0.9441618656637768,-0.13958486914634705,0.9999914169311523,0.9490887628852028,1.1971703096057376,0.2496217042207718,0.14819158613681793,0.9299963954033396,1.2195891374926031,-0.0823797732591629,0.9021944403648376,0.9136587353237761,1.467422791302875,0.38621389865875244,0.32455289363861084,0.9107875654127673,1.5034620941189303,-0.009121568873524666,0.8936458230018616,0.9686332427468257,0.9498150132476104,0.08956410735845566,0.2343544363975525,0.9592850760266437,0.9784543333690102,-0.50352942943573,0.996620774269104,0.002431899309158325,0.913817077176506,0.9430113883110188,166.66129361396963,170.90053827143927,1.0,0.0333123463387255,0.004312429168323123,0.21172428956591002,-0.06670684871230838,89.94380333515063,0.8784139849379222,68,2.2666666666666666
0.9418752411433328,0.46885943606660513,-0.1779002845287323,0.9998405575752258,0.8731160101151181,0.5888695610146902,0.07879345118999481,0.9999712109565735,0.8722289507981589,0.5932498195776849,-0.34928184747695923,0.9999972581863403,0.9215161904964747,0.940722258584293,0.13949862122535706,0.9999704360961914,0.9078526303976172,0.9420022125796745,-0.13955716788768768,0.9999909400939941,0.943850056563727,1.196114243983397,0.24672570824623108,0.1375199854373932,0.9283881099031986,1.2184630599133153,-0.11784621328115463,0.8923106789588928,0.9121853258701434,1.4688594360666052,0.3522346317768097,0.3048079311847687,0.9085140082261107,1.5018172274844828,-0.07566922903060913,0.8820927739143372,0.962571482870734,0.9491619680408799,0.10597588866949081,0.22037288546562195,0.9588150738850884,0.9771569170352251,-0.4867836534976959,0.996893584728241,0.0025497376918792725,0.914684410447046,0.9413622355819838,168.38004779959525,171.73979492800152,1.0,0.01565436707634081,-0.004082083597545336,-0.1401326808936755,-0.06672877381144429,87.51930612521565,0.8700161695437024,69,2.3
0.9437388574134312,0.47111101052922955,-0.1748686581850052,0.999854564666748,0.8757633638809745,0.5909731045588174,0.0790252834558487,0.9999723434448242,0.8744622653985344,0.5954532063066277,-0.3456694483757019,0.9999974370002747,0.9251733921306275,0.9433763521014505,0.13836082816123962,0.999969482421875,0.9108931255414294,0.9438449815619555,-0.1384446769952774,0.9999907612800598,0.9422184288484027,1.1993972682063598,0.23771163821220398,0.13001587986946106,0.9274483900766531,1.2216295588801973,-0.11603852361440659,0.8872402906417847,0.9099759829967355,1.4711110105292295,0.3493956923484802,0.2909623980522156,0.9092939762588784,1.5053058738638545,-0.06120612472295761,0.878114640712738,0.9650234204398086,0.9559707431938781,0.08701265603303909,0.21843568980693817,0.9614158151974194,0.9803188455909547,-0.48369693756103516,0.9971647262573242,0.002601802349090576,0.9180332588360285,0.943610666831703,169.42379436731008,172.92758888443976,1.0,0.00959415773540532,0.000456614948769343,-0.04792146726932595,0.035750263547935125,83.89823466656807,0.8687891248998226,70,2.3333333333333335
0.9416303640306636,0.4710274902222639,-0.17520862817764282,0.9998661875724792,0.8673093697065508,0.5907835684929496,0.07591786235570908,0.9999723434448242,0.8735693351088218,0.5953276919765694,-0.3472382426261902,0.999997615814209,0.9218159907035455,0.9419711233159569,0.13804234564304352,0.9999673962593079,0.9139785271418,0.939974749572936,-0.13814762234687805,0.9999904036521912,0.9347623831888395,1.1982196455006524,0.2300313413143158,0.12150734663009644,0.9257327747027032,1.220467208249081,-0.10435956716537476,0.8744040727615356,0.906900390904413,1.471027490222264,0.33436524868011475,0.2738170027732849,0.9078352236127732,1.5040541794961837,-0.05311388894915581,0.8668723106384277,0.9625518974905036,0.9573274343568089,0.0874638482928276,0.20640116930007935,0.9604146683750421,0.9796136451950558,-0.46254491806030273,0.9973942637443542,0.0026420652866363525,0.9178972589226727,0.9409729364444465,171.27629050546625,173.98915782151542,1.0,0.006873080027617479,-0.011295767438909568,-0.019918157190781233,-0.08637830567968365,66.88711798259496,0.8607449810918557,71,2.3666666666666667
0.9377213984846773,0.4669915729019256,-0.17610742151737213,0.999877393245697,0.8657426264997641,0.5887053699120688,0.07318384200334549,0.9999732375144958,0.8709639692128642,0.5928052061912219,-0.35022446513175964,0.9999977350234985,0.9178147486187409,0.9380708833518447,0.13800761103630066,0.999967634677887,0.9123751182497822,0.9356968774706362,-0.13811489939689636,0.9999905228614807,0.9273777490856907,1.1936670442457746,0.226680725812912,0.11679424345493317,0.9204929074123923,1.2142204912585135,-0.11824391782283783,0.8762616515159607,0.8998437936393447,1.4669915729019256,0.322256475687027,0.2712404727935791,0.9040329154914859,1.4976349533057893,-0.08683018386363983,0.8694967031478882,0.9588151533902151,0.9539626943537366,0.08016936480998993,0.19994761049747467,0.9566739332224572,0.9760480347193766,-0.46473902463912964,0.9976004362106323,0.0023934543132781982,0.9150949334342616,0.9368838804112405,172.10489503632343,175.006682636226,1.0,0.006929965666711914,-0.0020482581449505497,0.0006378504672796357,0.06924217238722759,57.944810521626856,0.8622536461535162,72,2.4
0.9353674517462727,0.4659011983092337,-0.1559441238641739,0.9998860359191895,0.8646390553525496,0.5872931634882103,0.08707152307033539,0.9999736547470093,0.8730249643980738,0.5915398346718286,-0.33326905965805054,0.9999978542327881,0.9144511514178983,0.9359412780665097,0.13764448463916779,0.9999673962593079,0.9102526979383851,0.9336372151877723,-0.13775762915611267,0.9999905228614807,0.9201292315936043,1.1932911301980353,0.22514235973358154,0.11020319908857346,0.9175312800262768,1.211532289899501,-0.11809663474559784,0.8718360066413879,0.8968979723055226,1.4659011983092338,0.32591843605041504,0.2599552571773529,0.9019307397232263,1.493839971906441,-0.07177804410457611,0.8659037351608276,0.9553958742243989,0.9557902716224962,0.08115886151790619,0.1911129653453827,0.9540810125656762,0.9736507813177425,-0.44137078523635864,0.9977678060531616,0.0024856626987457275,0.9123519246781417,0.934789246627141,173.8651921000181,175.33666945693773,1.0,-0.002760394041351328,0.0027275086236059334,-0.07526573158543158,0.037121493306371454,53.11158398486382,0.8610071353537189,73,2.433333333333333
0.93323462995375,0.4644338709366121,-0.14939162135124207,0.999894380569458,0.8632635502132704,0.5860532124648655,0.09272129088640213,0.9999741315841675,0.8720536025379128,0.5896531092580384,-0.3269343972206116,0.9999979734420776,0.9115594693787579,0.9337549305131594,0.13708391785621643,0.9999670386314392,0.908847953792597,0.930948537784771,-0.13720981776714325,0.9999904632568359,0.9182637482972398,1.1918559045783808,0.22275619208812714,0.10422290116548538,0.9153090465456696,1.2087240243348696,-0.11361527442932129,0.8658806681632996,0.8949314883419965,1.464433870936612,0.3261491060256958,0.24811823666095734,0.8997926721121134,1.4907675601438801,-0.0657704770565033,0.8600448369979858,0.9527900888939905,0.956727896622516,0.08303235471248627,0.18526780605316162,0.9516547122144671,0.971186197915344,-0.4447605013847351,0.997929573059082,0.0021122992038726807,0.9102037115856774,0.9323517341489652,173.61954748346952,175.51863105977628,1.0,0.000751571681872336,-0.0009953964000579626,0.026169177601517376,-0.027744634026805964,36.107118707412255,0.8589708296773316,74,2.466666666666667
0.9328952043350002,0.4634039455972908,-0.16336224973201752,0.9999013543128967,0.8631468138195387,0.5858054731610459,0.08312557637691498,0.999974250793457,0.8732547421677843,0.5893109619550542,-0.34150803089141846,0.9999980926513672,0.9105461588593217,0.933207457532144,0.13745686411857605,0.9999668598175049,0.9089696659621682,0.9302318144996742,-0.1375836431980133,0.9999905228614807,0.9170832749635062,1.1916559570722913,0.23461513221263885,0.09743335098028183,0.9148166984401552,1.208221415534292,-0.10102691501379013,0.8580857515335083,0.89389299338746,1.463403945597291,0.3529585301876068,0.23447638750076294,0.8991984553821041,1.4897840620933145,-0.041816845536231995,0.8516707420349121,0.9501948029536148,0.9580997017555614,0.08356782048940659,0.1739061027765274,0.9509532046557805,0.9705930780490875,-0.44281020760536194,0.9980571269989014,0.0020582973957061768,0.9097579124107449,0.9317196360159091,173.6734288874778,175.62012391301087,1.0,0.0013540799514339971,-6.449919387598676e-06,0.004789314996145557,0.007849110646181042,20.145168986967676,0.860285732560307,75,2.5
0.9324972720757186,0.4623954794499076,-0.1784992665052414,0.9999072551727295,0.8607636300975763,0.5838038477491828,0.07315249741077423,0.999974250793457,0.8739947286423604,0.5890839810087468,-0.3560681641101837,0.999998152256012,0.9083070982032958,0.9324240235486912,0.1379229873418808,0.9999667406082153,0.9093483026809722,0.9293185700690387,-0.13805516064167023,0.9999906420707703,0.9155421656616891,1.1908646100908369,0.24215731024742126,0.091220423579216,0.9139271472382134,1.2075367661698533,-0.0988616794347763,0.852595329284668,0.8931539867159434,1.4623954794499077,0.36309292912483215,0.22385936975479126,0.8985353185983742,1.4887835149421669,-0.03882638365030289,0.8469262719154358,0.9452747775951017,0.9589734695762699,0.08431847393512726,0.1626976877450943,0.9505705852278316,0.9703962831546599,-0.4421485364437103,0.9981798529624939,0.0031021535396575928,0.908827700442134,0.930871296808865,173.68294638429683,175.92461673042195,1.0,-0.003163242097875385,-0.002389279320823664,-0.03681171080806773,-0.01942120524524707,26.301274012028184,0.8608831877391022,76,2.533333333333333
0.9316446348472219,0.46090493978717123,-0.18485115468502045,0.9999122023582458,0.8585663411422437,0.5818321512666911,0.06969176977872849,0.9999738931655884,0.8739868579379417,0.5886119223995615,-0.36167803406715393,0.9999982118606567,0.9060559056573788,0.9311551927686225,0.13844971358776093,0.9999663829803467,0.9090518506566166,0.9280841439010389,-0.13858477771282196,0.9999906420707703,0.9139040065126507,1.1896223684253202,0.2479943037033081,0.08570234477519989,0.9127982262108244,1.2065604698643955,-0.09494219720363617,0.8482362031936646,0.8920366182542334,1.4609049397871712,0.37248027324676514,0.21513082087039948,0.8973951424318004,1.4871602791553014,-0.03022361733019352,0.8433728814125061,0.9415787177732443,0.9586335798821366,0.08478926867246628,0.15236623585224152,0.94975074840346,0.9695629664345508,-0.44249892234802246,0.9982999563217163,0.003987044095993042,0.9075538781569977,0.9296196683348307,173.65230364636855,176.0872314562572,1.0,-0.0029589910470768114,-0.002638371257672033,0.0014871469892155102,-0.0018580074746173702,52.03251891128626,0.8618485758775641,77,2.566666666666667
0.9311583084036106,0.459911916808462,-0.19061727821826935,0.999915361404419,0.8585596465934809,0.5811092931033915,0.06480322033166885,0.9999733567237854,0.8738716667759835,0.5879186591662663,-0.3641809821128845,0.9999982118606567,0.9057210010112017,0.9305967153797629,0.13850605487823486,0.9999657869338989,0.9094825802585972,0.9275297326988399,-0.13864107429981232,0.9999905228614807,0.9138116277815328,1.1887049299186303,0.25062426924705505,0.08110348135232925,0.912141334244335,1.2059211394341576,-0.08098898828029633,0.8426148295402527,0.8915645820581463,1.459911916808462,0.3771652579307556,0.20893843472003937,0.8966391787613703,1.485808405509872,-0.009857588447630405,0.840385377407074,0.9414664374980849,0.9585204698074108,0.08266770839691162,0.14447273313999176,0.9493748301685058,0.9693108760278841,-0.4458153247833252,0.9983929395675659,0.004006713628768921,0.9076017906348994,0.9290632240393014,173.51514183996838,176.28260777675027,1.0,0.004332230682635926,-0.00023818077870590225,0.05628874622447058,0.018522373729683978,58.49342649943568,0.8635506197684301,78,2.6
0.9286983921729173,0.4568316138494162,-0.18784469366073608,0.9999175667762756,0.8557374462749187,0.5796115132541618,0.06503677368164062,0.9999722242355347,0.8720367095005153,0.5866412243251734,-0.3616960644721985,0.9999982118606567,0.9033983253799485,0.9283909332777306,0.13737688958644867,0.9999646544456482,0.9080625637412472,0.9252428654906246,-0.13752475380897522,0.9999902844429016,0.9105848991088594,1.1863305513626408,0.24854493141174316,0.07752741128206253,0.9098702239451959,1.2035861512306618,-0.07056648284196854,0.836531937122345,0.8900791494405375,1.4568316138494162,0.370788037776947,0.20549383759498596,0.8949159165112653,1.4819525822984432,-0.004292539320886135,0.8389982581138611,0.9396107572408364,0.9566299513377065,0.08301375061273575,0.13572467863559723,0.9482691312431553,0.9684359888419306,-0.4356827735900879,0.9984802603721619,0.004145622253417969,0.9057304445605978,0.9268168993841777,174.06896551699685,176.55283751564477,1.0,0.0011726078416325334,-0.001304258330379789,-0.023854483371132183,-0.008077398972108454,63.76442455344533,0.8669854684069518,79,2.6333333333333333
0.9284221219817292,0.4570308429046157,-0.1795855313539505,0.9999191761016846,0.8536543724650316,0.5797705419304298,0.0661277174949646,0.9999708533287048,0.8728338324299053,0.5867270636695602,-0.3600732684135437,0.9999982118606567,0.9005153709108829,0.9278371555286001,0.13730156421661377,0.9999629259109497,0.9090164385984862,0.9249681209961715,-0.13745175302028656,0.9999899864196777,0.9098171158535815,1.1861214257735997,0.24712693691253662,0.07363615185022354,0.9102406529952112,1.2037708957204047,-0.07671364396810532,0.8300860524177551,0.8902276638489822,1.4570308429046157,0.36674630641937256,0.1995919793844223,0.8952570410522724,1.4818149425723057,-0.010672415606677532,0.8339403867721558,0.9387812946186018,0.9567321936241993,0.08306227624416351,0.1267208606004715,0.948502937720329,0.9687904678872421,-0.42002639174461365,0.9985660910606384,0.004101991653442383,0.9047659047546845,0.9264026382623858,173.8016066885779,176.66376920099484,1.0,-0.008133091058095359,-0.00396109091282971,-0.07086353281881304,-0.020230535325351306,79.01867448324107,0.865254872766013,80,2.6666666666666665
0.928084758620585,0.4567228358132767,-0.18833276629447937,0.9999203085899353,0.8540188122249643,0.5791943523903433,0.062443219125270844,0.9999698996543884,0.8728346761130432,0.5863683389374443,-0.3595421016216278,0.9999982118606567,0.9016422159630487,0.9277893993097164,0.13685272634029388,0.999961793422699,0.9093236807511548,0.9247124871184627,-0.1370069533586502,0.9999897480010986,0.9100642017338461,1.1857551297453208,0.24778695404529572,0.07093417644500732,0.9107516550785477,1.2037967115248254,-0.07066215574741364,0.827077329158783,0.8905664439679026,1.4567228358132767,0.3691021502017975,0.19945821166038513,0.8954504861248342,1.4816311677862253,0.002855377970263362,0.8347993493080139,0.9445524047979209,0.9549265720782348,0.08154619485139847,0.12259849905967712,0.9487770941879817,0.9691466774351855,-0.42936015129089355,0.9986501932144165,0.004230290651321411,0.9054829483571017,0.9262509432140895,174.01440635589802,176.55457610807997,1.0,0.00579398894031346,-0.0010825958474509848,0.11028453011213629,0.022793680285187762,75.95009679367823,0.8655806491866711,81,2.7
0.9265799303867459,0.45523791474684777,-0.18552853167057037,0.9999221563339233,0.8528814905065244,0.5780280133228202,0.06782294809818268,0.9999687671661377,0.871353933540398,0.5853720032371076,-0.35314881801605225,0.9999982118606567,0.9003432930551689,0.9264022214724339,0.13673581182956696,0.9999600648880005,0.908100827052847,0.9232348451558452,-0.1368882954120636,0.99998939037323,0.9075081612642298,1.1847233707455505,0.2513353228569031,0.06789303570985794,0.9092595174299799,1.2032632240887713,-0.06775776296854019,0.8216844201087952,0.8891070641715366,1.4552379147468477,0.3786722719669342,0.19592070579528809,0.894049107703964,1.4792804877882642,0.01491787564009428,0.8322604894638062,0.9462002660386205,0.9526191806448452,0.08649744093418121,0.11668159067630768,0.9476001400075796,0.9675843702335651,-0.4265156686306,0.9987286329269409,0.004337728023529053,0.904222060054008,0.9248185333141395,174.5198232776047,176.6087321512282,1.0,0.0017868580526566621,0.0007673508436965295,-0.02972843300970542,0.013744168268039333,75.54806176854258,0.8664236917910553,82,2.7333333333333334
0.9278650431558376,0.45597048805652074,-0.1943611204624176,0.9999241828918457,0.8540164492204051,0.5787004336678717,0.060191504657268524,0.9999687075614929,0.8718401725062684,0.5854369411224656,-0.36454740166664124,0.9999982118606567,0.9017456529756706,0.9266004560951401,0.13674119114875793,0.9999598264694214,0.9091560382745255,0.923501011649462,-0.13689306378364563,0.9999893307685852,0.9079449455982297,1.185246208408873,0.2499813288450241,0.06672695279121399,0.9098485382205265,1.2036563512671408,-0.07142317295074463,0.8217336535453796,0.8896634920609287,1.4559704880565207,0.3784419894218445,0.19702033698558807,0.8945171485837816,1.4794040564085162,0.00645398860797286,0.8332411646842957,0.9475152464042185,0.9529632961907355,0.07592637836933136,0.11142988502979279,0.9496231270152495,0.9682292813725892,-0.43999963998794556,0.998785674571991,0.003978163003921509,0.905450845625098,0.9250507338723011,174.76378073848926,176.6760432330261,1.0,0.008092321518588557,0.0004330894883193819,0.048268448855419484,-0.0025600306448230596,75.1143187505079,0.8651678880906349,83,2.7666666666666666
0.9279711658747057,0.45609859566887495,-0.1937922090291977,0.999925434589386,0.854287579617754,0.5786154643236501,0.0616680383682251,0.9999675154685974,0.8729195283716679,0.5856108488345947,-0.36267873644828796,0.9999982118606567,0.9018225995684067,0.9267962590538815,0.13670329749584198,0.9999593496322632,0.9101273000789648,0.9240731482712925,-0.13685376942157745,0.9999893307685852,0.9084475638904164,1.185412238200522,0.26025086641311646,0.06468092650175095,0.9099651813098056,1.2038340180394986,-0.06351566314697266,0.8205768465995789,0.8898062271878526,1.456098595668875,0.39426249265670776,0.1935337632894516,0.8949407284795788,1.4795068904262356,0.012061229906976223,0.8328744769096375,0.9473393115050068,0.9529688504330696,0.07695414125919342,0.10508507490158081,0.950350521270896,0.9682690868730989,-0.4321022927761078,0.9988296627998352,0.004130512475967407,0.9059749498236858,0.9254347036625871,174.59301128604784,176.91361024009962,1.0,0.0031862174478294253,0.002073757538320412,-0.03827213017735688,0.01279559652538459,79.61986978194183,0.8660210295429315,84,2.8
0.9270898096232322,0.4536219787012572,-0.19156613945960999,0.9999273419380188,0.8524910171217328,0.5757318464935578,0.06219213083386421,0.9999668002128601,0.8723359617900261,0.5861206999346814,-0.3641960024833679,0.9999982714653015,0.9004012138009481,0.9257039770711922,0.13700087368488312,0.9999592900276184,0.9089694162395918,0.9232346277635917,-0.13715286552906036,0.9999894499778748,0.9076808934752779,1.1841582690756804,0.2740596532821655,0.06209256127476692,0.9089309965202927,1.2032400629942221,-0.056065648794174194,0.8204100131988525,0.8895130048480946,1.4536219787012572,0.4238540530204773,0.188659206032753,0.8946264577245694,1.4778087550069794,0.030990278348326683,0.8326415419578552,0.9442256094655701,0.950933631951694,0.08273624628782272,0.09957130998373032,0.9501297421820031,0.9675793534848627,-0.4297286570072174,0.9988816380500793,0.006140708923339844,0.9046853150202699,0.9244693024173919,174.52944009486836,177.0255500102957,1.0,-0.0026728235355563197,8.968664221485837e-05,-0.04691943866743078,-0.015880108903900833,81.71823493821401,0.8706771784790133,85,2.8333333333333335
0.9276140787059489,0.4539701957031682,-0.19028791785240173,0.9999274611473083,0.8528452888009211,0.5738903930888184,0.06274552643299103,0.9999657869338989,0.8738443783436175,0.5862375905607871,-0.3636627197265625,0.9999982714653015,0.9004524135846264,0.9261885851850682,0.1372741460800171,0.9999588131904602,0.9102798232279063,0.9241408508273194,-0.1374327391386032,0.9999894499778748,0.907983878644976,1.1848593578811564,0.27205321192741394,0.059103913605213165,0.9095654620920177,1.2043205530123817,-0.060065023601055145,0.817355751991272,0.8902673188810744,1.4539701957031683,0.4159924387931824,0.18290072679519653,0.8952049870882756,1.4787001069069692,0.02262047678232193,0.8297560214996338,0.9435365628544217,0.9506927865214987,0.0870552510023117,0.09536033123731613,0.9512434903463123,0.968172638485288,-0.430544376373291,0.9989331960678101,0.007293969392776489,0.9053661184062664,0.9251647180061938,174.56568832764037,177.15007162051742,1.0,0.0011765389838024783,0.0012000857273724737,0.030464244293234813,0.008783806114976395,85.92564802040418,0.8714252347230126,86,2.8666666666666667
