nose_x,nose_y,nose_z,nose_visibility,left_shoulder_x,left_shoulder_y,left_shoulder_z,left_shoulder_visibility,right_shoulder_x,right_shoulder_y,right_shoulder_z,right_shoulder_visibility,left_hip_x,left_hip_y,left_hip_z,left_hip_visibility,right_hip_x,right_hip_y,right_hip_z,right_hip_visibility,left_knee_x,left_knee_y,left_knee_z,left_knee_visibility,right_knee_x,right_knee_y,right_knee_z,right_knee_visibility,left_ankle_x,left_ankle_y,left_ankle_z,left_ankle_visibility,right_ankle_x,right_ankle_y,right_ankle_z,right_ankle_visibility,left_wrist_x,left_wrist_y,left_wrist_z,left_wrist_visibility,right_wrist_x,right_wrist_y,right_wrist_z,right_wrist_visibility,trunk_lateral_inclination,center_mass_x,center_mass_y,left_knee_angle,right_knee_angle,person_height,center_mass_velocity_x,center_mass_velocity_y,center_mass_acceleration_x,center_mass_acceleration_y,body_orientation,torso_leg_ratio,frame,timestamp
1.249521439203751,0.8681419832910504,-0.43206357955932617,0.9998332858085632,1.336515678618144,1.0110860043445262,-0.20829537510871887,0.9999900460243225,1.1683594328054812,1.0065209558255408,-0.21268117427825928,0.9999936819076538,1.3009160675527187,1.33769224365089,0.004623825661838055,0.9999645948410034,1.2124749671169641,1.336132368699799,-0.004727429710328579,0.9999788999557495,1.3073103198085891,1.6117326463911692,-0.00869822409003973,0.966245174407959,1.2220684287068475,1.6215135965280691,0.0010981957893818617,0.9121932983398438,1.312539315864708,1.8681419832910504,0.1503010392189026,0.9505501389503479,1.2390262469829783,1.8728134241204462,0.1433275192975998,0.8772730827331543,1.3901772815812368,1.352610826377347,-0.2975490689277649,0.6515119075775146,1.1360982338802073,1.3613198181867014,-0.29649439454078674,0.9494913816452026,0.001828610897064209,1.2566955173348413,1.3369123061753445,179.8316259296143,178.06485647823584,1.0,0.18178381083099873,0.017892228127460063,0.9061688469647797,0.10758205699863754,95.21015392119936,0.8780991690898661,0,0.0
1.2459383617319295,0.8557353525598882,-0.4324096143245697,0.999849796295166,1.3316704842070215,1.0003124747937369,-0.21491944789886475,0.9999909400939941,1.1487253319308062,0.9953673880768252,-0.2182336300611496,0.9999940991401672,1.2995800153143586,1.3236460254303803,0.0010747017804533243,0.9999675750732422,1.192533237277904,1.3280205252184174,-0.0011876337230205536,0.9999805688858032,1.3007721633723117,1.5977584611095212,-0.022074252367019653,0.9693362712860107,1.2078728620945314,1.6148278939368326,0.006684588734060526,0.9203780293464661,1.3058420337527288,1.8557353525598883,0.15085028111934662,0.9550919532775879,1.2208708411737472,1.8644472264178948,0.15748026967048645,0.8892375826835632,1.3836987896205626,1.3450386891969686,-0.3007572293281555,0.6858325600624084,1.1123030136286007,1.3553681836279265,-0.30525118112564087,0.9543238282203674,0.0020006895065307617,1.2460566262961315,1.3258332753243989,179.12332885574557,179.91927370535927,1.0,0.01393466335610147,0.016645678615742746,-1.2657508499692647,-0.008149278590766614,98.00808362202196,0.8794430602573384,1,0.03333333333333333
1.2488921723223727,0.8539763107141884,-0.4250095784664154,0.9998642802238464,1.3297805536526195,0.997019082259084,-0.2093518078327179,0.9999916553497314,1.1465642294286065,0.9897011871132757,-0.21959424018859863,0.9999942779541016,1.298820686513943,1.3215139538973562,0.0022502064239233732,0.9999701380729675,1.1879660282367104,1.3273467249345297,-0.002370414324104786,0.9999818801879883,1.3015464922653313,1.5967633816061828,-0.006270124111324549,0.9718238115310669,1.203601957600049,1.6168054563208099,0.0027921469882130623,0.9273756742477417,1.3039722268620342,1.8539763107141884,0.16370713710784912,0.9589846134185791,1.2194704825788754,1.864489102737211,0.14594881236553192,0.8998766541481018,1.3878230566198508,1.3436282708528482,-0.31302493810653687,0.7167525887489319,1.11115612750743,1.351447044946656,-0.318645179271698,0.9583650231361389,0.0029638707637786865,1.2433933573753266,1.324430339415943,179.97294766976387,179.42618853929247,1.0,-0.01054057756837166,0.00018228991957757804,-0.19484363511883496,-0.13100021045824553,98.4619789445981,0.8792181542265453,2,0.06666666666666667
1.2473605421862537,0.849454446025258,-0.44974246621131897,0.9998776316642761,1.323796167857061,0.9914004850133482,-0.22926457226276398,0.9999923706054688,1.1410148813143763,0.9839761941148872,-0.23275265097618103,0.9999945163726807,1.2921212827744104,1.3138715326074706,0.0005534524098038673,0.9999726414680481,1.1812171525453168,1.3207664637368788,-0.0006767325685359538,0.9999831914901733,1.2944850583097585,1.5916012448339092,-0.016609663143754005,0.9741876125335693,1.197169049273809,1.613185708179608,0.0066102235578000546,0.9336333870887756,1.2996052538792318,1.849454446025258,0.1571328192949295,0.9625667929649353,1.212671111023564,1.856879835332425,0.16165028512477875,0.9094499349594116,1.3851067056460185,1.3360254110263685,-0.33220571279525757,0.7446781396865845,1.1020388735628328,1.3466016223203678,-0.33128881454467773,0.9618873596191406,0.0030215680599212646,1.2366692176598637,1.3173189981721747,179.3500625034625,179.48263386841262,1.0,-0.005238073111420616,-0.0052050346522285375,0.03852652808044414,-0.03951609912140172,99.16742269390498,0.8727770530540443,3,0.1
1.2427905601958846,0.8478264005959033,-0.4571402668952942,0.999889612197876,1.3257187359273233,0.9915262758683673,-0.23530641198158264,0.9999929666519165,1.1415159166939286,0.9841974437409677,-0.2386523187160492,0.9999947547912598,1.293175036066698,1.313800668684893,0.00014515360817313194,0.99997478723526,1.1824368894119863,1.3212339347659827,-0.00026818609330803156,0.9999843239784241,1.2934445430439627,1.5917326684127497,-0.015623973682522774,0.9761638641357422,1.1942192511030927,1.6125737601415733,0.009759439155459404,0.9390912652015686,1.2984737775936146,1.8478264005959033,0.16510574519634247,0.965621292591095,1.2112016327435744,1.856431875556911,0.17139932513237,0.9179584980010986,1.3825426709005626,1.335830520537347,-0.3621845841407776,0.7697998285293579,1.1003903237328063,1.3482287203186216,-0.3414989113807678,0.9653653502464294,0.0029823780059814453,1.237805962739342,1.3175173017254378,178.93051430676869,178.33222269608706,1.0,0.007086066869202497,0.00034290362198457385,0.08770041345952392,0.0394822626658498,99.60645953813227,0.8781642578441833,4,0.13333333333333333
1.241582428517077,0.8459688606631742,-0.46388712525367737,0.9999005198478699,1.3251823290116773,0.9903406596622669,-0.24417904019355774,0.9999935626983643,1.1423783985483917,0.9833068717258333,-0.23888126015663147,0.9999950528144836,1.2939478767303696,1.3118954315315052,-0.002224162220954895,0.9999768137931824,1.182694108695016,1.3197349937077467,0.0020986651070415974,0.99998539686203,1.2924858790131406,1.5908084813720038,-0.024370791390538216,0.9781216979026794,1.1930363780034534,1.6089601685738535,0.01098091434687376,0.9442617297172546,1.2959738359331558,1.8459688606631741,0.15242823958396912,0.9685314893722534,1.2092729520910768,1.8543456056659544,0.16661053895950317,0.9257341623306274,1.381764318534344,1.3339537299891715,-0.35401564836502075,0.7925030589103699,1.0994486230208669,1.3481452486171677,-0.322505921125412,0.9685231447219849,0.002865046262741089,1.2383209927126928,1.315815212619626,178.91650618557247,178.26233269234712,1.0,0.012893685320720539,-0.003386355254124908,0.04421042666851169,-0.028353450281043385,99.57877906074312,0.8790012283567703,5,0.16666666666666666
1.2411714980816473,0.8461882910833841,-0.47668367624282837,0.999910295009613,1.3276036403366598,0.9874079951650452,-0.25601038336753845,0.9999940991401672,1.1425393268532322,0.98437604136898,-0.2470448762178421,0.9999952912330627,1.295992749911344,1.3111655554580661,-0.004213633015751839,0.9999786019325256,1.1841078835925438,1.3194136005956392,0.004081684164702892,0.9999863505363464,1.2944947166018916,1.5915261439550394,-0.032793112099170685,0.9797635674476624,1.1943301629087422,1.6074653238319712,0.008389407768845558,0.9486570954322815,1.2991401285874178,1.846188291083384,0.14160923659801483,0.9710868000984192,1.210508029133357,1.8589840471976435,0.1631266176700592,0.9327595233917236,1.3828485073351193,1.3352326682877906,-0.3553013801574707,0.8128698468208313,1.1015281931860943,1.3492364307287397,-0.337274432182312,0.9713136553764343,0.0012337565422058105,1.2400503167519439,1.3152895780268528,178.6488145797703,178.35220343727283,1.0,0.0036250917491893707,-0.01373876790304855,-0.06908858772226183,-0.07703459883067847,99.79270642266636,0.87274562526626,6,0.2
1.2405067629293127,0.8456330490685388,-0.47776198387145996,0.999919056892395,1.32782388593184,0.9858059952276321,-0.25094908475875854,0.9999945163726807,1.142201110965059,0.9843033254623803,-0.2540733814239502,0.9999954700469971,1.2962209539682894,1.3098015150455542,-0.002910866867750883,0.999980092048645,1.1839770147180353,1.3177293429591097,0.002778951544314623,0.9999871253967285,1.2963659484193224,1.5904650770246407,-0.01936592534184456,0.9809539318084717,1.1942400588179511,1.6063642311870616,0.007744600530713797,0.9521450400352478,1.297898349369988,1.8456330490685389,0.14847782254219055,0.973183274269104,1.210045332734804,1.8567166299481646,0.15439122915267944,0.9388710856437683,1.3830165363242222,1.3349125035379013,-0.3336791694164276,0.8309564590454102,1.1010288381514086,1.3502368059626404,-0.34078118205070496,0.9738464951515198,0.0006115436553955078,1.2400989843431622,1.313765429002332,179.68551638980335,178.42400971825458,1.0,0.0016012220100114862,-0.010232185663006226,-0.015319640621360193,0.02653558862412596,99.61119019660852,0.8707970319674958,7,0.23333333333333334
1.2410603533735112,0.8447948580726691,-0.48176854848861694,0.9999269247055054,1.3284980714184722,0.985044203356601,-0.25378870964050293,0.9999948740005493,1.143621791100489,0.9842247236983603,-0.2575955390930176,0.9999956488609314,1.2960196733694078,1.3085296248998806,-0.0023529415484517813,0.9999814629554749,1.1840120631623172,1.3150777008323737,0.002219822956249118,0.9999878406524658,1.297219897686588,1.5895518393737864,-0.017125822603702545,0.9819325804710388,1.1958690376027086,1.6047612705361405,0.0023445994593203068,0.9552448987960815,1.2973506688329086,1.844794858072669,0.14322476089000702,0.9751582145690918,1.2097272645465877,1.855574471568515,0.13870331645011902,0.9444400072097778,1.3832481282922058,1.3328050257123458,-0.3499244451522827,0.8473203778266907,1.1015091619978463,1.3509882191012712,-0.3385390341281891,0.9761616587638855,0.00033354759216308594,1.2400158682658626,1.3118036628661272,179.7846505126736,179.181294323048,1.0,0.0005700147600837474,-0.013455644808878129,-0.007736187042416328,-0.024197277231138032,99.0791245516641,0.8671565089860636,8,0.26666666666666666
1.241969505274856,0.8456392551835882,-0.48695141077041626,0.9999338388442993,1.3303906837652737,0.9854325219385471,-0.2597668170928955,0.9999951720237732,1.1449734299228456,0.9848557923193124,-0.26011785864830017,0.999995768070221,1.2969072507851458,1.3092534553042239,-0.0022764638997614384,0.9999826550483704,1.1842163931731096,1.3153300696434715,0.0021467809565365314,0.9999884963035583,1.2972693185923432,1.5902919232137849,-0.013104098848998547,0.9824838638305664,1.1964845721530002,1.6074628168010892,0.004501860123127699,0.9576640725135803,1.2979618044105603,1.8456392551835883,0.16075021028518677,0.9766705632209778,1.2096676646853552,1.8559041925503266,0.1518469899892807,0.9492641687393188,1.3854087259806802,1.3324956882647465,-0.3572232127189636,0.8615254163742065,1.1020243634562954,1.351905218824273,-0.3470779061317444,0.9781597256660461,0.0002346038818359375,1.2405618219791277,1.3122917624738477,179.91843317454246,179.36728760405214,1.0,-0.0013838847830761193,-0.00212538704062258,-0.01444770920243715,0.08382363284040133,98.9900289359819,0.8663483586401219,9,0.3
1.2404815867296934,0.843168730776304,-0.4667869508266449,0.999940037727356,1.3275453698608732,0.9839715177303139,-0.24392828345298767,0.9999954104423523,1.1439056449103284,0.9836646408648207,-0.24886658787727356,0.9999958872795105,1.2951710675759682,1.3073173929029,-0.0019716110546141863,0.9999836087226868,1.1828898334730311,1.3134258153158695,0.0018426465103402734,0.9999890327453613,1.2965987216658286,1.5879266228519169,-0.013363446108996868,0.9832051396369934,1.1942320609440629,1.6065386498793195,0.006098644807934761,0.9601528644561768,1.2968486123386591,1.843168730776304,0.15896908938884735,0.977959156036377,1.2070142322101762,1.8540742347939405,0.15178704261779785,0.9536082744598389,1.3848847452424575,1.3300056518013417,-0.3349141478538513,0.87481290102005,1.10020308737878,1.350490249508814,-0.3331986367702484,0.9801484942436218,0.00012502074241638184,1.2390304505244998,1.310371604109385,179.76459357354068,179.26000133214814,1.0,0.0026944568113315254,0.00045811011328284216,0.03247705231572175,0.020558165855519853,98.8315463613623,0.8677546864869096,10,0.3333333333333333
1.239412079733999,0.8417257134480955,-0.4686358571052551,0.9999457001686096,1.3258063377613518,0.9830243258831369,-0.24432571232318878,0.9999957084655762,1.1432075564486306,0.9832072261612724,-0.2521118223667145,0.9999959468841553,1.2940623613222397,1.3059942113486882,-0.0018009415362030268,0.9999843835830688,1.182088735790793,1.3123203834139334,0.0016707131871953607,0.9999893307685852,1.2958530741532386,1.586122757434699,-0.021455662325024605,0.9839534163475037,1.1929434252099718,1.605453775005475,0.0064661442302167416,0.9621727466583252,1.2961554478451782,1.8417257134480955,0.15486523509025574,0.9791249632835388,1.2056125759980616,1.8522110217622103,0.1579875648021698,0.9573450684547424,1.3837271949184267,1.3282469567344752,-0.3367390036582947,0.8869519233703613,1.0975088660599268,1.3499471284473652,-0.347113698720932,0.9818909764289856,7.459521293640137e-05,1.2380755485565165,1.3091572973813108,179.70152338187543,179.18155422566093,1.0,0.003118342474815507,0.0017430036540453488,0.0032467426548877967,0.009777017843592233,98.84704335500989,0.8688903659176781,11,0.36666666666666664
1.2423995962475112,0.8421109342712119,-0.4377502501010895,0.9999507069587708,1.3265849726762375,0.9826607634044919,-0.23518815636634827,0.9999959468841553,1.1442164385860827,0.9827290399152961,-0.24086439609527588,0.9999959468841553,1.295037862029985,1.307040346300802,-0.0013994005275890231,0.9999850392341614,1.1828417911896691,1.3149285494355565,0.0012709900038316846,0.9999896287918091,1.2966820539796726,1.5877742062161158,-0.003878561081364751,0.9844960570335388,1.193041600132401,1.6064265594749814,0.00702078128233552,0.9643462300300598,1.2974494702649217,1.8421109342712119,0.17447757720947266,0.9801744818687439,1.2067407630068214,1.85242770511682,0.16128772497177124,0.9608083963394165,1.38401882267903,1.3273216864619815,-0.321696013212204,0.897857129573822,1.0995633081153724,1.349653514982966,-0.3350735306739807,0.9834750294685364,2.7835369110107422e-05,1.238939826609827,1.3109844478681794,179.83731538053468,178.81665876359722,1.0,0.0027180062868999645,0.009459779444999972,-0.0028957934256997027,0.05564297872494148,99.57645085355914,0.874056213267557,12,0.4
1.245369935950296,0.842688368844381,-0.4565076231956482,0.9999553561210632,1.327870635322598,0.9833743570802989,-0.24085192382335663,0.9999961853027344,1.1448974345378384,0.9831168417992426,-0.2480114996433258,0.9999960660934448,1.2963664454882715,1.3077497764751271,-0.0013090403517708182,0.9999857544898987,1.1832647247581451,1.3159826592237607,0.001177026890218258,0.999989926815033,1.2971927470064122,1.5884860463798112,-0.001403640490025282,0.9849405884742737,1.19410223451736,1.6067283089452002,0.007809869945049286,0.9660587906837463,1.298601218827651,1.842688368844381,0.16933943331241608,0.9811614155769348,1.2075756739114933,1.8529976102494154,0.15753568708896637,0.9639477133750916,1.3851984663176815,1.3278775101980367,-0.33954280614852905,0.9077470898628235,1.099500876729461,1.3501436227302397,-0.3479255735874176,0.9849204421043396,0.0001049339771270752,1.2398155851232084,1.3118662178494438,179.8511819045918,179.00316429301557,1.0,0.0020095497513070103,0.001791239077618036,-0.005296708205926159,-0.0572602017767478,99.71063993582493,0.8751587711117361,13,0.43333333333333335
1.2445911051291,0.8426752363754122,-0.4561328887939453,0.9999595880508423,1.328614698643838,0.9834817313495186,-0.24175496399402618,0.9999963641166687,1.1449319666498654,0.9847002849581251,-0.24079814553260803,0.9999960660934448,1.2980339907857397,1.3081992817101116,-0.0030507021583616734,0.9999862909317017,1.1835549674306407,1.3165561226504703,0.0029210951179265976,0.9999901056289673,1.2968758456083362,1.588276902887523,-0.011976659297943115,0.9851800203323364,1.1935590716935454,1.6062996778899583,0.010174660012125969,0.9669686555862427,1.2989449440775895,1.8426752363754122,0.14082230627536774,0.9821082949638367,1.2077446680417752,1.852563350599711,0.15568706393241882,0.9666260480880737,1.3857351852344828,1.3279080808928863,-0.35625001788139343,0.916506826877594,1.100177436968263,1.349989190840034,-0.3514818549156189,0.9861094951629639,0.0004965662956237793,1.2407944791081902,1.312377702180291,179.29708474678583,178.6807093234859,1.0,0.008294572087368007,0.004572716375913448,0.0503948984886634,0.02230291257377156,99.55516057779234,0.8773357509851117,14,0.4666666666666667
1.2443208861217205,0.8423160151080834,-0.4726950228214264,0.9999634623527527,1.3305850795647398,0.9833600634356404,-0.2540322542190552,0.999996542930603,1.1449621965204726,0.9845801202185529,-0.2465733289718628,0.9999961853027344,1.2982887104054648,1.3074295206065287,-0.004483803641051054,0.9999869465827942,1.1828157652834506,1.3150578552608285,0.00435061939060688,0.9999904036521912,1.29619710092279,1.584687552488583,-0.02889319323003292,0.9851277470588684,1.193154768498887,1.605818043868372,0.0080538559705019,0.9670177102088928,1.2981873619666804,1.8423160151080835,0.11676432937383652,0.9826504588127136,1.207318761241286,1.8526263541186112,0.14099283516407013,0.968805730342865,1.38600029995043,1.3276712753882043,-0.35097894072532654,0.9243974089622498,1.1010730576728922,1.3484013453749317,-0.36008957028388977,0.9871371984481812,0.0004972517490386963,1.2405522378444576,1.3112436879336786,179.12515488399444,178.75197124104065,1.0,-0.00045070158867027346,-0.007034768917948014,-0.06532724106302563,-0.08671502736289631,99.47079862336855,0.8742918544888112,15,0.5
1.2433055063006677,0.8408464421725209,-0.46985387802124023,0.9999668598175049,1.3314804386182775,0.9826736295992002,-0.2561434209346771,0.9999967217445374,1.1445127083456181,0.9853586390320989,-0.2511730492115021,0.9999962449073792,1.2974550719796036,1.3064652639235086,-0.005014442373067141,0.9999874234199524,1.1819337577352216,1.3140310192901115,0.004880138207226992,0.9999905824661255,1.2957417398840665,1.5792954250569557,-0.0505807101726532,0.9853261709213257,1.19186930099514,1.6045963012398494,0.005269278772175312,0.9667707085609436,1.2974240905394592,1.8408464421725208,0.09316118061542511,0.9830785393714905,1.2062869233552052,1.8512038883461048,0.13559019565582275,0.9706512689590454,1.3872807889569871,1.3272428498453084,-0.3682705760002136,0.9314046502113342,1.101279277734947,1.3477509556933986,-0.36432766914367676,0.9880685806274414,0.001095116138458252,1.2396944148574127,1.31024814160681,179.27166259789644,178.61247813936762,1.0,0.0003638010949156385,-0.0002560569618088347,0.0058705813383414535,0.048840673746859395,99.74594193745587,0.8759102134676429,16,0.5333333333333333
1.2431087985416993,0.8399505154747603,-0.4631320536136627,0.9999699592590332,1.331224149663665,0.9824107608537906,-0.24751070141792297,0.9999969005584717,1.1443211737923376,0.9852448440290156,-0.24706241488456726,0.9999962449073792,1.2974868519297993,1.3059140917031107,-0.004655603319406509,0.9999879002571106,1.1815403993980815,1.3135148364834872,0.004521549679338932,0.9999907612800598,1.29564148055374,1.5786723390692057,-0.03557886928319931,0.9852621555328369,1.19153188831099,1.6036746160205493,0.005867748521268368,0.9665085673332214,1.2967672841787925,1.8399505154747602,0.11458168923854828,0.9835529923439026,1.20547471860935,1.8503851243171612,0.14379210770130157,0.9723602533340454,1.3868317202584688,1.3266927425983013,-0.35737910866737366,0.9376720190048218,1.1018121903337044,1.3470337513940165,-0.3806510865688324,0.9887544512748718,0.0011564195156097412,1.2395136256639403,1.309714464093299,179.36548964208916,178.737541817203,1.0,0.0027523021190273282,0.00026799546050056426,0.018413117566121406,0.004038832645705314,99.7042988424906,0.877135629261751,17,0.5666666666666667
1.2435529089897153,0.8393625125347982,-0.46466881036758423,0.9999726414680481,1.3325907089968867,0.9821796450286832,-0.2508963346481323,0.9999970197677612,1.1446948235364056,0.9838983483461223,-0.24927692115306854,0.9999962449073792,1.2985991771928787,1.3058007295907998,-0.004385828040540218,0.9999883770942688,1.18180899987373,1.3133992766021994,0.004252174869179726,0.9999909400939941,1.2969726385557576,1.5784976149285166,-0.036785200238227844,0.9843243360519409,1.1918471357488611,1.603364989442324,0.006169847212731838,0.9639660716056824,1.2965705317967782,1.839362512534798,0.1150248795747757,0.983101487159729,1.2052992354202159,1.850159363832929,0.1438187062740326,0.9731320738792419,1.3888256240596848,1.3262900626975433,-0.3898957073688507,0.9434078931808472,1.102158486588761,1.3468515500865013,-0.3958638310432434,0.9893063306808472,0.0007013678550720215,1.2402040885333043,1.3096000030964996,179.74657313252771,178.86274189771427,1.0,0.006327447310510318,9.804251496849463e-05,0.0279066007064599,-0.0013263040717623866,99.71857911935926,0.87852592546697,18,0.6
1.2461261391727847,0.8383138698987728,-0.4621383249759674,0.9999751448631287,1.33296038828718,0.9814932346897579,-0.25160253047943115,0.9999971985816956,1.1442715575217246,0.9828195886368453,-0.2599473297595978,0.9999963641166687,1.2983369371143556,1.3048118451122823,-0.0030546963680535555,0.9999889135360718,1.1812388106449632,1.3123982889588826,0.0029295175336301327,0.999991238117218,1.2967014582448142,1.5777169617173419,-0.03294471651315689,0.9832918643951416,1.192057671980574,1.6023732326868327,0.006424899213016033,0.9613237380981445,1.2963143039145435,1.8383138698987727,0.1200423613190651,0.9824563264846802,1.204573326219932,1.8491355049645024,0.13862299919128418,0.9738797545433044,1.3894640445379305,1.3255797844125565,-0.39856016635894775,0.9482887387275696,1.10170421628146,1.3351237517940742,-0.45412367582321167,0.9898474216461182,0.0005415380001068115,1.2397878738796593,1.3086050670355824,179.7417603052825,179.23316982149282,1.0,0.001728275606616167,-0.0024434821624213,-0.035319239540533336,-0.01953108483994857,99.81922480439795,0.8787540440734848,19,0.6333333333333333
1.2515286785007675,0.8362758442807066,-0.45814403891563416,0.9999772906303406,1.3328964031484343,0.9791889764118209,-0.2491006851196289,0.9999973177909851,1.1443208103747542,0.9795743400865778,-0.2648012340068817,0.9999964833259583,1.2989628205704884,1.3032061951548428,0.0008638262515887618,0.9999894499778748,1.1818157627740293,1.3105129412135224,-0.0009826405439525843,0.9999915361404419,1.295922194738714,1.5763107923772646,-0.012337503023445606,0.9828132390975952,1.1929767288018813,1.6002810544909047,0.006579375360161066,0.960598349571228,1.2945877837090605,1.8362758442807066,0.14778321981430054,0.9825369119644165,1.2030568393923617,1.8469454461072983,0.13976584374904633,0.9751589894294739,1.3884207036962326,1.3242094631641974,-0.39695921540260315,0.9525793194770813,1.1044479176911015,1.3259667098566565,-0.48087769746780396,0.9904181361198425,0.00015753507614135742,1.240389291672259,1.3068595681841826,179.6562194292524,179.86563530356557,1.0,0.016157554556583586,-0.0009728543988757612,0.109296745468619,0.011114975282138334,99.54771503272373,0.8801382450370545,20,0.6666666666666666
1.2507258908256413,0.833509769049397,-0.44437742233276367,0.9999791383743286,1.3330077626618926,0.9766873344345368,-0.22831492125988007,0.9999974370002747,1.1462870128242957,0.9767319620780057,-0.23873870074748993,0.9999964833259583,1.2987334412696208,1.3013661082241468,0.0013971043517813087,0.9999898672103882,1.1830462130532435,1.308701495011496,-0.0015167903620749712,0.999991774559021,1.2950021917050678,1.5764469712572495,0.003697950392961502,0.9832288026809692,1.1932615752859246,1.59798297611926,0.00668677082285285,0.9627758264541626,1.2928874383812732,1.8335097690493969,0.18493106961250305,0.9831191301345825,1.2030605099156,1.8443715404931071,0.1534442901611328,0.976900577545166,1.3869403789971682,1.322391916470447,-0.34481507539749146,0.956963062286377,1.1056498669433725,1.3239260008149458,-0.38360002636909485,0.9909366965293884,1.8268823623657227e-05,1.2408898271614321,1.3050338016178213,179.69421566090105,179.74497140151323,1.0,0.017151870305756958,-0.00016360367031771595,0.007877956369422928,0.00626055880815416,99.65414133215558,0.8832681989606044,21,0.7
1.2493605644933015,0.8325298215256367,-0.44797858595848083,0.9999808669090271,1.335649248067504,0.9753004346342283,-0.22995133697986603,0.9999974966049194,1.14884326753545,0.9754769661322938,-0.2397489994764328,0.9999963641166687,1.3001831532484052,1.3002084759859678,0.001811360358260572,0.9999903440475464,1.1850111951240632,1.3079067337379635,-0.0019339261343702674,0.9999920129776001,1.2950820769592923,1.5766214374437424,0.0010931729339063168,0.9831541180610657,1.1946986703379785,1.5971258692866483,0.002836195519194007,0.9639479517936707,1.2921654506173872,1.8325298215256367,0.18004027009010315,0.9834380745887756,1.2029600679347925,1.843443193750232,0.15639276802539825,0.9782179594039917,1.3890701825492866,1.320271942916146,-0.3482165038585663,0.9607312083244324,1.1088775842108365,1.3180960794144336,-0.38538283109664917,0.9908570051193237,7.230043411254883e-05,1.2425971741862343,1.3040576048619656,179.59573263768095,179.99746032489546,1.0,0.01808145371828074,-0.0026506307100740284,0.007331869567252336,-0.01944134703060886,100.05363331422583,0.8831770209129586,22,0.7333333333333333
1.2495554140870357,0.8315284461535083,-0.4480035901069641,0.9999823570251465,1.33805749953567,0.974122969111042,-0.23045392334461212,0.9999975562095642,1.1533359251452149,0.9734810520661846,-0.23664462566375732,0.9999963641166687,1.301014370011544,1.2993430731354918,0.0016647810116410255,0.9999906420707703,1.1876412897449333,1.306732209545809,-0.0017889238661155105,0.9999921917915344,1.296181266261547,1.578913617760689,-0.00387626513838768,0.9833177328109741,1.1962917164266913,1.5961001521489568,0.003912563435733318,0.96519935131073,1.290657739896406,1.8315284461535082,0.17276063561439514,0.9837937951087952,1.2026514730058138,1.8415457554426231,0.16461603343486786,0.9794063568115234,1.3902855632732984,1.3214605950782627,-0.34629160165786743,0.9642032384872437,1.1121006635300217,1.3166021840742033,-0.3637627065181732,0.9913457036018372,0.0002630650997161865,1.2443278298782388,1.3030376413406504,179.73781184365325,179.7719602246972,1.0,0.01904194917253307,-0.0017020208613304833,0.00742850643243114,0.007240703469189599,100.22708480704576,0.883846316173429,23,0.7666666666666667
1.2437650599273768,0.824028761207825,-0.4480680525302887,0.9999836683273315,1.3323369536926393,0.9684299675058389,-0.23143243789672852,0.999997615814209,1.1487171804923981,0.9680134517035431,-0.2400820255279541,0.9999964237213135,1.2961150448313,1.2918496800904145,0.0024199108593165874,0.9999909400939941,1.184175248102001,1.2989608867007612,-0.0025434610433876514,0.9999923706054688,1.2887055316421872,1.5749880272492867,-0.004553507082164288,0.9839668273925781,1.191091680615596,1.586792754577119,0.004098666366189718,0.9668158888816833,1.281808186122483,1.824028761207825,0.17302928864955902,0.9844117164611816,1.1959671061688006,1.8310481478096807,0.16402944922447205,0.9806299209594727,1.3822960034148368,1.3141894158570118,-0.35435643792152405,0.9673102498054504,1.1089109655358298,1.311782141051728,-0.38069647550582886,0.9918098449707031,0.0001716911792755127,1.2401451464666504,1.2954052833955878,179.91260599984238,179.76697314791747,1.0,0.02295310782605468,-0.0004291062950136751,0.030253894169684617,0.009500892631891166,100.02525109529223,0.8858439612958101,24,0.8
1.2467857331580399,0.824206915949829,-0.4316529631614685,0.9999848008155823,1.3344568812696718,0.9682843005187602,-0.21577152609825134,0.9999976754188538,1.151829836414476,0.9706452981477869,-0.22066164016723633,0.9999963641166687,1.2985382864959045,1.2959033897206063,0.002396846190094948,0.9999908804893494,1.1880208845749674,1.3031091998812454,-0.0025230306200683117,0.9999921917915344,1.290350516450611,1.5772197161988466,-0.005923502147197723,0.9840399026870728,1.1940004014874264,1.5875340539625413,0.004443446174263954,0.9677432179450989,1.2817410183453153,1.8242069159498289,0.17494550347328186,0.9844757318496704,1.1960315490756934,1.8303405508300503,0.1778486669063568,0.981191873550415,1.3851128259907663,1.3142493554984658,-0.34783172607421875,0.9700216054916382,1.1113266658276442,1.3164412715484135,-0.3324422836303711,0.9922141432762146,0.0009733736515045166,1.243279585535436,1.2995062948009257,179.67072272049595,179.2749223481781,1.0,0.02472982828799273,0.03197770748337428,0.01323194073728165,0.24086204118234875,99.98709162845581,0.9005740486601685,25,0.8333333333333334
1.2505614070142796,0.8255154016980134,-0.4244922995567322,0.9999859929084778,1.3394702210302514,0.9689884704748851,-0.21490761637687683,0.9999977350234985,1.1549704731850337,0.9754308424906888,-0.21633705496788025,0.9999962449073792,1.3026423838946777,1.2983441413965084,0.0015896966215223074,0.999990701675415,1.192051152370143,1.3057010854266835,-0.0017241851892322302,0.9999918341636658,1.2929190697814397,1.5785981756740772,-0.021579880267381668,0.9835944771766663,1.1967453332194158,1.588951026701495,0.0030856996309012175,0.9668089747428894,1.2828953836539894,1.8255154016980135,0.14369434118270874,0.9840719103813171,1.1970490330545946,1.8292280923939106,0.1704426407814026,0.981063723564148,1.3875926825268203,1.315806375511752,-0.3488912284374237,0.9725728034973145,1.1132814854003792,1.3174969085628379,-0.3530026972293854,0.9925450682640076,0.002653956413269043,1.2473467681324102,1.302022613411596,179.66239507255094,179.12296767474402,1.0,0.022541626855265354,0.0109659129362311,-0.016025952742572593,-0.15273137121905508,100.18610973756914,0.9069566905386462,26,0.8666666666666667
1.2559296535933016,0.8319540582211957,-0.4306490421295166,0.9999869465827942,1.3458250860820278,0.9722297022146642,-0.21879155933856964,0.9999977350234985,1.1613847352444473,0.9789388984767509,-0.2234392613172531,0.9999962449073792,1.310067438998776,1.3030371253906243,0.0023693558759987354,0.9999908208847046,1.1990235651343666,1.3102913426603777,-0.0024992485996335745,0.9999918937683105,1.2992136291407566,1.5865421411883927,-0.00562329962849617,0.9837749004364014,1.2039414595019333,1.5945804568839885,0.002536576706916094,0.9679728150367737,1.288315241835194,1.8319540582211957,0.19586284458637238,0.9840568900108337,1.2012933848737686,1.8328277471523615,0.18581505119800568,0.981644332408905,1.3935665159769854,1.3226639802099365,-0.3466804623603821,0.9745944738388062,1.1189827978243592,1.3222626379786349,-0.3595448136329651,0.9928868412971497,0.0027540624141693115,1.2545455020665712,1.306664234025501,179.64971005571027,178.37213801595774,1.0,0.021333116380474203,1.7994799841186573e-05,-0.009982647028268815,-0.08509988942106855,99.90694300760896,0.902804734977665,27,0.9
1.2669084825621,0.8365698194710545,-0.4416321814060211,0.9999876022338867,1.3540144300325334,0.9767473513077687,-0.22017332911491394,0.9999977350234985,1.1690824550676195,0.9831646945972317,-0.22628629207611084,0.9999961256980896,1.3169493326673416,1.3090592557381433,0.002393835224211216,0.9999907612800598,1.2046794869597317,1.315194977286087,-0.0025247351732105017,0.9999917149543762,1.3055708223245441,1.5937196819898993,-0.01228727214038372,0.9839182496070862,1.2095746432189518,1.6010206946392451,-0.0021145204082131386,0.9687969088554382,1.2945787486527052,1.83980048255714,0.18144305050373077,0.9839282035827637,1.2069794343188587,1.8365698194710545,0.18469052016735077,0.9818345308303833,1.4000740633815951,1.3318377208143122,-0.3447568714618683,0.9765002131462097,1.1266972523973406,1.3299210007615676,-0.32897788286209106,0.9930460453033447,0.0026220381259918213,1.2608144098135365,1.312127116512115,179.73140163653153,178.38758534962076,1.0,0.003440151760512772,-0.005122122809915434,-0.14686650211497912,-0.041957908221125245,99.49249029351829,0.9039071455658276,28,0.9333333333333333
1.272455611512142,0.8411105100862659,-0.459229052066803,0.999988317489624,1.3634543583557837,0.9822363179497048,-0.23962624371051788,0.9999977946281433,1.177816639053421,0.98794049678028,-0.22799284756183624,0.9999961256980896,1.3245865640048438,1.3144774173714693,0.0015701726078987122,0.9999908208847046,1.2123145932874,1.3179917993354047,-0.001701625995337963,0.999991774559021,1.3132955430813567,1.602156297228037,-0.01220049150288105,0.9840531349182129,1.218090860876177,1.604810747575823,-0.003228485118597746,0.970000147819519,1.3020485234344932,1.849167877190677,0.1827489137649536,0.9839633703231812,1.2146269337094366,1.841110510086266,0.18200357258319855,0.9822916984558105,1.4082225772310408,1.3402703790445973,-0.3652922511100769,0.9782553315162659,1.1332795002158995,1.3372322375646526,-0.3208344280719757,0.993279218673706,0.002318084239959717,1.2684505786461218,1.316234608353437,179.64061966667578,178.00643125568678,1.0,0.005765148067705192,-0.02159380915865516,0.016575392408675196,-0.11818003125583991,98.4654253640128,0.8981807915652864,29,0.9666666666666667
1.2726129218709317,0.8420790522814517,-0.4465112090110779,0.9999885559082031,1.3661251559848422,0.9830293922263994,-0.22996285557746887,0.9999977350234985,1.1794642487585059,0.9885889987644504,-0.22735562920570374,0.9999960660934448,1.3263487643475966,1.3158349970248762,0.002561974572017789,0.9999905824661255,1.214262408555675,1.31915181233031,-0.0026949127204716206,0.9999915957450867,1.3151994624522358,1.6036917953807646,-0.0076938956044614315,0.9837203621864319,1.2204993804638726,1.6056598977097565,-0.008363461121916771,0.9707785248756409,1.3031838961116733,1.85034232269833,0.18284966051578522,0.9837600588798523,1.2165660379130865,1.8420790522814516,0.17578892409801483,0.9825562238693237,1.4093453230673219,1.3442910942085333,-0.3511166274547577,0.979758620262146,1.1345398803081448,1.3392756549748854,-0.3293355107307434,0.9935872554779053,0.002257734537124634,1.2703055864516357,1.3174934046775932,179.42912203218972,177.79977872748057,1.0,0.007407407817665635,0.002532170458369447,0.012676391923334172,0.18680743466200914,98.5105491450619,0.8990159084182803,30,1.0
1.2678456721686582,0.8390746643268813,-0.4469998776912689,0.9999889731407166,1.3631139623649415,0.9791949842350451,-0.22979044914245605,0.9999977350234985,1.176930617304158,0.9857093322784114,-0.22245259582996368,0.9999959468841553,1.3218286572365827,1.311313957845101,0.0019965278916060925,0.9999906420707703,1.2110029006697776,1.3140946104998235,-0.002135779242962599,0.9999915957450867,1.3108821594949305,1.600120646097297,-0.014237992465496063,0.9840317964553833,1.218055753329049,1.6001598473025291,-0.006867447402328253,0.9719531536102295,1.2986496281846134,1.8453531469096616,0.17969493567943573,0.9840571880340576,1.2148650238875032,1.8390746643268814,0.17128604650497437,0.9833008050918579,1.4042793235071416,1.3396243954073448,-0.3249371349811554,0.9811604022979736,1.13141070437179,1.3367442770080031,-0.3029749393463135,0.9937513470649719,0.002654522657394409,1.26641577895318,1.312704284172462,179.31498997161484,177.8225309098339,1.0,0.0032835861092329337,-0.0020874016890204336,-0.029825630483077216,-0.03355454075529587,98.52328581697398,0.8943195611643545,31,1.0333333333333334
1.257023812519366,0.831628350633095,-0.44770270586013794,0.9999898076057434,1.3520363311312247,0.9708339222148491,-0.22537462413311005,0.9999977946281433,1.1676877612304388,0.9767546197618944,-0.2201017439365387,0.9999960660934448,1.312159510762192,1.3001498810719183,0.002244076458737254,0.999990701675415,1.2023434354099163,1.3022967575609667,-0.002386434469372034,0.9999917149543762,1.2998405324566957,1.5871846426178695,-0.011373674497008324,0.9847182035446167,1.2081035124265542,1.5865826238172183,-0.006655670702457428,0.9738205075263977,1.2871743527518358,1.831628350633095,0.18136844038963318,0.984417736530304,1.2057400338949202,1.8378900132970595,0.14570006728172302,0.9843745231628418,1.392120399119176,1.328171383483728,-0.30537620186805725,0.9826838970184326,1.1213880050328249,1.3268690156615532,-0.2873639166355133,0.9941163063049316,0.002433300018310547,1.257251473086054,1.3012233193164426,179.49131106217249,178.30042103122858,1.0,0.012366243916360264,-0.0024952708230986365,0.070401699675763,-0.003288907768885547,98.02429821136003,0.8799723483229851,32,1.0666666666666667
1.2538307856482909,0.8293036314692132,-0.4482136368751526,0.9999905228614807,1.350083908624441,0.9682849123454678,-0.2233503758907318,0.9999978542327881,1.1649686519809335,0.974234750596604,-0.22034159302711487,0.9999961853027344,1.3099752823607305,1.297254674139291,0.003008293453603983,0.9999907612800598,1.2002653887809662,1.298924167173812,-0.003146060975268483,0.9999918341636658,1.2969478554298015,1.5833406264859045,-0.006607366260141134,0.9853847026824951,1.2054209123061208,1.5825438525812046,-0.009913729503750801,0.9756511449813843,1.282917517554558,1.8293036314692133,0.1877363622188568,0.9847862720489502,1.2047318359635215,1.8482323640359868,0.12227634340524673,0.9854958057403564,1.387588119967996,1.3244082022579022,-0.31860169768333435,0.9841523766517639,1.1182051987906048,1.3238987182905178,-0.29474538564682007,0.994483232498169,0.002451568841934204,1.2551203355708485,1.2980894206565516,179.34250795804795,178.8100161500593,1.0,0.008371219153645163,0.0015735228953952694,-0.030274507961450984,0.031031546322777347,97.82312575869534,0.8668425368797242,33,1.1
1.252561843099088,0.8284763989003102,-0.44956478476524353,0.999991238117218,1.3490020728303138,0.9670080771297529,-0.2227301299571991,0.9999979138374329,1.1636947716172268,0.9736530722027703,-0.22171100974082947,0.9999963045120239,1.30951105658847,1.2962635578740525,0.003944440744817257,0.9999908208847046,1.1999195119786814,1.2976847083743674,-0.004081263206899166,0.9999919533729553,1.29610110763889,1.5819372103825935,-0.003992164041846991,0.9859734177589417,1.2046211021699247,1.5811673061097187,-0.010287811979651451,0.9772255420684814,1.2813172690670183,1.82847639890031,0.1864454299211502,0.985187292098999,1.2044544606030718,1.8505751229722265,0.12127433717250824,0.9864842295646667,1.3858821784865594,1.322512712019959,-0.324148029088974,0.9854602813720703,1.11699950657909,1.3234387072661216,-0.30765897035598755,0.9948354959487915,0.0027404427528381348,1.2547152842835756,1.29697413312421,179.2559177094838,179.01439011824687,1.0,0.005446786824311807,0.00031564379347615154,-0.022274586898797508,-0.009594707791386875,97.58235693416445,0.8633082029030794,34,1.1333333333333333
1.2495281803656428,0.8260549391092812,-0.45464205741882324,0.9999918937683105,1.3458568029752425,0.9643604798597782,-0.2314833104610443,0.9999980330467224,1.1605935491721044,0.9711933767782709,-0.22501949965953827,0.9999964237213135,1.3060594601584703,1.2930170405782906,0.0034304982982575893,0.9999907612800598,1.196605017874435,1.2937351319689356,-0.003566532861441374,0.9999919533729553,1.2931852824278958,1.5773314939659995,-0.014371119439601898,0.9861763119697571,1.2021898687843322,1.576342370289787,-0.01492864079773426,0.9781625866889954,1.2777468221104102,1.8260549391092813,0.1333571970462799,0.985373854637146,1.2016973252717567,1.8562940688765122,0.07857003808021545,0.9872424006462097,1.3808872933865384,1.3184437614494922,-0.32514163851737976,0.9866979718208313,1.114021696711124,1.3208230789181141,-0.3058181405067444,0.9951338171958923,0.002825021743774414,1.2513322390164527,1.2933760862736132,179.0408289537057,178.76706955209633,1.0,-0.0018191773045727034,-0.0026613683898494725,-0.056040426924529,-0.022998035922133068,97.28027795641783,0.8529006786495397,35,1.1666666666666667
1.2510370881249249,0.8256028630997552,-0.44613394141197205,0.9999924898147583,1.3458655925718532,0.9640196254360988,-0.2258356809616089,0.999998152256012,1.1602857334350927,0.9730499060599443,-0.22687730193138123,0.999996542930603,1.305906008055711,1.2968162717004412,0.006504149176180363,0.9999908804893494,1.196716097801435,1.2964934090619182,-0.006620739586651325,0.9999921321868896,1.2938971033888325,1.579356249373913,0.020767342299222946,0.9863302707672119,1.2026054582523473,1.5794512344090856,-0.015967518091201782,0.9796016812324524,1.2774763672476033,1.8256028630997552,0.22964811325073242,0.9845820665359497,1.2013159535221936,1.8650032034027415,0.09653282165527344,0.9880726933479309,1.3790123430098438,1.3163834772162033,-0.33325156569480896,0.9877928495407104,1.1136714310526115,1.3248272000242147,-0.3249369263648987,0.9953719973564148,0.0037343204021453857,1.2513110529285731,1.2966548403811797,178.61872973005845,178.54890649853627,1.0,0.0019292222038163412,0.02767929124109172,0.029166517343872194,0.23610264783895027,96.67742759066762,0.8583623318802855,36,1.2
1.2506745188614605,0.8245001904557742,-0.4454614520072937,0.9999930262565613,1.3448452467598027,0.9640833112911749,-0.22578541934490204,0.9999982118606567,1.1596033074186702,0.9758977641471759,-0.22496147453784943,0.9999966621398926,1.3052055222378005,1.3035775719741303,0.006570308469235897,0.9999909400939941,1.1959504665158003,1.304091024605964,-0.006680178456008434,0.9999922513961792,1.2940033515606135,1.5835441024692405,0.0322723314166069,0.9856812357902527,1.2036495907649982,1.5844996948673753,-0.021668460220098495,0.9807698130607605,1.2769019501403496,1.8245001904557743,0.24712307751178741,0.9830275774002075,1.20120543234037,1.8723812331046135,0.08639340102672577,0.9887468218803406,1.369872316835426,1.313247020274752,-0.3837849497795105,0.9886913299560547,1.1126931282058374,1.3269784205828234,-0.32948943972587585,0.995495080947876,0.004887998104095459,1.2505779943768005,1.303834298290047,178.23167508150465,177.94079822205748,1.0,-0.0010810042111615162,0.0617350070473406,-0.02382524412698189,0.2697299395039551,96.92902715336744,0.8799468706560327,37,1.2333333333333334
1.2468178637832772,0.8192011619963259,-0.4452444612979889,0.9999933242797852,1.3406525428615768,0.9611249579084411,-0.22805047035217285,0.9999982714653015,1.1558032922223849,0.9739524614755862,-0.22793912887573242,0.9999967217445374,1.3004813428738713,1.3005771417897922,0.007312250789254904,0.9999909400939941,1.191804582276152,1.3022061542401326,-0.007416035979986191,0.9999923706054688,1.2901327619294247,1.5815995991669947,0.03749357908964157,0.9845949411392212,1.2003189802284395,1.5819635488715584,-0.024797722697257996,0.9815745949745178,1.2732022065923012,1.819201161996326,0.2427760362625122,0.9813172221183777,1.1984300037034108,1.8723066518989837,0.0730879083275795,0.9892839789390564,1.36040148219738,1.3090541250230432,-0.3830677568912506,0.9893466234207153,1.1063436907473112,1.323056709295748,-0.3423166871070862,0.995587944984436,0.0053233802318573,1.2461429625750116,1.3013916480149625,178.03316600590293,177.88398289696428,1.0,-0.004767038899378644,0.011882088578805057,-0.028503471275566072,-0.3837030218560569,97.60783748288513,0.885627308277989,38,1.2666666666666666
1.24395378152467,0.8183785630809254,-0.45003238320350647,0.9999937415122986,1.3391240427383069,0.9614938163837833,-0.23610417544841766,0.9999983310699463,1.1546206989625538,0.9744951314969605,-0.22697332501411438,0.9999967813491821,1.2981253894371718,1.3010598433924176,0.0062157465144991875,0.9999911189079285,1.1894019250040917,1.3032484444048826,-0.006309870630502701,0.9999925494194031,1.2897123979566931,1.580834809724946,0.028447482734918594,0.9846972227096558,1.199940130764747,1.5811210909122233,-0.030110588297247887,0.9828225374221802,1.273148576203343,1.8183785630809255,0.22962427139282227,0.9812734127044678,1.1988788516592537,1.8749984925012706,0.05867644026875496,0.9900528192520142,1.356221375470555,1.3081923223807568,-0.3904421031475067,0.9901126027107239,1.1029646039298338,1.3248161569406678,-0.3310442268848419,0.9956575632095337,0.005397588014602661,1.2437636572206319,1.3021541438986501,177.7336442491924,177.62121071519945,1.0,-0.014408888016121398,0.009579611717895155,-0.0731373497714998,-0.017427236307128034,98.0376825432694,0.8883268062257526,39,1.3
1.2407817871770954,0.8178714838974881,-0.4620654582977295,0.999994158744812,1.3372808879005211,0.9613636164653946,-0.24307528138160706,0.9999983906745911,1.1528266391972635,0.9749472067024272,-0.22962208092212677,0.9999968409538269,1.2953162265777958,1.3002637906656944,0.005207673646509647,0.9999912977218628,1.1862369419745218,1.303157321227965,-0.005298634059727192,0.9999927878379822,1.2888944833031373,1.5801772775465617,0.023221824318170547,0.9848459959030151,1.199368274532898,1.5813586589978539,-0.02718777023255825,0.9838863015174866,1.2727851537769401,1.817871483897488,0.222488135099411,0.981291651725769,1.1987526098827561,1.8787721211200892,0.0677763819694519,0.9907239079475403,1.352019952730389,1.3071590338076609,-0.39775851368904114,0.9907368421554565,1.0986142773055776,1.3290841301187395,-0.33046954870224,0.9956222176551819,0.0056410133838653564,1.240776584276159,1.3017105559468296,177.4370455509649,177.17899196506778,1.0,-0.020664393254736364,-0.0004231345346956886,-0.04947593746181076,-0.07903632553421769,98.57829839209285,0.8851201666298584,40,1.3333333333333333
1.2320845995877912,0.8160293653926759,-0.46186646819114685,0.9999943375587463,1.3318211651256995,0.9606237822913708,-0.24309003353118896,0.9999983906745911,1.1496625655628594,0.9747090154067073,-0.22950856387615204,0.9999969005584717,1.2916262944618249,1.29906128081259,0.0048018102534115314,0.9999914765357971,1.1817131370640717,1.3018780263021479,-0.004885662347078323,0.9999930262565613,1.28642227722609,1.5786558575988388,0.029726538807153702,0.9842706322669983,1.198233034604112,1.5797033720213414,-0.042569421231746674,0.9848719239234924,1.2716153991646557,1.816029365392676,0.244218111038208,0.9801794290542603,1.1979157689422657,1.876372935783566,0.049278877675533295,0.9912822246551514,1.34601459120911,1.3054156280548024,-0.4023463726043701,0.9909846782684326,1.0943551663253581,1.3300133602900404,-0.33010631799697876,0.9955365061759949,0.005854696035385132,1.2366697157629483,1.300469653557369,177.49693767175376,176.53584317615523,1.0,-0.022792581583978302,-0.0003778824385687624,-0.01647189456977181,0.00034418768410131827,98.24106255801638,0.8877202512126303,41,1.3666666666666667
1.2237757205105222,0.8116924190711107,-0.45730385184288025,0.9999943375587463,1.325826350650958,0.9575474134446652,-0.2369079291820526,0.9999983906745911,1.1436449780844045,0.9724378569287548,-0.21927043795585632,0.9999968409538269,1.286292147370665,1.2974138381229061,0.004697209224104881,0.999991238117218,1.1752208907453734,1.2993565177703394,-0.00478306133300066,0.9999929070472717,1.2833306268210833,1.573995448767154,0.02565164864063263,0.9826831221580505,1.1933058532917746,1.5760082354279354,-0.05705396085977554,0.9853643774986267,1.2683179968280154,1.8116924190711108,0.23628315329551697,0.9790235161781311,1.195323576058598,1.873791351512988,0.03803769871592522,0.9915299415588379,1.3397641972067362,1.3015371320365443,-0.3913821280002594,0.9914286136627197,1.0874600729828316,1.3264905072957793,-0.3115171790122986,0.995563805103302,0.006203293800354004,1.2307565190580192,1.298385177946623,176.99954955750798,176.64806639860143,1.0,-0.023335339680821465,0.006165405463078866,-0.004410876880225504,0.04859546881819922,97.6370083143888,0.8941558671286133,42,1.4
1.215937245157743,0.805732880785893,-0.4567231237888336,0.9999943375587463,1.317974614190615,0.95259760220019,-0.2349470853805542,0.9999983906745911,1.1349683452805486,0.968523609966397,-0.22041304409503937,0.9999967813491821,1.2782468699479421,1.2939636739910074,0.0048041800037026405,0.9999911785125732,1.1667171850163074,1.2950899800614735,-0.004895634017884731,0.9999929070472717,1.277820333931639,1.5686293384192513,0.02883724309504032,0.9822248816490173,1.1876987355153694,1.5716339145902627,-0.0531015619635582,0.9858711957931519,1.264089753103242,1.805732880785893,0.2446746528148651,0.9780763387680054,1.1913929566796417,1.866833915559987,0.06798394024372101,0.9917699694633484,1.3314738872896759,1.2972513240477967,-0.38198283314704895,0.9916821718215942,1.080191337981877,1.3232510543789213,-0.31267380714416504,0.9954767227172852,0.006656527519226074,1.2224820274821249,1.2945268270262404,176.77469970598955,176.37822709061254,1.0,-0.031021888220709073,0.002913323643196089,-0.05680235627851216,-0.023647643455313835,97.21674140677554,0.9022734463764772,43,1.4333333333333333
1.2086432910075682,0.799948152814358,-0.45498496294021606,0.9999944567680359,1.3099251839001487,0.9474693095990965,-0.23016802966594696,0.9999983906745911,1.127277239149442,0.962227996755608,-0.21223704516887665,0.9999967217445374,1.2686476345769435,1.2895639742622558,0.0039498088881373405,0.9999911189079285,1.1586977845451767,1.2903954616022855,-0.00404477259144187,0.9999929070472717,1.27153880074149,1.5623237911446457,0.027847468852996826,0.982472836971283,1.1796262725844828,1.5685285451863,-0.03210924193263054,0.9865871071815491,1.2593569144488046,1.799948152814358,0.2472878247499466,0.9778780341148376,1.187110795332844,1.8604090187390847,0.09222287684679031,0.9921244978904724,1.322176550252519,1.2905925349004095,-0.36821892857551575,0.9920157790184021,1.0716884315203323,1.3176373284391334,-0.2960968613624573,0.995493471622467,0.006191223859786987,1.21367270956106,1.2899797179322705,176.45798925197127,177.16569414337022,1.0,-0.0332999822120285,0.0013603823048903728,-0.018316256037917877,-0.011813289863463862,97.31340279981599,0.9070335026065677,44,1.4666666666666666
1.2056575665208125,0.7965993161700758,-0.4500868320465088,0.9999945163726807,1.3061446549336564,0.9444984566456707,-0.22689096629619598,0.9999983310699463,1.1234038862688835,0.9595701300093775,-0.20532295107841492,0.9999966621398926,1.2647326374765349,1.287235940612202,0.002534099854528904,0.9999911189079285,1.154619511107556,1.2879276277160454,-0.0026353406719863415,0.9999929666519165,1.268656830725714,1.559365531318378,0.024274976924061775,0.9829415678977966,1.1761946317025005,1.5682347838764998,-0.02433077059686184,0.9872870445251465,1.2569782818475321,1.796599316170076,0.2450425624847412,0.9777168035507202,1.1851096941713342,1.8566590874665787,0.09972844272851944,0.9924684166908264,1.3177103100380718,1.2867779833314328,-0.3635147213935852,0.992322564125061,1.0687723057390315,1.3150503568634593,-0.28130385279655457,0.9955258965492249,0.006334096193313599,1.2096760742920454,1.2875817841641237,176.35555182885665,177.36906910183896,1.0,-0.013607746127931782,-0.000309784827328325,0.15019239501591763,-0.01275880781835983,97.24939693086249,0.9106575467632031,45,1.5
1.2007614882053115,0.7949573697378779,-0.4473989009857178,0.9999945759773254,1.3013263628847105,0.9425224586937514,-0.224577859044075,0.9999983310699463,1.1166027752907806,0.9545348912582275,-0.20561404526233673,0.9999966025352478,1.2578377210946838,1.286431741903562,0.0025603685062378645,0.9999908804893494,1.1490747898491263,1.2866371019856948,-0.0026624170131981373,0.999992847442627,1.2634795329169142,1.5562693701545423,0.026955824345350266,0.9821087718009949,1.1702197310419808,1.567523272491458,-0.021912511438131332,0.987373948097229,1.2541657243125108,1.7949573697378778,0.2515307366847992,0.9766393899917603,1.1826247679261235,1.8518682955452854,0.11143970489501953,0.9924106001853943,1.3127026887027045,1.2843130372657077,-0.3772810399532318,0.9924938082695007,1.061582619998364,1.3120110314171205,-0.2904680669307709,0.9954774379730225,0.005058974027633667,1.203456255471905,1.2865344219446284,176.5676281237608,178.19297047925355,1.0,-0.03135684638809291,0.013950264606851136,-0.15096812998979645,0.12109191940977161,97.315200291456,0.9152762669967021,46,1.5333333333333334
1.1962487503867387,0.7924521874963341,-0.4304533004760742,0.9999945759773254,1.2966450790219173,0.9399920624028559,-0.20694978535175323,0.9999982714653015,1.110033809697522,0.9497480562003361,-0.19374977052211761,0.9999964833259583,1.2515757529586842,1.2874400952398586,0.0031328897457569838,0.999990701675415,1.143923293073867,1.2877445394038236,-0.0032310604583472013,0.9999927878379822,1.2603349535962927,1.5549436205873794,0.037013787776231766,0.9816035032272339,1.1651631497052588,1.5685774613229413,-0.021649887785315514,0.9877029061317444,1.252532617856569,1.792452187496334,0.26892656087875366,0.9762740731239319,1.181177633558623,1.8501477487032503,0.11383557319641113,0.9925300478935242,1.3093339273339553,1.282589906785529,-0.37062472105026245,0.9927177429199219,1.0548926678849144,1.3101508666411597,-0.28832441568374634,0.9954910278320312,0.004114240407943726,1.1977495230162756,1.287592317321841,176.24303013357667,178.93008585413781,1.0,-0.029404632607741545,0.020130292162473848,0.013757312196775822,0.04465173377752667,97.55290420336645,0.9271428869974541,47,1.5666666666666667
1.2017424704933761,0.7974641835595908,-0.42744460701942444,0.9999943971633911,1.303536807855855,0.9464711839849917,-0.20428220927715302,0.9999982118606567,1.1128329740861447,0.9525125172874731,-0.19580981135368347,0.9999963641166687,1.2585572324379741,1.2985047603960678,0.003425769042223692,0.9999902248382568,1.1476823839536652,1.2984268710964129,-0.003524546977132559,0.9999924898147583,1.2688047303154195,1.5664158996694688,0.03340230882167816,0.9805933237075806,1.1685411241618802,1.5839727458648007,-0.02380288764834404,0.9876947402954102,1.2624696390144228,1.7974641835595908,0.2654654383659363,0.974022388458252,1.1896264125890184,1.8652264503233225,0.11223407089710236,0.9922938942909241,1.31842633712041,1.291784067224019,-0.3588312864303589,0.9929658770561218,1.056425315446324,1.3198761887640769,-0.291836678981781,0.9955214858055115,0.002528846263885498,1.2031198081958197,1.2984658157462403,176.23893221954347,179.89057552662047,1.0,-0.02813854035440631,0.009986853750408163,0.011718833683983123,-0.08120469676813899,97.24101949171369,0.9393083526291994,48,1.6
1.2062854590457692,0.8037533052388184,-0.446298748254776,0.9999945759773254,1.3088469289308047,0.9539509966999846,-0.21028003096580505,0.9999982118606567,1.1160211612828739,0.9550159393160773,-0.21857759356498718,0.9999964237213135,1.2629711080465131,1.311711618824067,0.005197964608669281,0.9999902248382568,1.1519831504710354,1.3116016207059538,-0.005301039200276136,0.9999926090240479,1.2796965660267654,1.5813168627186869,0.014188270084559917,0.9807305335998535,1.1730649503705293,1.6054536952079952,-0.02359241433441639,0.9878124594688416,1.275573647006992,1.8037533052388184,0.28500238060951233,0.9706310629844666,1.199709984073967,1.880568897055619,0.1529066562652588,0.9919685125350952,1.3288342762752081,1.302622270411418,-0.34271010756492615,0.9929421544075012,1.0562337376721511,1.3310126985360127,-0.33250585198402405,0.9956099987030029,0.0004420280456542969,1.2074771292587743,1.3116566197650104,175.38822909266418,178.57166535006678,1.0,-0.042953031624935724,0.016056472904603332,-0.10717699174743445,0.04400739575119634,97.25040454108822,0.9558511994775255,49,1.6333333333333333
1.205152813349614,0.8041735661490449,-0.44733160734176636,0.9999948143959045,1.3043556032040822,0.9519349561184294,-0.21243219077587128,0.9999982118606567,1.1120530098806147,0.9537687709536729,-0.21865253150463104,0.999996542930603,1.2603851708531355,1.316236756300984,0.0051652854308485985,0.9999904036521912,1.149083890612122,1.3169841722662952,-0.005270708352327347,0.9999927878379822,1.2800752247280516,1.5934606423233564,-0.01322744507342577,0.9815016388893127,1.1707154573903882,1.617256451387479,-0.01858718879520893,0.9879960417747498,1.279176542584305,1.804173566149045,0.27183979749679565,0.9676468372344971,1.2013452768429886,1.884832229703731,0.166762575507164,0.9917145371437073,1.3318168851015468,1.3058908398838873,-0.3234478831291199,0.9931167364120483,1.054707311447859,1.3326783258572565,-0.33195775747299194,0.9957887530326843,0.0007601678371429443,1.2047345307326287,1.3166104642836396,175.6929799734277,177.590147567719,1.0,-0.033964758150632046,0.025370585254235203,0.07099040989145171,0.07294001625459978,97.26693432959941,0.9685272890529525,50,1.6666666666666667
1.2060126366654023,0.8052182821815989,-0.4524722993373871,0.999995231628418,1.3053505953661142,0.9537640688097705,-0.21563942730426788,0.9999982714653015,1.1085130173269049,0.9554327851183465,-0.22657373547554016,0.9999967813491821,1.2621153716228626,1.3195910089265663,0.005157038569450378,0.9999905824661255,1.1482765505455812,1.3218565390875618,-0.005264241714030504,0.9999930262565613,1.282449106241365,1.5976411519501321,-0.024017149582505226,0.9825999736785889,1.1713649491498175,1.6255617548199957,-0.01812208816409111,0.9884320497512817,1.283999698639976,1.8052182821815987,0.2659372091293335,0.965518593788147,1.2043984446250235,1.8896251625824365,0.16069763898849487,0.9917300343513489,1.3344760621176188,1.3151986721720093,-0.31852126121520996,0.993435800075531,1.0516810112789607,1.3323181399575301,-0.3490413725376129,0.9960848689079285,0.000690460205078125,1.205195961084222,1.320723774007064,176.24540912918508,177.21692132615317,1.0,-0.013131771002632343,0.012670415790511359,0.15644908774313973,-0.09543844901072426,97.88033554532478,0.9760739129193288,51,1.7
1.2071008510545815,0.8056639206996515,-0.4555283188819885,0.9999955296516418,1.3062067191772597,0.9555559422515851,-0.21658484637737274,0.9999983310699463,1.1094055730294827,0.9581436848041626,-0.22816702723503113,0.9999969601631165,1.2646016761732517,1.322791117065909,0.005113006569445133,0.9999909400939941,1.1479890679267437,1.325267159020567,-0.005223949905484915,0.9999933242797852,1.285650920973957,1.6032074173240478,-0.0289507694542408,0.9835227727890015,1.1726294111356759,1.6330822368394926,-0.013292675837874413,0.988660991191864,1.2873093174400303,1.8056639206996514,0.2628938555717468,0.9634097814559937,1.2075935756054559,1.8939348308241375,0.17312629520893097,0.9916391372680664,1.3381826940898975,1.3182970994741119,-0.30896323919296265,0.9934142231941223,1.0485221043352901,1.3407758519914368,-0.33919838070869446,0.9962124228477478,0.0010680854320526123,1.2062953720499976,1.324029138043238,176.17650543008205,176.94241102175067,1.0,-0.015189216680076847,0.00035350937070384664,-0.016387347740597788,-0.09992725049125038,97.68001185995612,0.9829057960601084,52,1.7333333333333334
1.2073101411413099,0.8042092412326232,-0.4760105609893799,0.9999958872795105,1.3030745888143003,0.9539835047402174,-0.23207256197929382,0.9999983906745911,1.1064120360667604,0.9574519230942655,-0.24910099804401398,0.9999971389770508,1.2637750338664258,1.3214151602837674,0.005198416765779257,0.9999913573265076,1.1455882239419704,1.3250324848588562,-0.005311149172484875,0.9999937415122986,1.2846494640061414,1.6050986817542914,-0.04063579440116882,0.9847215414047241,1.1718834465412598,1.6384828216401428,-0.013003629632294178,0.9891252517700195,1.28614675068806,1.8042092412326232,0.2613181471824646,0.9631844162940979,1.2067409932838533,1.892384377457647,0.1841239035129547,0.9918150901794434,1.3402849837094142,1.317305954596733,-0.32194921374320984,0.9933689832687378,1.048000685084048,1.3395205407258153,-0.3689694106578827,0.996427059173584,0.0014327764511108398,1.2046816289041982,1.3232238225713118,176.22240892292004,176.97815711146092,1.0,-0.004372433202831183,0.002140732514692998,0.07762451078532373,0.012842795240146398,97.85809656140567,0.9853581496852348,53,1.7666666666666666
1.2055968285948293,0.8020905689545341,-0.48041024804115295,0.9999961256980896,1.2995283670909261,0.9521004756358995,-0.23269429802894592,0.9999983310699463,1.102020027047544,0.9558023058376848,-0.25117728114128113,0.9999972581863403,1.262011563170645,1.3171960981498696,0.005183545406907797,0.9999915957450867,1.142679826425727,1.3221693097922937,-0.005300671793520451,0.9999939799308777,1.2823123403843562,1.6013202956798807,-0.07747922837734222,0.9858133792877197,1.169960062250821,1.6343151603327262,-0.01194373331964016,0.9890686273574829,1.2836406708436,1.8020905689545341,0.19236354529857635,0.9640630483627319,1.204278073634289,1.8883128230470878,0.1793684959411621,0.9918635487556458,1.341123181519201,1.3148629882928369,-0.31879714131355286,0.9923107624053955,1.0462125806789764,1.3380763010294885,-0.36952275037765503,0.9965381026268005,0.0015323460102081299,1.2023456947981859,1.3196827039710817,176.29221410566973,177.29999641592823,1.0,0.0010570517607244282,-0.00622025922702581,0.04102268526352273,-0.0632432225376211,98.25350519784841,0.9818575417419807,54,1.8
1.1934016967721295,0.7932562261648056,-0.49384623765945435,0.9999963641166687,1.2857559994684755,0.9388958577020007,-0.23754450678825378,0.9999983310699463,1.0893991235549179,0.9459719911693938,-0.2587595283985138,0.9999973773956299,1.250229975585233,1.299796344001273,0.004624153487384319,0.9999919533729553,1.130815616326014,1.3060659945809596,-0.004763527773320675,0.9999942183494568,1.2696672611148212,1.5835293282317628,-0.1169697642326355,0.9869695901870728,1.157675852192852,1.6159477589000408,-0.010638576000928879,0.9890127182006836,1.2709175127620054,1.7932562261648057,0.15766263008117676,0.9651519656181335,1.1924998303341932,1.8696021322572054,0.18985939025878906,0.9919337034225464,1.3337359213024402,1.3023266457440688,-0.316184401512146,0.9919500946998596,1.0362042593816636,1.337943633311985,-0.37019187211990356,0.9965717792510986,0.0029582083225250244,1.1905227959556235,1.3029311692911163,176.4225988579086,177.13674167324302,1.0,1.5643683188632415e-05,-0.028547024632497493,-0.007801666687942015,-0.16940951558631037,98.62738189307728,0.9614797198916252,55,1.8333333333333333
1.184437517133557,0.7874505316649368,-0.48997727036476135,0.999996542930603,1.2754314365036126,0.9300155287625398,-0.23552969098091125,0.9999982714653015,1.0810246222796087,0.937895708635426,-0.2527084946632385,0.9999974370002747,1.2417428199380562,1.2873752554948241,0.004100960213690996,0.9999920725822449,1.1225956837274014,1.2944156123696973,-0.00425617303699255,0.9999942779541016,1.2606665483671158,1.5703726018240263,-0.11136779934167862,0.9879387021064758,1.1489546592551785,1.6036009968023022,-0.010627297684550285,0.9888386726379395,1.2618167484276057,1.787450531664937,0.15559276938438416,0.9659258127212524,1.1840800703455279,1.8562020592190942,0.1879490315914154,0.9918592572212219,1.3260991294082656,1.293000547778355,-0.32185831665992737,0.9916048645973206,1.029678771419291,1.331049165779361,-0.3637710213661194,0.9966362118721008,0.003317922353744507,1.1821692518327287,1.2908954339322607,176.47797021346915,176.9563601071199,1.0,0.0008032385457112055,-0.020851774954018555,0.005915946377059731,0.05627037430723263,98.76706062176963,0.9454513689046709,56,1.8666666666666667
1.1596710679755653,0.7699211354663065,-0.48950663208961487,0.9999967813491821,1.2470552030942816,0.9086532660147124,-0.23994080722332,0.9999982714653015,1.0567701270558685,0.9174055415529836,-0.25377845764160156,0.9999974370002747,1.2160143832385921,1.2586122517441027,0.0023584095761179924,0.9999919533729553,1.099491436906467,1.2669666178145753,-0.0025132359005510807,0.999994158744812,1.23304970472151,1.5358719093312578,-0.07855748385190964,0.9886507391929626,1.1250968175906342,1.5693182066280587,-0.001839816803112626,0.988375186920166,1.2356674097867986,1.7699211354663065,0.14976802468299866,0.9677748084068298,1.1594636920606283,1.818531935163144,0.18421484529972076,0.991735577583313,1.3019809875376918,1.2661486196367386,-0.34777742624282837,0.9917197823524475,1.0085828815756688,1.3026219676384063,-0.35905033349990845,0.996737539768219,0.003763347864151001,1.1577529100725297,1.2627894347793391,177.12485971096714,176.9890459606637,1.0,0.0012323532206924863,-0.009871208519614125,0.003462939197441718,0.08192674423585396,99.16971012807846,0.9248368557583317,57,1.9
1.140341593792752,0.7568279988460277,-0.49772757291793823,0.9999969601631165,1.2243133844299046,0.8918136648146511,-0.24459803104400635,0.9999982714653015,1.0372620766786529,0.9017022863178649,-0.26064616441726685,0.9999974370002747,1.1955335766014534,1.2373006151021289,0.0019526274409145117,0.9999918937683105,1.0810242417313074,1.2458496584484524,-0.002100706333294511,0.9999940395355225,1.2098205932818589,1.5097586837847403,-0.06725408136844635,0.989293098449707,1.1050013961320668,1.542155897734723,0.00711870426312089,0.9879868626594543,1.2147150275730974,1.7568279988460276,0.16630230844020844,0.9695644378662109,1.1400315693464727,1.7877030268333993,0.2037827968597412,0.9915961027145386,1.284492331903042,1.2462789230663776,-0.34411823749542236,0.9918518662452698,0.99334353665804,1.2824161901715845,-0.35732004046440125,0.9967126846313477,0.004325151443481445,1.1382789091663803,1.2415751367752905,178.13318138886518,176.5071761004394,1.0,0.0009138402893680093,0.001201907251431141,-0.002306920332071723,0.08452447835355151,99.03153765686369,0.9109632807943154,58,1.9333333333333333
1.1133709186015683,0.7387144092957757,-0.5033267736434937,0.999997079372406,1.1946098516396897,0.8703511111093374,-0.2508142590522766,0.9999982714653015,1.0106471639378305,0.8803095975726414,-0.26301634311676025,0.9999973773956299,1.1671482886092055,1.2067554245157208,0.0005462648696266115,0.9999917149543762,1.0547584394251825,1.2158895466155633,-0.0006966551300138235,0.9999937415122986,1.1781832243913943,1.4744107164972775,-0.0788804367184639,0.9897737503051758,1.0767849443956459,1.5074553959283556,0.0015361313708126545,0.9867119789123535,1.1836150898187343,1.7387144092957758,0.12366602569818497,0.9712802767753601,1.112859698293551,1.7453971216021908,0.1922347992658615,0.9909456968307495,1.2577251401332952,1.219724829649767,-0.3314017653465271,0.9918403029441833,0.975510112863556,1.2542526199874502,-0.3555977940559387,0.9967116117477417,0.004462063312530518,1.110953364017194,1.2113224855656421,178.81649189984026,175.699178613077,1.0,-0.0014840849116953942,-0.005032034872412901,-0.018128927311343225,-0.0473436573572205,99.31317371146815,0.8883000312850645,59,1.9666666666666666
1.105819046886811,0.7332480202151666,-0.4990745484828949,0.9999972581863403,1.1866087731688262,0.8638700926132156,-0.24859631061553955,0.9999982118606567,1.0044417512730255,0.8665986460340497,-0.26926717162132263,0.9999973773956299,1.1593190116148961,1.1960003498128475,0.0018793109338730574,0.9999910593032837,1.0476016286905718,1.2058718622857627,-0.002029435709118843,0.9999932050704956,1.1677202004501595,1.4647364078289384,-0.05420496314764023,0.9900685548782349,1.0697072114024193,1.4967174661501907,-0.000581293017603457,0.9854158759117126,1.1745772192045139,1.7481495455207179,0.12210480123758316,0.9731893539428711,1.1051486162973156,1.7332480202151666,0.18611280620098114,0.9901154637336731,1.2507016733154888,1.2132373514517365,-0.3024592399597168,0.9917208552360535,0.9781732239401979,1.2457770799134769,-0.3613380789756775,0.996856689453125,0.0012311041355133057,1.103460320152734,1.2009361060493051,179.59537878640688,175.82466144344835,1.0,0.0014605978261921619,-0.014171416348371364,0.020870904513972166,-0.06525184190361832,99.74682882032367,0.864513472337334,60,2.0
1.1061367393098391,0.7330975737013546,-0.4801940321922302,0.9999974370002747,1.1868172099688656,0.8637107959416783,-0.22308692336082458,0.999998152256012,1.0050062381517875,0.8656481130325501,-0.2635388970375061,0.9999973773956299,1.1610964645498443,1.1962298093779566,0.004334763623774052,0.9999890923500061,1.0502530293155823,1.2075208872261154,-0.00448481272906065,0.9999913573265076,1.1652249435997513,1.4663321074070201,-0.049411240965127945,0.9895820617675781,1.0696115400888337,1.4978817755167417,-0.002981179393827915,0.9805889129638672,1.174264039737684,1.7641317597504924,0.08419297635555267,0.9746301770210266,1.1044734743008815,1.7330975737013548,0.1835060715675354,0.986565887928009,1.2509294162684053,1.2146159965719057,-0.2910766303539276,0.9915285110473633,0.988106337754861,1.244746537153835,-0.3730279505252838,0.9969839453697205,0.0008743107318878174,1.1056747469327133,1.2018753483020361,179.1371286659166,175.38371458775902,1.0,0.018245000614753742,0.009016642606474988,0.12370664316872465,0.17087549188468165,100.23946794716468,0.8557797708857048,61,2.033333333333333
1.1083131538089928,0.7333915722485976,-0.46094292402267456,0.9999975562095642,1.1874133665311883,0.8640743083820577,-0.20591223239898682,0.9999980330467224,1.0057773039169127,0.8660817808056495,-0.2579638659954071,0.9999972581863403,1.164070860546684,1.1989083968265648,0.0066811563447117805,0.9999867081642151,1.053597591640756,1.2099647197933623,-0.006842079106718302,0.9999887347221375,1.1643367798036637,1.474023202478954,-0.044411249458789825,0.9885173439979553,1.0699508993896538,1.4989622808131131,-0.005888494197279215,0.9739312529563904,1.1742786989692293,1.7700845987835878,0.07879127562046051,0.9756602644920349,1.1045966250579429,1.7333915722485977,0.18199482560157776,0.9818984270095825,1.2509910545184675,1.2160289470218297,-0.2879520058631897,0.9913798570632935,0.9979210609504638,1.2448618336116921,-0.3768729567527771,0.9970294237136841,0.0009057819843292236,1.10883422609372,1.2044365583099637,178.13207678710228,174.83195358258553,1.0,0.02295040512727728,0.01810258120437205,0.036855278417748036,0.0712090611249387,99.70305851406138,0.8593228078312034,62,2.066666666666667
1.1108550866408213,0.7345728042021958,-0.46702489256858826,0.9999975562095642,1.1879139301463704,0.8659775764671962,-0.2098526507616043,0.9999979138374329,1.0061761241926872,0.8662684119260773,-0.2658642828464508,0.9999971389770508,1.1658578727678774,1.2023196010810464,0.008728217333555222,0.9999852180480957,1.0562432304115843,1.212364722200603,-0.008892382495105267,0.999987006187439,1.1633649596523612,1.4842087973960383,-0.0434480682015419,0.9875584244728088,1.0703699582959658,1.4998487682041393,-0.006815371103584766,0.9667952656745911,1.1745643050941925,1.7754533551325586,0.07762373983860016,0.9767932295799255,1.1049102697951454,1.7345728042021957,0.18207350373268127,0.9779675006866455,1.2506788913579585,1.2174797792716112,-0.29215940833091736,0.9909881353378296,1.0060821080959157,1.240808588644626,-0.4198726713657379,0.9970968961715698,0.00013118982315063477,1.1110505515897309,1.2073421616408246,177.29117975955197,174.4420448081339,1.0,0.01514131432725632,0.020403193240221405,-0.0620675237592973,0.018230362653678233,98.98785120290223,0.8620510184103428,63,2.1
1.1147263225272055,0.7363650685541245,-0.42660173773765564,0.999997615814209,1.1899581464876898,0.8679071352295303,-0.16672877967357635,0.9999977350234985,1.009745845832883,0.8673605699728529,-0.24065753817558289,0.9999970197677612,1.1671390470214111,1.209404467416999,0.012061712332069874,0.9999837279319763,1.0582320174805644,1.217184424371678,-0.012232634238898754,0.9999853372573853,1.162404352733534,1.4910351789875553,-0.04650069773197174,0.987059473991394,1.0715358285298333,1.503584618870602,-0.013511779718101025,0.9633350968360901,1.1756436129974064,1.781579057714619,0.05792156606912613,0.9781782627105713,1.1056097807138392,1.7363650685541245,0.1882937252521515,0.97431880235672,1.2508299339452342,1.2186294095759238,-0.26510530710220337,0.9907099008560181,1.0132893268054146,1.2396537855662593,-0.39571845531463623,0.9972251057624817,0.00024628639221191406,1.1126855322509877,1.2132944458943387,176.42784924196437,174.33187800604324,1.0,0.0036972389790845277,0.03673298903284428,-0.08978703655293764,0.12777449519406858,97.9089417876548,0.8728739893949553,64,2.1333333333333333
1.1183361325904684,0.737015225200926,-0.4421268403530121,0.9999976754188538,1.192376180445355,0.8687424523478183,-0.1809459626674652,0.999997615814209,1.012062409920457,0.8687362305506787,-0.2473391741514206,0.9999968409538269,1.168401875143755,1.2133331788915604,0.012531274929642677,0.9999819993972778,1.0592756570532178,1.219411609939652,-0.012693378143012524,0.9999830722808838,1.1611947836188024,1.4946051392706268,-0.058735452592372894,0.9868131875991821,1.0735476654195493,1.503605299779755,-0.01334496308118105,0.9592980146408081,1.1764851810360948,1.7889697465114085,0.035762012004852295,0.9796594381332397,1.1056493587081166,1.7370152252009259,0.1865723431110382,0.9718828797340393,1.2515432208059545,1.2208827340165176,-0.2586657404899597,0.9907374978065491,1.021845722597203,1.2371593524697722,-0.4241715371608734,0.9973722696304321,2.8014183044433594e-06,1.1138387660984863,1.2163723944156062,175.55873471268663,175.0439762212677,1.0,0.0022561352822672745,0.01655797751291145,-0.011182370952230966,-0.15645963252452375,97.16797523740492,0.8758966208667152,65,2.1666666666666665
1.1215651779367826,0.7377717657772168,-0.4498678743839264,0.999997615814209,1.1946602798583905,0.8696617507607614,-0.19169574975967407,0.9999974370002747,1.0141576340893153,0.8696919638905394,-0.26722031831741333,0.9999964833259583,1.1697164259245616,1.215960933893142,0.013669973239302635,0.9999800324440002,1.0603847165027824,1.2210444254920367,-0.013826941139996052,0.9999803304672241,1.161336522850402,1.4958935321109914,-0.06451216340065002,0.9856433272361755,1.0752803857951645,1.5025457212112603,-0.015856970101594925,0.9513957500457764,1.1773835376606663,1.79222987209245,0.017579833045601845,0.9807536005973816,1.1061102344591875,1.737771765777217,0.1804618537425995,0.9671754240989685,1.252688571009071,1.223322468974561,-0.26898840069770813,0.9902960658073425,1.0257731910948655,1.2377081591882102,-0.42833614349365234,0.9973599314689636,1.3589859008789062e-05,1.115050571213672,1.2185026796925893,175.18572137932097,175.56208978046118,1.0,0.0005862442655417604,0.006916909264031618,-0.013007166846674464,-0.07512454057863172,96.78199676793226,0.8786864126857707,66,2.2
1.1227802857510316,0.7378091263575242,-0.3999214768409729,0.9999970197677612,1.1976792609691078,0.8703671175010961,-0.15727566182613373,0.999997079372406,1.0164370220716297,0.8698817638830516,-0.22234682738780975,0.9999958276748657,1.171480369616161,1.220324104900256,0.013098451308906078,0.9999786615371704,1.061330475853939,1.2258599853207863,-0.013249014504253864,0.9999781847000122,1.161842207530051,1.497080622834917,-0.07759768515825272,0.9857192635536194,1.0770006060791186,1.5070711549607214,0.0030728038400411606,0.9481745958328247,1.1779809938836168,1.7968637741269615,0.01745135337114334,0.9820185303688049,1.10611201669961,1.7378091263575242,0.2121330052614212,0.9650757908821106,1.2520875009417185,1.2248965666714529,-0.22277185320854187,0.9899886846542358,1.0324894055422016,1.2373338111112384,-0.37570124864578247,0.9973195195198059,0.00021830201148986816,1.1164054227350502,1.2230920451105212,174.9239204071508,175.99861883632457,1.0,0.009877288715881814,0.0343400329077016,0.07037075361772865,0.20770208057937367,97.15849102378081,0.890748852138045,67,2.2333333333333334
1.126081839118538,0.7389465533516175,-0.4284537732601166,0.9999958872795105,1.2032469242375496,0.8718955690120715,-0.177200049161911,0.9999967217445374,1.0197184457617814,0.8702654441128096,-0.23619404435157776,0.9999951720237732,1.1748340144765497,1.22229278752685,0.012652704492211342,0.9999772906303406,1.0649246813810591,1.2283816663640543,-0.012802915647625923,0.9999761581420898,1.1639021436633508,1.4994839663240245,-0.0816924199461937,0.9856256246566772,1.0819992509017318,1.5115831509695805,0.0008403953979723155,0.9441553354263306,1.1810730049617806,1.802182578235908,0.018725331872701645,0.9830856919288635,1.1082214729469877,1.7389465533516175,0.21010422706604004,0.9624963402748108,1.2526684303126252,1.2299204766622178,-0.24337895214557648,0.9889973998069763,1.0403915140067042,1.2369430738405967,-0.3965567648410797,0.9971760511398315,0.0007320642471313477,1.1198793479288043,1.2253372269454523,174.4948612765211,176.8713010012227,1.0,0.01325638907543707,0.0026824930115430575,0.025520307704335343,-0.24057900568691976,97.80673478144598,0.8912376215266898,68,2.2666666666666666
1.1275642709260358,0.7361256905185294,-0.4343009889125824,0.9999955296516418,1.2021844878049104,0.8709050375767275,-0.17751513421535492,0.9999964237213135,1.0198232762746462,0.8665826292216479,-0.24963398277759552,0.9999949336051941,1.1741727274202636,1.2203821495723,0.013445441611111164,0.9999769330024719,1.065217142181487,1.226694231655201,-0.013600434176623821,0.9999756813049316,1.163396150550676,1.5024698861221963,-0.07614187151193619,0.9859686493873596,1.0835868974450606,1.5136959727935948,0.0006244458490982652,0.9432570934295654,1.1805425714464564,1.8050795402493767,0.040809277445077896,0.9841944575309753,1.1064102177698127,1.7361256905185294,0.21036458015441895,0.9623522758483887,1.2487949315219578,1.2276637314281607,-0.22554954886436462,0.9877724051475525,1.0428798303176674,1.234164599678931,-0.39820125699043274,0.9971717596054077,0.0019446909427642822,1.1196949348008753,1.2235381906137504,174.56918068560148,177.8036956762345,1.0,0.013400459834334287,0.003201223601044281,0.0012080715673582383,0.0037574276477402254,97.89823990336117,0.8902317080144617,69,2.3
1.1246882738726254,0.7306295705015795,-0.4240690767765045,0.999994158744812,1.1992040869413827,0.8677901880711075,-0.172195702791214,0.999995768070221,1.0177249054406283,0.8627751256651878,-0.25183066725730896,0.9999945759773254,1.1703839381308947,1.2166291494680312,0.013609768822789192,0.9999761581420898,1.0635794303670743,1.223255776825039,-0.01376754604279995,0.9999750256538391,1.159118420930236,1.503733258688171,-0.07497875392436981,0.985746443271637,1.0828894459714407,1.5111658004647994,0.004349777940660715,0.9390937685966492,1.1770822111214738,1.803628818354371,0.04042786359786987,0.9850605726242065,1.1027228177554769,1.7306295705015795,0.21382156014442444,0.9607509970664978,1.243664622698986,1.2254287638218841,-0.22713175415992737,0.984083890914917,1.0431325845990784,1.2291778228132233,-0.40214604139328003,0.9971425533294678,0.0022655129432678223,1.1169816842489846,1.219942463146535,174.32502568537575,178.6731549861076,1.0,0.014494396400438252,0.010839560503757862,0.009099627870922023,0.06063246717884106,98.27323341929527,0.8935575348506574,70,2.3333333333333335
1.1236298546945025,0.7263496498930737,-0.4278554916381836,0.9999932646751404,1.203078603131678,0.8656765289485524,-0.17841370403766632,0.9999954104423523,1.0177093790008507,0.8599958640599977,-0.2480892688035965,0.9999940991401672,1.169695433169291,1.2159454308656963,0.011682191863656044,0.9999756813049316,1.0626171048893867,1.223681033990266,-0.011844837106764317,0.9999740719795227,1.1574866437570868,1.5037523585520367,-0.07941623032093048,0.9857650995254517,1.0810224328015057,1.5100405143097995,0.01933925598859787,0.9361310601234436,1.174529428226698,1.8010245600068029,0.03495612367987633,0.9859906435012817,1.0999866128230988,1.7263496498930737,0.2615426480770111,0.9583893418312073,1.2424103131546322,1.2228995229847428,-0.26595306396484375,0.9837625622749329,1.0420494254044652,1.2235545337247602,-0.4140891134738922,0.9972158074378967,0.0025722384452819824,1.116156269029339,1.2198132324279811,174.28975752630825,178.66713728313988,1.0,0.013294489928620477,0.020224953280943054,-0.00861246471146352,0.06952117517660003,99.57626977351786,0.9067306841916429,71,2.3666666666666667
1.1293519392461278,0.7221191889706058,-0.4461049437522888,0.9999926090240479,1.207298696813355,0.8643348428230375,-0.1834264099597931,0.9999948740005493,1.0178653612984503,0.855884604860909,-0.2497585564851761,0.9999936819076538,1.1693573590054347,1.2144052313556468,0.011084684170782566,0.9999744892120361,1.060727653940746,1.222238386877769,-0.011249984614551067,0.9999727010726929,1.1561095695549357,1.5014418084228107,-0.07982608675956726,0.9852036833763123,1.0793767381932962,1.5092915228603714,0.014001269824802876,0.9317728281021118,1.172776775043454,1.794421721932704,0.04103236645460129,0.9863232970237732,1.0981732099352441,1.7221191889706058,0.2528563439846039,0.9548394083976746,1.2418860657252266,1.2254290007588189,-0.30056053400039673,0.9827790856361389,1.041617417035234,1.2198102716266663,-0.4287916123867035,0.9972701668739319,0.0038325488567352295,1.1150425064730902,1.218321809116708,174.1015001760227,178.66998978278227,1.0,0.005435283919114879,0.0038138946823352846,-0.0607673186962504,-0.1269851727477286,100.31007780673208,0.9187018808971865,72,2.4
1.1246416206744632,0.7081939246612305,-0.46099695563316345,0.9999929666519165,1.2048539186609153,0.8561040430155588,-0.1949998438358307,0.9999948740005493,1.0119448909766706,0.847036226284119,-0.2566702961921692,0.9999936819076538,1.1654993085034324,1.2057826506399227,0.009380100294947624,0.9999741315841675,1.0543636125861633,1.2128294354970672,-0.00954261515289545,0.9999718070030212,1.1480939611299004,1.4884932024459694,-0.11155001819133759,0.9857534766197205,1.0718765275411473,1.498714208843046,0.02808254584670067,0.9309828877449036,1.1634924233959099,1.7802482972703781,0.026591043919324875,0.9870094060897827,1.0893561291421179,1.7081939246612305,0.29443925619125366,0.9522557258605957,1.2441949687838878,1.2181521401971969,-0.3025229573249817,0.9836850166320801,1.0345220224739318,1.20970880217044,-0.4647790491580963,0.9974583983421326,0.004145294427871704,1.1099314605447979,1.209306043068495,173.45578178680563,178.7356036581383,1.0,0.028713799944654454,0.004531624049733138,0.1824329481862883,0.005849462430376775,100.04943630895018,0.9367614389753265,73,2.433333333333333
1.1302068517379693,0.7024992862298187,-0.435793399810791,0.9999929666519165,1.2064918740886612,0.8532667560195161,-0.18617136776447296,0.999994695186615,1.0127154942984657,0.841800074681359,-0.2345847189426422,0.9999933838844299,1.1683334109229464,1.2040395648427247,0.007675014436244965,0.9999734163284302,1.0547157176263309,1.211271350843844,-0.007851011119782925,0.9999706149101257,1.1491015611138657,1.4864328973014116,-0.10562459379434586,0.9860978722572327,1.0714842545716288,1.4966367018836697,0.025412654504179955,0.9289832711219788,1.1618972711353293,1.775867112758109,0.0355265848338604,0.9873601198196411,1.087550903940695,1.7024992862298187,0.2845120131969452,0.9493979215621948,1.2552888172966454,1.2173040680505398,-0.29920631647109985,0.9841644167900085,1.031821486159044,1.2069630112409444,-0.44003573060035706,0.9975849986076355,0.005248546600341797,1.1115245642746385,1.2076554578432843,173.57263481902447,178.900295119694,1.0,0.02349895889899426,-0.0009713206176707819,-0.04063900727590302,-0.043139496456916254,99.85042309271,0.9507380458523786,74,2.466666666666667
1.130547485486888,0.6987338695490604,-0.4368085265159607,0.9999929666519165,1.2093947743428373,0.8494695310523867,-0.1884237378835678,0.999994695186615,1.0138689088908621,0.839799262607957,-0.23217785358428955,0.9999930262565613,1.1728749233618165,1.202887815231455,0.005270793568342924,0.9999727606773376,1.0578104327858409,1.210134482446343,-0.005449612624943256,0.9999693632125854,1.1517026167841005,1.4842524797461807,-0.10100685060024261,0.9867168068885803,1.0720084694951404,1.4955110062320245,0.02400129660964012,0.9305054545402527,1.1609816921919094,1.7730921646370343,0.04214683175086975,0.9879531860351562,1.0866457770148945,1.6987338695490604,0.2852625548839569,0.9490815997123718,1.2633427207517984,1.2162661877018746,-0.30272558331489563,0.9850389957427979,1.0291629757162353,1.2065932518843365,-0.4008748531341553,0.997673749923706,0.004429847002029419,1.1153426780738287,1.206511148838899,173.8566669111693,178.72856249108125,1.0,0.035358764001940025,-0.00131018974301288,0.08916237138350491,-0.0025494358306211613,99.5033005852735,0.9594559219098842,75,2.5
1.131882671896571,0.6959792504995472,-0.44031280279159546,0.9999932646751404,1.21399393512995,0.8477819037109443,-0.1908234804868698,0.9999948740005493,1.0165578347278645,0.8389624937312491,-0.2334204465150833,0.9999929070472717,1.177179897918957,1.2034479822563753,0.005109173711389303,0.9999722838401794,1.0610468931211168,1.2107216862067691,-0.005287490785121918,0.9999682307243347,1.1577371358461108,1.4847084139005613,-0.09727917611598969,0.9870349764823914,1.0742065180428062,1.4961468338055837,0.02095912955701351,0.9311378002166748,1.1618459993782024,1.7734860087728663,0.05139508098363876,0.9882784485816956,1.0861651205917597,1.6959792504995472,0.2878902554512024,0.9466456770896912,1.2740569012503131,1.2186106781499595,-0.2958517372608185,0.985871434211731,1.023491541938269,1.210331500401773,-0.38872700929641724,0.9977161884307861,0.004037708044052124,1.1191133955200367,1.2070848342315723,175.23041444011614,179.2150962548157,1.0,0.024207040383584653,-0.0010442460939032643,-0.08679156162589155,0.002071913506885225,99.49338559109644,0.9689057452592923,76,2.533333333333333
1.1329850923871614,0.6936166962761401,-0.4469302296638489,0.999993622303009,1.215792912416129,0.8476569459575738,-0.19375917315483093,0.9999950528144836,1.0182497406048518,0.8394288966651318,-0.23581817746162415,0.9999929070472717,1.1796132682589617,1.2046435804441669,0.005250147543847561,0.9999721646308899,1.063250970296209,1.2119145949049983,-0.0054266671650111675,0.9999673366546631,1.1624245681776209,1.4858426487721268,-0.10868237912654877,0.9872228503227234,1.0763770620790165,1.497655636111454,0.020084192976355553,0.9307886362075806,1.1631115531425424,1.7769702203552173,0.025233114138245583,0.9888179302215576,1.087017248392571,1.69361669627614,0.30446359515190125,0.9418585300445557,1.276834999922452,1.221473604254693,-0.3059503436088562,0.9866734743118286,1.0212165094829602,1.213024119284884,-0.39729127287864685,0.9978128671646118,0.0037629008293151855,1.1214321192775853,1.2082790876745826,176.36686201080724,179.5221853868835,1.0,0.008334458702255172,-0.0008375379955989821,-0.11956432604464168,0.0015630120702119234,99.36255051359221,0.9767811091547711,77,2.566666666666667
1.1343752124041204,0.6892672145006774,-0.4309360384941101,0.9999939799308777,1.2184436798602087,0.8434271029710412,-0.1801946461200714,0.9999952912330627,1.0190011064727318,0.8394526247658952,-0.22353632748126984,0.9999929666519165,1.1798162534516585,1.204644018351325,0.00529421167448163,0.9999724626541138,1.0632110100651286,1.2121027875957493,-0.005473478697240353,0.9999666810035706,1.1653705249974926,1.485112536142506,-0.1407601535320282,0.9878025054931641,1.0760928576888646,1.5018441972481353,0.02125989831984043,0.9324730634689331,1.1630026120941463,1.7773361618475247,0.007839841768145561,0.9893909096717834,1.0868228214513775,1.6892672145006773,0.352231502532959,0.9335342645645142,1.281787305038677,1.221223579371188,-0.3009722828865051,0.9874234795570374,1.0141020370007245,1.2133305363600337,-0.3843670189380646,0.9979075789451599,0.0018176138401031494,1.1215136317583936,1.2083734029735371,177.51580837103162,179.26907741829461,1.0,0.0005393579064915937,0.0006310036789038144,-0.059904460944803305,0.011285518481203518,99.76383281789023,0.9891874023173785,78,2.6
1.134947053197853,0.6855282303649607,-0.4314084053039551,0.9999942779541016,1.2211450388744065,0.8402543902263849,-0.17830424010753632,0.9999955892562866,1.02119723030852,0.8395040405998261,-0.22043481469154358,0.999993085861206,1.1827848561939591,1.2055263220667705,0.005373286549001932,0.999972939491272,1.064916094188072,1.213039073057189,-0.005550790578126907,0.9999665021896362,1.1691672455214628,1.4851759512195186,-0.14502757787704468,0.9882228374481201,1.0745790045226928,1.5119355318475285,0.008770761080086231,0.9342301487922668,1.162716963011211,1.777556301639898,0.03020291030406952,0.9895775318145752,1.0847960903871172,1.6855282303649608,0.3708493411540985,0.9218801259994507,1.2854758043040206,1.2210059573054777,-0.2849988341331482,0.9880672693252563,1.0059155940418865,1.2245291398046105,-0.37387028336524963,0.9979778528213501,0.00034311413764953613,1.1238504751910157,1.2092826975619797,178.47598218923753,178.48329647404663,1.0,0.016924550450517724,0.005953612019523208,0.1251062410752925,0.0406394619333425,99.64212203085485,1.0030832041445303,79,2.6333333333333333
1.137996080679349,0.6813144545141587,-0.4321068823337555,0.9999945759773254,1.2274150911881156,0.8381042057285234,-0.19402654469013214,0.9999958276748657,1.02572377650619,0.840947765132475,-0.22105352580547333,0.9999932050704956,1.1885094165377348,1.2087072227741962,0.002386904088780284,0.9999735951423645,1.0683633137576414,1.216257155949178,-0.0025569116696715355,0.9999667406082153,1.1745966646826969,1.4911378759707794,-0.12762290239334106,0.9886868000030518,1.0734777213779676,1.5224742743937456,-0.008255606517195702,0.9373871684074402,1.1658975189398544,1.782053071585239,0.07975669205188751,0.9897853136062622,1.0866274682323038,1.6813144545141587,0.37338292598724365,0.9117089509963989,1.2913668820280302,1.2240069237672007,-0.2838138937950134,0.9885727763175964,1.000643483234148,1.2296906444712983,-0.37069612741470337,0.9980326294898987,0.0012968182563781738,1.128436365147688,1.212482189361687,178.89263269457481,176.22436140551147,1.0,0.012300858024768262,-0.0002297519403475796,-0.036236053616087574,-0.04811357783372138,99.58864030880294,1.0231996211413117,80,2.6666666666666665
1.1443906573253508,0.6822334735012873,-0.4634663462638855,0.9999948143959045,1.2366356140569468,0.8395724017177835,-0.22107677161693573,0.9999960660934448,1.0339955559602831,0.8449013701305169,-0.22542929649353027,0.9999932646751404,1.1979317692952294,1.2161012444165957,0.0007984449039213359,0.9999743700027466,1.075485949726924,1.2228220737076763,-0.0009632031433284283,0.999967098236084,1.1842322393745601,1.5050537719600754,-0.1060648113489151,0.9890742301940918,1.0737208920822914,1.5307680548565057,-0.019468246027827263,0.9403652548789978,1.1732030782815723,1.7929536426627812,0.12130139023065567,0.9898825883865356,1.0897310728059157,1.6822334735012872,0.3799273669719696,0.9013935923576355,1.3007673348944566,1.2314905482790441,-0.29950571060180664,0.9889963269233704,0.999410551619142,1.2422726210267712,-0.3730735182762146,0.9979903697967529,0.0024154484272003174,1.1367088595110768,1.219461659062136,179.47945427436005,173.6377339670749,1.0,0.010429655422514526,-0.0037196080059792073,-0.015220636130065104,-0.027273119098510257,99.01059762107434,1.0369045495496392,81,2.7
1.1514463770147245,0.6870145399051796,-0.48050594329833984,0.9999951720237732,1.247611573557261,0.8421513980026483,-0.2359955757856369,0.9999963045120239,1.0429506801826367,0.848335905248182,-0.22866113483905792,0.9999934434890747,1.2068827392782453,1.2238990017343965,-0.0010018215980380774,0.9999755024909973,1.0827602691467695,1.2292372553562367,0.0008404518594034016,0.9999682903289795,1.191705099803068,1.5169686491090877,-0.06971101462841034,0.9895787239074707,1.079810293072559,1.5396049409088253,-0.026613961905241013,0.9442413449287415,1.1809696962718452,1.8043542091555405,0.15792536735534668,0.9900954961776733,1.096562051639603,1.6870145399051797,0.3634527623653412,0.8987986445426941,1.310794981427486,1.2390125832249212,-0.33290010690689087,0.9896276593208313,0.9987717807901354,1.2572184183382127,-0.3594197928905487,0.9979004263877869,0.002785205841064453,1.1448215042125074,1.2265681285453167,179.17469788821808,172.97210277461377,1.0,0.005468150642845029,-0.005714848565290595,-0.036474395008910004,-0.014296395262470025,98.5525337677118,1.0393726746529628,82,2.7333333333333334
1.1544070008570322,0.68863016312808,-0.4784643054008484,0.9999954700469971,1.2529565488116872,0.8387006446718952,-0.23166866600513458,0.999996542930603,1.0480581677771281,0.849826602927605,-0.22872388362884521,0.999993622303009,1.2106234305547778,1.227098673895924,-0.00038604155997745693,0.9999764561653137,1.0856137760032571,1.2299373111058793,0.00022203412663657218,0.9999693036079407,1.1959568728861176,1.526735344258083,-0.04261024668812752,0.9897594451904297,1.0830528979181469,1.5429952015220085,-0.04003271088004112,0.9469854235649109,1.1842916531856835,1.809058450977306,0.19692856073379517,0.989798367023468,1.099294242330703,1.68863016312808,0.34832850098609924,0.8945850133895874,1.3134461958147419,1.237056597303414,-0.33837011456489563,0.9901766777038574,0.9975103200852096,1.2599666158215739,-0.3597854673862457,0.9978032112121582,0.0049971044063568115,1.1481186032790174,1.2285179925009018,179.56377428673397,173.167934679623,1.0,0.001590072356147793,-0.010536506572995477,-0.030106713002705676,-0.03717067261548849,97.52116249949208,1.0375839752666942,83,2.7666666666666666
1.155871221487831,0.6899308098139347,-0.4991069734096527,0.9999957084655762,1.2557675771310242,0.8355391660271986,-0.24017798900604248,0.9999967217445374,1.0505401843901707,0.8515121759518504,-0.24474212527275085,0.9999937415122986,1.2130851399305174,1.22761702000937,-0.0001837756863096729,0.9999775290489197,1.0875083556283034,1.2264813990552357,1.9756340407184325e-05,0.9999706745147705,1.198653766693309,1.5310130079251505,-0.03899242356419563,0.9900414347648621,1.0851597394054355,1.5417144605946709,-0.06019628793001175,0.9503461122512817,1.1862655007873035,1.8079600089126702,0.21393287181854248,0.9894699454307556,1.1011878552637666,1.6899308098139347,0.32564133405685425,0.8950157761573792,1.31679862842727,1.2364463333349287,-0.36372923851013184,0.9906266331672668,0.9954929461745979,1.2688911649168373,-0.35920241475105286,0.9976641535758972,0.007161319255828857,1.1502967477794104,1.227049209532303,179.83793518258472,173.40114953344928,1.0,0.0009564266398892601,-0.027316417469185533,-0.0047474848494389555,-0.12501959210582203,95.69475048527742,1.0291365848509235,84,2.8
1.1397320865246632,0.6794530383279955,-0.48999732732772827,0.9999959468841553,1.2409197857564067,0.8178779768473954,-0.23298053443431854,0.9999969005584717,1.0385421550964262,0.8399754747258239,-0.2341572344303131,0.9999938607215881,1.1981490626678661,1.2094379368621908,-3.34426476911176e-05,0.9999789595603943,1.074043467693617,1.2076997123223943,-0.00013484062219504267,0.9999725818634033,1.1832886740844744,1.5148708273846392,-0.03714510053396225,0.9906812310218811,1.0719226184137565,1.517501142687646,-0.05578215792775154,0.9544726610183716,1.1714644666488179,1.786955621438908,0.21274280548095703,0.9900406002998352,1.0877607747139932,1.6794530383279955,0.29802605509757996,0.902681827545166,1.2997595661765506,1.2138202638009816,-0.35204023122787476,0.9910398721694946,0.9807353564299142,1.252471665219897,-0.3381834328174591,0.997428297996521,0.010030895471572876,1.1360962651807416,1.2085688245922925,179.70293749964327,174.02226425561688,1.0,-9.440649302969112e-05,-0.027250046424309598,-0.008465138894069791,-0.002204417651959783,95.43136249915793,1.0084823634145612,85,2.8333333333333335
1.1122207690325778,0.6626297840849245,-0.497100830078125,0.9999960660934448,1.214426459485481,0.7962752335627671,-0.2399693727493286,0.9999970197677612,1.0148141320843556,0.8200719890095505,-0.2342056930065155,0.9999939203262329,1.1701452460590862,1.1816286726097143,-0.00033546623308211565,0.9999803900718689,1.0488527637531186,1.1797933819601332,0.00015904565225355327,0.9999744892120361,1.1556933103226088,1.4822606208931812,-0.04078812152147293,0.9912206530570984,1.0473576695669955,1.4772819764952723,-0.04449082165956497,0.9582679867744446,1.144310326392979,1.7457458605421554,0.21308240294456482,0.9905142784118652,1.0636969773120901,1.6626297840849245,0.27008649706840515,0.9109194278717041,1.2658280669907385,1.1790382022541095,-0.40136122703552246,0.9915664196014404,0.9570374968467367,1.2243815675347385,-0.3471272587776184,0.9972505569458008,0.011057108640670776,1.1094990049061024,1.1807110272849237,179.7215353914426,174.67417251327132,1.0,-0.0031585766679078746,-1.1327241500254324e-05,-0.02354459499935902,0.20432675641391917,95.68826073731451,0.9896479127203366,86,2.8666666666666667
1.0689088829429336,0.6367094284351942,-0.526155948638916,0.9999963045120239,1.1696337915472432,0.7657412490225493,-0.2600373327732086,0.9999971985816956,0.9765775523369588,0.7882260220582546,-0.23902249336242676,0.999994158744812,1.1243261869881387,1.1360237257386476,-0.0015628424007445574,0.9999817609786987,1.0075851102619922,1.1337815916550595,0.001389415585435927,0.9999764561653137,1.1105247211433578,1.4267458880800787,-0.03866427764296532,0.9915885925292969,1.0067067376523737,1.4158578650225666,-0.02961672842502594,0.961707592010498,1.0997264524910393,1.678805230783172,0.22688019275665283,0.9908044338226318,1.0223585250811473,1.6367094284351942,0.25300732254981995,0.9190171360969543,1.2097954357789045,1.1306850646758777,-0.4205482602119446,0.9920824766159058,0.9193173856933574,1.1766435119616547,-0.3449644446372986,0.9970472455024719,0.010870367288589478,1.0659556486250654,1.1349026586968536,179.73509735187577,175.7678003666269,1.0,-0.002873943027924588,0.0009197913822156972,0.0012147112522538901,0.006988701810328315,95.87572032244306,0.9528039936721102,87,2.9
1.0568968623316102,0.629880169739468,-0.5344973802566528,0.9999964833259583,1.158634463598712,0.7584354730004691,-0.27036720514297485,0.9999973773956299,0.9666550527852434,0.780023636230067,-0.2389870434999466,0.9999943375587463,1.1117875409572215,1.1240225364168341,-0.004478860180824995,0.9999829530715942,0.9964309109703017,1.1213732302166979,0.004306669346988201,0.9999781250953674,1.0981214470591427,1.412204208004921,-0.04539864882826805,0.9918414354324341,0.9956819527903341,1.3975966886111109,-0.03293256834149361,0.9648056030273438,1.0870557652252346,1.6609486742647666,0.21930237114429474,0.9910126328468323,1.0111577393716982,1.629880169739468,0.23107166588306427,0.9263328909873962,1.1922432684449622,1.117332452995025,-0.4496244788169861,0.9926103949546814,0.9087082468007719,1.1635537501710838,-0.34161829948425293,0.9967356324195862,0.010553181171417236,1.0541092259637617,1.122697883316766,179.83215374068416,176.0329739574032,1.0,-0.0007840145890476117,0.002337582052618522,0.016008032347186656,0.011105628832615077,95.98654379629058,0.9427692944252613,88,2.933333333333333
1.023713130411054,0.6097389227328947,-0.5139131546020508,0.9999967217445374,1.123668359457598,0.7357706923904735,-0.2546173930168152,0.9999975562095642,0.9376648935479032,0.7557333399485665,-0.21322432160377502,0.9999946355819702,1.0769770982988218,1.0900379312748145,-0.004791591316461563,0.9999839663505554,0.9652426786496892,1.086507404926695,0.004624555818736553,0.9999796748161316,1.0637728565167726,1.3708230413298508,-0.018117357045412064,0.9919482469558716,0.9665601141600249,1.3554878675441302,-0.010338817723095417,0.9676460027694702,1.0517032453625443,1.6154244794343031,0.24098023772239685,0.9910796284675598,0.9796653046373967,1.6097389227328947,0.2204943150281906,0.9330871105194092,1.148198589301514,1.0809065468364418,-0.42917171120643616,0.9931178689002991,0.8806206151930644,1.126865761561006,-0.30374762415885925,0.9967008233070374,0.010072588920593262,1.0211098884742555,1.0882726681007546,179.86750499238636,177.32996683772217,1.0,-0.001081160671576717,0.004580441499421394,-0.0025554994895555278,0.01840195945595641,95.69832233315618,0.9126552615411978,89,2.966666666666667
1.0132625066217122,0.6044229818045592,-0.5105219483375549,0.9999968409538269,1.1145683521667997,0.7298831359258251,-0.25419309735298157,0.9999977350234985,0.9297737349968831,0.7489276777326087,-0.20299141108989716,0.9999948740005493,1.067094670728959,1.082282493217318,-0.005311357788741589,0.999984860420227,0.9562667298838968,1.0776511286909642,0.005149181932210922,0.9999811053276062,1.054143684569435,1.3590750382669115,-0.00936941523104906,0.9916776418685913,0.9599354950113996,1.3481958212240144,-0.014084416441619396,0.9702293276786804,1.0415584217935547,1.6044229818045592,0.2455255687236786,0.9905097484588623,0.968316753444022,1.6275238454806997,0.15286941826343536,0.9392411112785339,1.128902156702636,1.0707674747350584,-0.4385860860347748,0.9935999512672424,0.8734775037388894,1.116488048724095,-0.28538525104522705,0.9964746832847595,0.009696364402770996,1.0116807003064279,1.0799668109541412,179.7424413568289,179.0582725386149,1.0,-0.0019409659597982444,0.010719318311046796,-0.006377429801727573,0.04532723664087546,95.27951390902507,0.8871291677056501,90,3.0
1.0125992606514398,0.6042811621771963,-0.47125086188316345,0.9999969601631165,1.114092505057903,0.7302024366645916,-0.23968763649463654,0.9999978542327881,0.9299809738348975,0.7487302723642875,-0.1726013720035553,0.9999951124191284,1.0666753739723418,1.0832929859726943,-0.008802225813269615,0.9999856948852539,0.9559337771952622,1.077502627698665,0.0086501594632864,0.999982476234436,1.0537342579462063,1.3580473352075106,-0.016961751505732536,0.991508960723877,0.9607648689240357,1.3477954190443522,-0.061072565615177155,0.9727780818939209,1.041187545416382,1.6042811621771962,0.22173988819122314,0.9901798367500305,0.9671543225979511,1.6442728574673748,0.0518106110394001,0.9450159072875977,1.12184423074875,1.0695279528504078,-0.4437245726585388,0.9940598011016846,0.8738891894703863,1.1141429465733066,-0.26277437806129456,0.9963904619216919,0.00943613052368164,1.011304575583802,1.0803978068356797,179.77972408576272,179.78936650362698,1.0,-0.0005435178373663031,0.005760531404640811,0.010639104647086162,-0.03774363123397692,94.65548279823247,0.8753335932921074,91,3.033333333333333
1.0098508030370152,0.602392233613783,-0.4983416497707367,0.9999968409538269,1.1117025559514158,0.728884511247271,-0.2628217339515686,0.9999979734420776,0.9282714701454554,0.7468691794975728,-0.19410952925682068,0.9999951720237732,1.0639297025338803,1.0813985011813034,-0.009815674275159836,0.999986469745636,0.9538149856295136,1.0752907452175793,0.009667540900409222,0.9999836683273315,1.0509441523129672,1.354833914219439,-0.0036390270106494427,0.9915149807929993,0.9608539343976188,1.3489204778978632,-0.04782062768936157,0.9750862717628479,1.0383342789482986,1.602392233613783,0.2504785656929016,0.9897667765617371,0.9647637413561188,1.6533068993223978,0.09089618921279907,0.9502530097961426,1.1120531254019739,1.066393030978276,-0.4624326825141907,0.9944114685058594,0.872306770924293,1.1101687854105653,-0.2793872356414795,0.9959893226623535,0.009179502725601196,1.008872344081697,1.0783446231994414,179.80300133721713,179.26234485380047,1.0,-0.0018810609258559164,0.0024821057096065793,-0.011028828691010758,-0.026905207353684627,94.54294766208152,0.866069436499173,92,3.066666666666667
1.0021208230845453,0.5967835305100723,-0.48916125297546387,0.9999967217445374,1.1045616613586127,0.7245443201423878,-0.2562742829322815,0.9999980926513672,0.9218109837606276,0.7413953702132637,-0.19748778641223907,0.9999952912330627,1.0568098336371314,1.0750186909575226,-0.009022239595651627,0.9999871253967285,0.947887799940254,1.0697877761021746,0.008867920376360416,0.9999847412109375,1.044378983216553,1.3469509425325883,0.012825800105929375,0.9908716082572937,0.9593922844934338,1.3490331186822997,-0.027321431785821915,0.9768052101135254,1.0304908067878409,1.5967835305100722,0.2744213938713074,0.9883065819740295,0.9587344161747984,1.6476614658492241,0.10963404178619385,0.9547393918037415,1.0999788080171151,1.0578083868722978,-0.4604033827781677,0.994650661945343,0.8673293087908662,1.1032878212482937,-0.2950267195701599,0.9953081607818604,0.008654385805130005,1.0023488167886927,1.0724032335298486,179.43554860174385,177.51461444298786,1.0,-0.002117807093813189,0.005319798296698467,-0.0018262525759118315,0.020978017402166132,95.00924215525252,0.8649587786331663,93,3.1
0.9970244482475322,0.5938617615750365,-0.5025577545166016,0.9999963045120239,1.1018624972855189,0.7229219261697047,-0.270540326833725,0.999998152256012,0.9179208664293536,0.7395693731622797,-0.21345822513103485,0.9999952912330627,1.0543166573641476,1.07402267537516,-0.007807636167854071,0.9999876618385315,0.9457414098072384,1.0702381778741614,0.0076758237555623055,0.9999856352806091,1.041886809078093,1.3464433915419578,0.0363391637802124,0.9899243712425232,0.961799848423262,1.3517631086349937,-0.02734818123281002,0.9783924221992493,1.0270778856764498,1.5938617615750363,0.31323057413101196,0.9864553809165955,0.9567074211755516,1.6498324938680662,0.1018846407532692,0.9587622284889221,1.0914537107672457,1.0554510224251017,-0.47979936003685,0.9948077201843262,0.8656178025726594,1.1032981400731854,-0.3153575658798218,0.9940406084060669,0.00856974720954895,1.000029033585693,1.0721304266246607,179.1871631381881,175.75654794913225,1.0,8.409804704715917e-05,0.016847276129870324,0.016665316733468907,0.08753616236521243,95.71575134445138,0.8699463417714264,94,3.1333333333333333
0.9958709012145485,0.5936481086911658,-0.5253257155418396,0.9999960064888,1.1018888189137601,0.723210019347261,-0.28362685441970825,0.9999982118606567,0.9163038138401128,0.7397312206145957,-0.23020076751708984,0.9999952912330627,1.0537181229381432,1.0750034685170984,-0.00685032969340682,0.9999881386756897,0.9457381479207311,1.0725631148511132,0.00673330295830965,0.9999864101409912,1.0412886716494414,1.3467743485846946,0.03589100390672684,0.9891420602798462,0.9631303002010234,1.3558717072539141,-0.026965543627738953,0.9798704385757446,1.0258636723385124,1.5936481086911658,0.30761080980300903,0.9851711392402649,0.9579688688140822,1.6549680166822354,0.0945296660065651,0.9624788165092468,1.0856377450631827,1.0567452871596308,-0.501828134059906,0.9949671626091003,0.8659379924107224,1.1085190717483897,-0.33583155274391174,0.9930305480957031,0.008503049612045288,0.9997281354294372,1.0737832916841057,179.04333138812237,175.49841247625554,1.0,-0.0038450195065712575,0.011011816465142004,-0.030101252759275963,-0.04473162588366589,96.50229300378207,0.8720781975153908,95,3.1666666666666665
0.9954713263151652,0.5934900011722173,-0.49223774671554565,0.9999955892562866,1.1014211164975447,0.7234622525196879,-0.26782146096229553,0.9999982714653015,0.9151628038324554,0.7399841449509175,-0.2090163230895996,0.9999951124191284,1.0537335350967867,1.0761907619087774,-0.006133532617241144,0.9999885559082031,0.9451218156116171,1.0760545437781441,0.006010011769831181,0.9999870657920837,1.039732141409246,1.3503079734402446,0.03456024453043938,0.9880478978157043,0.9636679256804999,1.3579477719300765,-0.032359980046749115,0.9810287952423096,1.0257811345302306,1.5934900011722173,0.2873150706291199,0.9838595986366272,0.9587981854262353,1.6637472820081332,0.060785096138715744,0.9657776355743408,1.0818505325711913,1.057225051348212,-0.47603654861450195,0.99515300989151,0.8660324222317256,1.1125641302449192,-0.31392258405685425,0.9911158680915833,0.008501827716827393,0.9994276753542018,1.0761226528434609,179.6406414998377,175.32352708649097,1.0,-0.003919994158550099,0.017262736759235283,-0.000599012428340285,0.050405284516547216,97.6276331502772,0.873502982947314,96,3.2
0.991793084284263,0.5902012995357463,-0.4914776384830475,0.9999950528144836,1.0960588525995252,0.7218101194251881,-0.26287156343460083,0.9999983310699463,0.9105648453631311,0.7385444905981849,-0.20656569302082062,0.9999948143959045,1.048953326465478,1.0808544589448132,-0.002691427478566766,0.999988853931427,0.9393818594854357,1.0819971874588667,0.002559234155341983,0.9999875426292419,1.0332812742879667,1.3613502602210412,0.06320710480213165,0.9869139790534973,0.9614447630829784,1.3695259023569468,-0.03910404443740845,0.9822770953178406,1.0237541048018703,1.5902012995357464,0.341484010219574,0.9822404384613037,0.9573834754219434,1.6743063031524403,0.05575547739863396,0.9688126444816589,1.0751449784775917,1.0578739850466043,-0.46327218413352966,0.9953830242156982,0.8621598759739538,1.1143101369118016,-0.29889416694641113,0.9891018867492676,0.008627384901046753,0.9941675929754569,1.0814258232018399,179.18592820328138,174.84869095583153,1.0,-0.02533830628613105,0.05490432064031454,-0.1605661501064879,0.28233292116550857,98.07186286750957,0.8917812247162408,97,3.2333333333333334
0.9891411819555688,0.5887994387998863,-0.49096575379371643,0.9999947547912598,1.0937515390422359,0.7209867191300243,-0.2613193988800049,0.9999983906745911,0.9084322915238286,0.73750580614058,-0.19984884560108185,0.999994695186615,1.046882322629442,1.081027769879085,-0.0027416483499109745,0.9999892115592957,0.93664177736464,1.0818639118592497,0.0026103374548256397,0.9999881386756897,1.030408558879101,1.3634554222641133,0.05398165434598923,0.9861520528793335,0.9599130486243524,1.3701723871645681,-0.037464894354343414,0.9834132194519043,1.022689747849671,1.5887994387998863,0.32972386479377747,0.981232225894928,0.956282684349474,1.6714057860770986,0.0707659050822258,0.9715363383293152,1.0729173889760553,1.0590222589170628,-0.47075772285461426,0.9955795407295227,0.860297949916354,1.1134468916759648,-0.2800246477127075,0.9874850511550903,0.008526772260665894,0.991762049997041,1.0814458408691674,178.62357991900183,174.69480955462703,1.0,-0.008912235559442042,0.009958860547638627,0.12220632416930517,-0.3345151258594831,97.85147182117124,0.8979154569018752,98,3.2666666666666666
0.984126982299048,0.5845189292770919,-0.4833216071128845,0.9999938011169434,1.0890455512405752,0.718694811380915,-0.25250813364982605,0.9999983906745911,0.9036429994682488,0.7354566913560059,-0.20022062957286835,0.9999944567680359,1.0425566205614107,1.0799695632183643,-0.000582458742428571,0.9999892711639404,0.9321514848871245,1.080210593047965,0.0004413789138197899,0.9999884366989136,1.027069100879851,1.3625715683262851,0.06474627554416656,0.9843835234642029,0.9558216966576832,1.3698172036912226,-0.04143289849162102,0.9842683672904968,1.0198506432692305,1.5845189292770918,0.34207338094711304,0.9791176915168762,0.9536800090055101,1.6721093766419293,0.05309486389160156,0.973903477191925,1.0690583858198914,1.0610255168595644,-0.4648805558681488,0.9957285523414612,0.8545835829665728,1.1117943680437976,-0.28472378849983215,0.986445426940918,0.008675634860992432,0.9873540527242676,1.0800900781331646,178.72593111557796,174.92154675771835,1.0,-0.012857245080629992,0.011818016670306962,-0.02971899955304209,0.014122596947702619,97.4576255072865,0.9039727481233725,99,3.3
0.9775424275424534,0.5790476364346369,-0.478534072637558,0.9999924302101135,1.082991442642939,0.7164255476867545,-0.24383191764354706,0.9999983906745911,0.8968797052847997,0.7329760366789966,-0.20185711979866028,0.9999942183494568,1.0368263679832896,1.0789850308684767,0.0014836364425718784,0.9999892711639404,0.9267724422296446,1.0783289497955029,-0.001628408906981349,0.9999886751174927,1.0232086096116106,1.357906405568445,0.06989963352680206,0.9823970198631287,0.9500098716433757,1.3643943056434167,-0.04451834782958031,0.9850125312805176,1.0168648085472414,1.5790476364346369,0.34947916865348816,0.9768010377883911,0.9511197784848007,1.6687792959460126,0.048898130655288696,0.9760348200798035,1.0652182362292584,1.0635372724721115,-0.43666166067123413,0.995791494846344,0.8458280092767613,1.1099527693964013,-0.29117506742477417,0.9861711859703064,0.00859159231185913,0.981799405106467,1.0786569903319898,178.84804506136624,175.5649141308011,1.0,-0.020667862875522303,0.013753398227669978,-0.0614639293253453,0.015429668401855355,96.91492025841568,0.916305823092463,100,3.3333333333333335
0.9725106274587236,0.5741299319357025,-0.48696693778038025,0.9999914169311523,1.077166643225708,0.7146519315426273,-0.24545040726661682,0.9999983906745911,0.8888819533175217,0.7304572842359018,-0.22152014076709747,0.9999942183494568,1.031902190271254,1.0776089672432838,0.005655347369611263,0.99998939037323,0.9213930549402622,1.0765048751849124,-0.005795554257929325,0.9999890923500061,1.020681797461871,1.3546538396519316,0.07657785713672638,0.9811521172523499,0.9445942782376126,1.3638806820082015,-0.04792684316635132,0.985818088054657,1.0152657906925497,1.5741299319357025,0.37156227231025696,0.9745188355445862,0.9486173995745809,1.667013966993603,0.05400247499346733,0.9779794812202454,1.0623754746794125,1.065654650999249,-0.42636770009994507,0.995819091796875,0.8368584297428656,1.1072696444777759,-0.3184836506843567,0.9864369034767151,0.00822538137435913,0.976647622605758,1.0770569212140981,179.09437263692635,176.14462189179196,1.0,-0.020170000923544304,0.008249004949741713,0.003341272962138201,-0.04096963847190334,96.53624756835474,0.925307202142707,101,3.3666666666666667
0.9666847146926923,0.5699742530059102,-0.4986498951911926,0.9999912977218628,1.0718185785009173,0.7127630956705299,-0.2467854917049408,0.9999983906745911,0.8818086178181993,0.7281476671212942,-0.23495054244995117,0.9999942779541016,1.02708072036754,1.0745452011669534,0.007568174507468939,0.9999893307685852,0.9148454152302494,1.0733085687001538,-0.007710424717515707,0.9999893307685852,1.0173374135579514,1.3508458584349392,0.07323581725358963,0.9794796705245972,0.9377513872992157,1.3635629773303086,-0.04827750101685524,0.9863110780715942,1.01320670015832,1.5699742530059102,0.35718807578086853,0.9715536236763,0.9461832422936071,1.662027067469918,0.050655920058488846,0.9795746803283691,1.0609713721754268,1.065953883866664,-0.4319637417793274,0.9959580898284912,0.8290534952629643,1.1040697156407848,-0.3356606662273407,0.986987292766571,0.008027732372283936,0.9709630677988947,1.0739268849335535,179.06032654826336,177.1059699194744,1.0,-0.022147546359771317,-0.0019204080798566696,-0.014561932986055598,-0.07275063336048043,96.41811895611987,0.9295849790626807,102,3.4
0.9606490749435077,0.5641385433814751,-0.5149474740028381,0.9999916553497314,1.0642106200906631,0.7097335528288146,-0.25835925340652466,0.9999984502792358,0.873842605629356,0.7235938414291918,-0.2592209279537201,0.9999944567680359,1.020778458040831,1.0700950832306795,0.008469183929264545,0.9999896287918091,0.9076619419160709,1.0689832701254158,-0.008607650175690651,0.9999898076057434,1.0139101791086313,1.3457969721410719,0.06972469389438629,0.9797185063362122,0.9311998513638313,1.360822377616649,-0.048523034900426865,0.9870336055755615,1.011457295488453,1.5641385433814752,0.35515278577804565,0.9709342122077942,0.9424239641916993,1.6561294727523301,0.061719924211502075,0.9811805486679077,1.0575659097986436,1.066473498810535,-0.4070817530155182,0.9960713386535645,0.8210994070368031,1.1006012232902318,-0.3645699620246887,0.9877148866653442,0.007261127233505249,0.964220199978451,1.0695391766780475,179.21658680128763,177.56552941533596,1.0,-0.021406190205750016,-0.0009782466583868627,0.004832042013823846,0.00690913610154463,96.3092229136944,0.9346585945834229,103,3.433333333333333
0.958231656992839,0.5622655083176186,-0.5306631326675415,0.9999921917915344,1.0613741541065032,0.7084871868756439,-0.2611851692199707,0.9999985098838806,0.8706328848103709,0.7198467628388053,-0.26369139552116394,0.999994695186615,1.0200030555515425,1.0693051646215366,0.009314233437180519,0.9999898076057434,0.9049914015687516,1.0686469583212987,-0.009458438493311405,0.9999902248382568,1.0144029553531135,1.3471617327548187,0.06474260985851288,0.9805275201797485,0.9289922128939042,1.3654719490471423,-0.04592245817184448,0.9878588318824768,1.0118596580398715,1.5622655083176185,0.36637037992477417,0.9707620739936829,0.9422694716614658,1.6568265241895366,0.08374176919460297,0.9826952815055847,1.065493460767048,1.069835506441742,-0.36084726452827454,0.9961895942687988,0.8162853047878535,1.1016039142912104,-0.3619789779186249,0.9884760975837708,0.005951941013336182,0.962497228560147,1.0689760614714177,179.52279011764432,177.98641767768234,1.0,-0.012110848257923105,-0.003096029278591713,0.07125769266530939,-0.016241522139653363,96.21302630962055,0.9370532373393899,104,3.466666666666667
0.9597023845727932,0.5630824830259776,-0.5516918897628784,0.999992847442627,1.06326606546203,0.7108267948688295,-0.2722095847129822,0.9999985694885254,0.8702166124257524,0.7219499087513339,-0.27346470952033997,0.9999950528144836,1.0234436684048316,1.0731077288234134,0.008548775687813759,0.9999903440475464,0.9054087000770138,1.0724155467966736,-0.008693339303135872,0.9999908208847046,1.019947806505426,1.3561373044707135,0.04191983491182327,0.9815336465835571,0.9282366577202711,1.3762719201683395,-0.03993382677435875,0.9885855913162231,1.017434706018243,1.5630824830259777,0.3707204759120941,0.9698542356491089,0.9461090032493149,1.6630157491399837,0.11946225166320801,0.9840130805969238,1.0754453851533237,1.0786062355206456,-0.3804281949996948,0.9963088035583496,0.8152586730493616,1.1079905047703165,-0.3772074580192566,0.989245593547821,0.00580441951751709,0.9644261842409227,1.0727616378100435,179.98809687610947,179.2701374536044,1.0,-0.0162750740514343,-0.004627252139090467,-0.03367696352432319,-0.012428530041010681,95.93685337207981,0.9428994521294576,105,3.5
0.959827695313293,0.5618413290474487,-0.577113687992096,0.9999935030937195,1.0620458722338557,0.711657874998463,-0.28473684191703796,0.9999986290931702,0.8663613245522455,0.7223744738796378,-0.27711018919944763,0.9999954104423523,1.0220605245376047,1.0744059654664302,0.0057472363114356995,0.9999908804893494,0.9018084042571748,1.0737398060828793,-0.005916408263146877,0.9999914169311523,1.021958953532695,1.3671994855108331,-0.008057552389800549,0.9823759198188782,0.9260934824985896,1.386283739402887,-0.023102615028619766,0.9889378547668457,1.0195071804581046,1.5618413290474487,0.35874924063682556,0.9673727750778198,0.9476283084567299,1.6665007559204714,0.16624972224235535,0.9849544763565063,1.08385664419351,1.082539080673743,-0.38584572076797485,0.9963661432266235,0.8112304017573614,1.1110084725430869,-0.3873939514160156,0.9900097846984863,0.005584448575973511,0.9619344643973897,1.0740728857746549,179.29819765521322,179.95154226039406,1.0,-0.027292321187958716,-0.0013793205582866748,-0.07803452725534321,0.023098799879021394,95.97286266246381,0.9476493420088793,106,3.533333333333333
0.9620761541211104,0.5614197181779573,-0.5994133353233337,0.9999940991401672,1.062469066559382,0.7135208623587634,-0.29472675919532776,0.9999987483024597,0.8643702368957122,0.7238108059269863,-0.3105838894844055,0.999995768070221,1.0252323913729464,1.0774923681015307,0.008013279177248478,0.9999914169311523,0.9024536670498181,1.0772116466796113,-0.008166969753801823,0.9999920725822449,1.0285453861752962,1.374475318636316,0.005497575271874666,0.98350989818573,0.9279817570096719,1.3929868650263055,-0.026675250381231308,0.9896531701087952,1.0274255992114092,1.5614197181779572,0.3907749056816101,0.9651296734809875,0.9509610318842037,1.6750789557691035,0.15612931549549103,0.9860662817955017,1.0928418390145278,1.0889119686427515,-0.38644155859947205,0.9964789748191833,0.8115320612613103,1.1154901816649776,-0.42007890343666077,0.9908310174942017,0.005344092845916748,0.9638430292113822,1.077352007390571,179.01766860116888,179.9648463482302,1.0,-0.010534094788105564,-0.0027087543022294735,0.13287731864693325,-0.010446915412112243,95.71041018984981,0.9528014899270245,107,3.566666666666667
0.9647664325743441,0.5631241656108831,-0.5916367769241333,0.9999946355819702,1.0622697155039669,0.7135696015293677,-0.2884380519390106,0.9999988079071045,0.8619445650228222,0.7245048033384708,-0.31106099486351013,0.9999960660934448,1.0270831271649121,1.0797024642514739,0.008480055257678032,0.9999918937683105,0.9033551635622614,1.0811315025136687,-0.008634621277451515,0.9999926090240479,1.0337918787362246,1.3775070918582597,-0.007856838405132294,0.9844474792480469,0.9275478981113889,1.3981337284713449,-0.028400475159287453,0.9901831150054932,1.0325631772399033,1.5631241656108832,0.38166576623916626,0.9621933102607727,0.9527495617345737,1.678004535408172,0.15563976764678955,0.9869945049285889,1.1018614126145576,1.0916742535687287,-0.38863611221313477,0.9964572191238403,0.8131263938111349,1.1197958083039359,-0.42817744612693787,0.9915280938148499,0.005667537450790405,0.9652191453635868,1.0804169833825712,178.33022897820396,179.21873232879403,1.0,-0.004715880769800498,0.006557816346083165,0.04524544023413117,0.0718371864548296,96.15118455137787,0.9564521267253916,108,3.6
