nose_x,nose_y,nose_z,nose_visibility,left_shoulder_x,left_shoulder_y,left_shoulder_z,left_shoulder_visibility,right_shoulder_x,right_shoulder_y,right_shoulder_z,right_shoulder_visibility,left_hip_x,left_hip_y,left_hip_z,left_hip_visibility,right_hip_x,right_hip_y,right_hip_z,right_hip_visibility,left_knee_x,left_knee_y,left_knee_z,left_knee_visibility,right_knee_x,right_knee_y,right_knee_z,right_knee_visibility,left_ankle_x,left_ankle_y,left_ankle_z,left_ankle_visibility,right_ankle_x,right_ankle_y,right_ankle_z,right_ankle_visibility,left_wrist_x,left_wrist_y,left_wrist_z,left_wrist_visibility,right_wrist_x,right_wrist_y,right_wrist_z,right_wrist_visibility,trunk_lateral_inclination,center_mass_x,center_mass_y,left_knee_angle,right_knee_angle,person_height,center_mass_velocity_x,center_mass_velocity_y,center_mass_acceleration_x,center_mass_acceleration_y,body_orientation,torso_leg_ratio,frame,timestamp
1.3666574566842855,0.8973631918586028,-0.37393718957901,0.9999045133590698,1.4418759974790578,1.0391078424885363,-0.16472962498664856,0.9999924898147583,1.2878247855347387,1.0348655686074213,-0.19212542474269867,0.9999963641166687,1.3889926195653808,1.3817573855096656,0.010598238557577133,0.9999704360961914,1.3089396903183457,1.3731189592420314,-0.01073545217514038,0.9999805092811584,1.3775313827696054,1.652951592735509,0.009360957890748978,0.9669963121414185,1.3019141215373655,1.6416121570527726,-0.015423846431076527,0.9336119294166565,1.3523323440996116,1.9087308308525008,0.14773471653461456,0.9621716737747192,1.287966886833284,1.897363191858603,0.09812602400779724,0.9054479598999023,1.4705531862535821,1.3959453556197345,-0.17412543296813965,0.8462090492248535,1.2383770203139772,1.403253422402076,-0.24300286173820496,0.9774820804595947,0.0016317367553710938,1.3489661549418632,1.3774381723758484,176.7934507974382,178.37739665836176,1.0,0.38001835808221557,-0.030542902812270824,1.5768422217525133,-0.22670809462826502,92.6147181840984,0.9126142283709798,0,0.0
1.3652322094794818,0.8936754537720606,-0.38984185457229614,0.9999133348464966,1.4439158673584258,1.0365306897483462,-0.16282692551612854,0.9999927878379822,1.274728326243374,1.0331694980981565,-0.1952347457408905,0.9999961853027344,1.3936804689789393,1.3760471559070417,0.01103006862103939,0.9999719858169556,1.2953973826175398,1.367427944208061,-0.011166493408381939,0.9999812245368958,1.3807765731508046,1.6448181107916295,0.0034135240130126476,0.9681003093719482,1.2961589224928325,1.6391993816327075,-0.02299707755446434,0.9375665783882141,1.3536634388795195,1.9007536852897502,0.13975508511066437,0.9648580551147461,1.27427340840095,1.8936754537720606,0.09848575294017792,0.9139540195465088,1.4797562331691585,1.3969968323953352,-0.1625743806362152,0.8607682585716248,1.2272953483107472,1.3970980624172586,-0.2341713011264801,0.9793671369552612,0.001298278570175171,1.3445389257982396,1.3717375500575515,176.7014950362737,174.9239792880464,1.0,0.009389228775878904,0.0005362229747192566,-2.830816813662722,0.23742083097909908,93.4046175508221,0.9090781659210617,1,0.03333333333333333
1.3552206225664793,0.8858745909979842,-0.4101678729057312,0.9999215006828308,1.4413589782865772,1.031821689639814,-0.18343585729599,0.9999932050704956,1.2681897870754364,1.0281914678688078,-0.21421054005622864,0.9999961853027344,1.3892539228626462,1.3682401647853508,0.010676061734557152,0.9999737739562988,1.2868022691017789,1.3606592335858774,-0.010810217820107937,0.9999821782112122,1.375318855259877,1.6377999367321106,0.010466283187270164,0.9689018726348877,1.2933316289822243,1.6346449923188973,-0.012772252783179283,0.9402570724487305,1.3466451963493906,1.8909870297753928,0.1705702394247055,0.966930091381073,1.2719265563969935,1.8858745909979842,0.1361057460308075,0.9211738109588623,1.4729296243826273,1.3937060280102525,-0.1859676092863083,0.8738154768943787,1.2175486658049657,1.3908403828583042,-0.2849103808403015,0.9810634255409241,0.0014083683490753174,1.3380280959822124,1.364449699185614,176.49804099303648,173.76493152103984,1.0,-0.004668536766830465,-0.009659403370986261,-0.10635328538207381,-0.07734319603659837,94.57221154011084,0.9125570134900746,2,0.06666666666666667
1.3644510285841691,0.8931586310058841,-0.43094611167907715,0.999928891658783,1.448484260957437,1.0356778264133155,-0.2050592452287674,0.999993622303009,1.2694013417485488,1.0320857272884392,-0.22111216187477112,0.9999960660934448,1.3970587157858092,1.3730534955697034,0.006480073090642691,0.9999755024909973,1.2921238732417883,1.3654008598919385,-0.00659929309040308,0.9999830722808838,1.3805887519643871,1.6444101818276047,0.002073150360956788,0.9700531959533691,1.298099188270586,1.642649184094444,-0.007420715875923634,0.9429982900619507,1.356239414559643,1.8983924205374259,0.16969645023345947,0.9689258337020874,1.279317114786373,1.893158631005884,0.14647068083286285,0.9278931617736816,1.4795780484699317,1.399981938089292,-0.21840128302574158,0.885383129119873,1.2226693483436912,1.3962475493604178,-0.30397504568099976,0.9824061393737793,0.0013881027698516846,1.3445912945137988,1.369227177730821,177.99707669833376,174.47758229073705,1.0,0.010214066710242912,-0.004807593183006371,0.11843625793662303,0.038866003378928475,94.49572370139407,0.9037416779743997,3,0.1
1.3703278761140072,0.9015332418720183,-0.4337027966976166,0.9999357461929321,1.4531066129380485,1.0396022176219666,-0.2087501585483551,0.9999940395355225,1.276334648051016,1.0361960373853545,-0.21420232951641083,0.9999959468841553,1.40459365435243,1.3787178358547147,0.003777058096602559,0.9999768137931824,1.2982773873617974,1.3710720705456052,-0.0038935705088078976,0.999983549118042,1.3823198608069887,1.6515330095532572,-0.004775320179760456,0.9711102843284607,1.3035081991485982,1.6531482444600494,-0.004914744757115841,0.9451912641525269,1.3578495708143206,1.9064610325546731,0.16584475338459015,0.9702163934707642,1.2848221042318255,1.9015332418720183,0.15973827242851257,0.9334868788719177,1.48441373431345,1.405400884607891,-0.21681436896324158,0.8959969282150269,1.2267184076686255,1.400835201434305,-0.2790871262550354,0.9831186532974243,0.0013108551502227783,1.3514355208571138,1.37489495320016,179.18455228161784,174.63535218961053,1.0,0.006578181074178983,0.00012436012018244555,-0.01857379235238679,0.02500640259670414,94.02797856428369,0.8939133988842219,4,0.13333333333333333
1.3718918285472304,0.9009933315288193,-0.40964335203170776,0.9999414086341858,1.4528797774952236,1.039538516065657,-0.19641706347465515,0.9999943971633911,1.2760775552958783,1.0354415159836876,-0.20662519335746765,0.9999957084655762,1.4023028683954344,1.3778383651382144,0.004425947088748217,0.9999778866767883,1.2973308544874151,1.3700881918143129,-0.004553637001663446,0.9999838471412659,1.3834081055908483,1.6492575962774894,-0.016144568100571632,0.9711471199989319,1.3022170520686904,1.6508720609146532,-0.013927528634667397,0.9458343982696533,1.3527637741319234,1.9047337375661337,0.14609667658805847,0.9711398482322693,1.2851735286315915,1.9009933315288194,0.14270718395709991,0.938362181186676,1.4787557956207589,1.4043867027497217,-0.21268495917320251,0.9055711030960083,1.228243099765911,1.3987804282425889,-0.2657012939453125,0.9840125441551208,0.0015774667263031006,1.3498168614414248,1.3739632784762636,177.14226050030513,175.10487203439254,1.0,-0.007557072031874047,-0.002141150394538603,-0.10962690618860739,-0.017573759316783552,94.2803901962112,0.8937019588252054,5,0.16666666666666666
1.3728061122178545,0.9015332419205359,-0.42543935775756836,0.9999467134475708,1.455201819171447,1.0450782260755649,-0.20695717632770538,0.9999947547912598,1.2754842336151853,1.0361088034240313,-0.2199445515871048,0.9999955892562866,1.4040164852734294,1.378126275088516,0.0053274198435246944,0.9999790191650391,1.2980523809265727,1.3704962228345658,-0.005458653438836336,0.9999842047691345,1.3896280283715179,1.6489705220826942,-0.016584966331720352,0.9712504148483276,1.3038302787987088,1.6496897978208036,-0.016339093446731567,0.9461501240730286,1.353034159016458,1.9045458381497966,0.13744083046913147,0.9719957709312439,1.286460195559382,1.901533241920536,0.12375898659229279,0.9427350759506226,1.4788022704027712,1.4057487861738014,-0.218260258436203,0.9145933389663696,1.2263565393313756,1.3985084900087257,-0.2752123177051544,0.9850211143493652,0.003452509641647339,1.351034433100001,1.3743112489615408,174.89258854116727,174.8688940878323,1.0,0.006398286339509703,-0.00033673625627992856,0.10725111141840316,0.013870014003024489,94.61875180716106,0.8935596551694643,6,0.2
1.3710820644118042,0.9019848922055614,-0.4147070348262787,0.9999514222145081,1.456707510683413,1.0473847128450329,-0.2063722312450409,0.9999950528144836,1.2757356027551512,1.0374782188477247,-0.20998963713645935,0.9999954104423523,1.4037721470756335,1.3780924589585009,0.003123268950730562,0.9999801516532898,1.2985496269517849,1.3708492674562867,-0.00326136383228004,0.9999846816062927,1.3888844487606622,1.6494302437785284,-0.025728220120072365,0.9717196226119995,1.302459934296428,1.6498642404979966,-0.014955079182982445,0.9457331895828247,1.353281074056692,1.9052916002583535,0.11962439119815826,0.9731462597846985,1.2865606611867224,1.9019848922055613,0.12933149933815002,0.9466015696525574,1.4768332179416288,1.406041878669882,-0.22316431999206543,0.922279953956604,1.2251957399551134,1.3979350305981628,-0.2762158215045929,0.9856545925140381,0.003812253475189209,1.351160887013709,1.3744708632073936,175.21864423399134,175.58865281580358,1.0,-0.0016941118761172318,-0.0014751365951690871,-0.06483286259287176,-0.009117902575947516,95.15616277014195,0.8921212725309567,7,0.23333333333333334
1.3716023501951913,0.9018898053662325,-0.4098914563655853,0.9999557137489319,1.455596350026369,1.046610888122562,-0.19924186170101166,0.9999953508377075,1.2764462397109264,1.0373189126901092,-0.2052161693572998,0.999995231628418,1.4045775681349837,1.3780185348529423,0.0035105422139167786,0.9999809265136719,1.2988330337637275,1.3707669110979117,-0.003644422395154834,0.9999848008155823,1.3910666562378755,1.6498644386225632,-0.017745468765497208,0.9727208614349365,1.3014898973667561,1.647154450138117,-0.011062392964959145,0.947589635848999,1.3548480326369534,1.9050529816146091,0.1337079256772995,0.974437415599823,1.2852508756699659,1.9018898053662325,0.1321561187505722,0.9506297707557678,1.4794924792669695,1.4064363194524574,-0.22951260209083557,0.9295430779457092,1.225347228406788,1.3966340818572334,-0.27454519271850586,0.9863862991333008,0.0035758912563323975,1.3517053009493556,1.3743927229754271,174.7673212915686,175.80165314311793,1.0,0.004371524246870653,-0.00024008634019076776,0.04498726861643387,0.009159772087931534,94.82871356066856,0.8922588304425034,8,0.26666666666666666
1.3689498761621426,0.8996463576602538,-0.3963967263698578,0.9999594688415527,1.454403682873914,1.045378930849352,-0.1879359632730484,0.9999955892562866,1.2746422872269454,1.0359021112805804,-0.19641970098018646,0.9999951720237732,1.4012463376735562,1.3777599568213075,0.0041512856259942055,0.9999816417694092,1.2968673558519372,1.3715210750987017,-0.004280253313481808,0.9999850988388062,1.386301794958603,1.6490373009480763,-0.010765202343463898,0.9729009866714478,1.2967074003919528,1.6471640894732678,-0.009973015636205673,0.9489784836769104,1.3526734025860032,1.9028386602446252,0.1657310426235199,0.9750016331672668,1.2820849343382064,1.8996463576602538,0.14601188898086548,0.9537760615348816,1.472354738514204,1.4046446950671143,-0.2269284427165985,0.9358628392219543,1.224251289718244,1.3950028150768694,-0.26737862825393677,0.9871583580970764,0.003651440143585205,1.3490568467627466,1.3746405159600046,175.6055486361535,176.71867625249573,1.0,-0.00812498104994234,0.015292186979548355,-0.10004846010274232,0.12440345332246044,95.66572561556329,0.9011556701448471,9,0.3
1.3698200263733296,0.9004886412981754,-0.41006770730018616,0.9999630451202393,1.4572603184510264,1.046966683871601,-0.19904698431491852,0.999995768070221,1.275838504426432,1.0367188964295206,-0.19769622385501862,0.9999950528144836,1.4022064380002628,1.3792392053875109,0.0026114564388990402,0.9999823570251465,1.297771195843069,1.3731216086414963,-0.002735583810135722,0.99998539686203,1.386184094449748,1.6506347490488578,-0.01300852932035923,0.9735517501831055,1.296733945005267,1.6488279599719342,-0.0033919892739504576,0.9502812027931213,1.3531481430012626,1.9046775925096833,0.15144525468349457,0.9760542511940002,1.2828360379557318,1.9004886412981754,0.15088099241256714,0.9568808674812317,1.4714128544008103,1.4057972551639384,-0.22896607220172882,0.9415271282196045,1.2252246428440647,1.3959053598028681,-0.26865676045417786,0.9877389669418335,0.003944903612136841,1.3499888169216658,1.3761804070145036,175.9694272300761,177.05461841706537,1.0,-0.002321452625854042,0.0022562858528342457,0.04550083319138632,-0.10218300147998398,96.05537254333271,0.9027794045069077,10,0.3333333333333333
1.370539226731222,0.9015714596080074,-0.408745676279068,0.9999662041664124,1.4578411259118573,1.0479202674163899,-0.19731618463993073,0.9999959468841553,1.2773144454657468,1.0374099730216504,-0.19885310530662537,0.9999949932098389,1.4038469125341706,1.3795922081423042,0.0024043472949415445,0.9999828934669495,1.29883930392184,1.3734440866398223,-0.0025329089257866144,0.9999855160713196,1.3860371868263308,1.6513893729934528,-0.014471660368144512,0.9742865562438965,1.2980163197041783,1.648694870889216,-0.002321548294275999,0.9515760540962219,1.3540702413696912,1.9068697789855653,0.13552126288414001,0.9774346351623535,1.2846592191943047,1.9015714596080076,0.14246973395347595,0.9598498940467834,1.4734164393926534,1.4038765207439226,-0.23705005645751953,0.9468513131141663,1.22884534105131,1.3972084728775234,-0.26818400621414185,0.9884909391403198,0.00404125452041626,1.3513431082280052,1.3765181473910633,176.6169330016941,177.14772136455323,1.0,-0.0017635340424472764,-0.01030060611282858,0.00457110428295414,-0.10240613386366808,95.8954968534022,0.8991084326419515,11,0.36666666666666664
1.3722173986922932,0.9019001087040016,-0.39761659502983093,0.9999683499336243,1.4568958761534767,1.048827882227245,-0.18833625316619873,0.9999960660934448,1.2777552507291547,1.0388212172210105,-0.19566908478736877,0.9999948143959045,1.404511254860062,1.38109528010484,0.0024636907037347555,0.9999836087226868,1.2991493776094585,1.375085911852771,-0.0025910702534019947,0.9999858736991882,1.388431442380284,1.656561927529114,-0.011812930926680565,0.9750043153762817,1.2953060199981223,1.6532151477978712,-0.006250721402466297,0.9533860087394714,1.3585467648339062,1.9093132405508602,0.17116637527942657,0.9783193469047546,1.2866941181126006,1.9019001087040015,0.165420264005661,0.9620489478111267,1.4747278326470472,1.397620771232002,-0.23096895217895508,0.9516669511795044,1.2320175571316732,1.4012296509755815,-0.26063430309295654,0.9890978932380676,0.003843545913696289,1.3518303162347602,1.3780905959788055,176.59753395958046,178.8083504248962,1.0,-0.006824324136224852,0.0008568405655283143,-0.03670594159317484,0.08103379882951484,95.69503608847369,0.9021437582932399,12,0.4
1.376424948808653,0.9053792793438972,-0.39538171887397766,0.9999704360961914,1.4621564856767417,1.0525479868500949,-0.1855505406856537,0.9999961256980896,1.2823200160678487,1.0433729118591424,-0.18981143832206726,0.9999945759773254,1.4088056515340583,1.3863092613874999,0.0022726268507540226,0.9999839067459106,1.303469033917475,1.3804657417685178,-0.0023993367794901133,0.9999858736991882,1.3933972760821987,1.6634371318547205,-0.011228750459849834,0.975147008895874,1.2993891460559825,1.6599419541952607,-0.006743033416569233,0.9540868997573853,1.3651609444424846,1.9166421934140043,0.16677837073802948,0.9787113666534424,1.2918571472294527,1.9053792793438973,0.17451921105384827,0.9632158875465393,1.4775340213257238,1.4006550654493044,-0.2321358621120453,0.955923855304718,1.2382976771476049,1.4078891798162212,-0.2580454647541046,0.989730179309845,0.003511101007461548,1.3561373427257666,1.3833875015780088,176.8192948627098,179.07861819707284,1.0,-0.00546353625212259,0.0013974677931456578,0.010656750272323113,0.004131997641738429,95.90653234488711,0.905535567884725,13,0.43333333333333335
1.3837726793016345,0.910696133723624,-0.3859977126121521,0.9999723434448242,1.4700966480970743,1.0590054480534592,-0.18368910253047943,0.9999962449073792,1.2876524600760555,1.0508200906283,-0.18623486161231995,0.9999943375587463,1.4165089391049546,1.3948942250758662,0.002539703156799078,0.9999844431877136,1.3107966803932662,1.3888011094286317,-0.00266679422929883,0.9999860525131226,1.4015251667076472,1.6746591451449455,-0.007281319238245487,0.9759963154792786,1.3078328409267244,1.668626971620632,-0.0047606779262423515,0.955808699131012,1.3771025717810867,1.9280126264558841,0.16633716225624084,0.9798534512519836,1.3008707125395311,1.9106961337236241,0.16774317622184753,0.9654428958892822,1.4853273222571677,1.4063052850998625,-0.21922218799591064,0.9598715305328369,1.246445480182021,1.416214568284983,-0.2621322572231293,0.9901236295700073,0.0031142234802246094,1.3636528097491103,1.3918476672522488,177.55959729272016,178.95941425197825,1.0,-0.0029635734668428814,0.0031446688979583698,0.019674695082551392,0.013514438601081409,95.76577560067095,0.911920164367474,14,0.4666666666666667
1.3999261072485996,0.9227225606504593,-0.3972552418708801,0.9999738335609436,1.489637557324016,1.0720110731208135,-0.18733592331409454,0.9999962449073792,1.303413699106685,1.0644539681169283,-0.19246748089790344,0.9999938607215881,1.4351918037449152,1.4121671334690997,0.0027411277405917645,0.9999847412109375,1.3278170341836502,1.4062834866205873,-0.002868549432605505,0.999985933303833,1.4192578857023874,1.6958981587754625,-0.007869278080761433,0.9762346148490906,1.3167457384704455,1.685382725093572,-0.015062766149640083,0.9567815661430359,1.3939200993362348,1.9531741190003402,0.1604810655117035,0.9807460308074951,1.3190714715576388,1.9227225606504594,0.15914715826511383,0.9668086767196655,1.5039545953165707,1.4235421099808538,-0.2199113816022873,0.9632545113563538,1.263996058418441,1.4346230073080186,-0.2729121744632721,0.9902187585830688,0.002838224172592163,1.3815044189642827,1.4092253100448435,177.589642133523,177.16695162078213,1.0,0.0007059527182378132,-0.006063977397002509,0.029840984901819696,-0.07443573181841266,95.95727992590355,0.9197731537125611,15,0.5
1.3968494697929525,0.9205086198936022,-0.3938470184803009,0.9999754428863525,1.4862664424056664,1.0674888813248231,-0.185001403093338,0.9999963045120239,1.3009557966236354,1.0624003223580287,-0.1912771761417389,0.9999935626983643,1.4319006785009274,1.409981536323012,0.0029768573585897684,0.9999853372573853,1.3244272530017929,1.4035076076146313,-0.0030947800260037184,0.9999862313270569,1.4160209976214375,1.6932967364892595,0.0018579233437776566,0.9762282371520996,1.3108553337566606,1.682664243490552,-0.012444724328815937,0.9577481150627136,1.391159736544538,1.949351205365918,0.18322356045246124,0.9810513854026794,1.3189367760427415,1.920508619893602,0.1664976179599762,0.9677878022193909,1.4994873664701716,1.4178889065407223,-0.22164912521839142,0.9661414623260498,1.2621803326439616,1.4316893844707124,-0.2690979838371277,0.9897245764732361,0.001914888620376587,1.3781639657513602,1.4067445719688216,177.66237146700422,175.27057049591122,1.0,-0.004632713555514889,0.0022495961089183214,-0.04017174883826251,0.06248326558551525,95.572436209834,0.9203721605554916,16,0.5333333333333333
1.390765942447718,0.9123857744258117,-0.37256819009780884,0.9999754428863525,1.4783658261683823,1.0617951855658543,-0.16430088877677917,0.9999963641166687,1.2929620663490393,1.0566961838297808,-0.18631425499916077,0.9999924302101135,1.424321624418219,1.4022804019911221,0.006658858619630337,0.9999859929084778,1.3160723084734114,1.3937649658620546,-0.006777761038392782,0.9999863505363464,1.4082385753149436,1.68505384223378,0.002074586693197489,0.9766848087310791,1.3047516215553645,1.674305647435791,-0.016996467486023903,0.9585282802581787,1.3836914685908286,1.9396682351033256,0.1706099808216095,0.9819012880325317,1.313332226436433,1.9123857744258117,0.15695235133171082,0.9692001938819885,1.4910456007112929,1.4091424272925157,-0.1949208825826645,0.9687521457672119,1.2560565371626187,1.4223523776074494,-0.2679629921913147,0.9863483309745789,0.0019284188747406006,1.3701969664458153,1.3980226839265883,177.7484463225272,175.62509734502672,1.0,-0.008896978919000804,-0.013825375250503744,-0.03449165307671385,-0.12923338594036615,94.52123494981574,0.9198039475550404,17,0.5666666666666667
1.3894882385293723,0.9117056445374092,-0.3723123073577881,0.9999765753746033,1.477855034052734,1.0600850934496469,-0.15757527947425842,0.9999963641166687,1.2917463605759143,1.0559141207331721,-0.1791684329509735,0.9999916553497314,1.422696652127474,1.4018194266132973,0.00821584090590477,0.9999862313270569,1.3151125320911439,1.3928944961695349,-0.008328504860401154,0.9999861717224121,1.4065839353929146,1.6840104707383492,0.006195247173309326,0.9770849347114563,1.3045568341488745,1.6730080853343916,-0.019503630697727203,0.9602198004722595,1.3837086240286043,1.9379911505017064,0.17870666086673737,0.9825367331504822,1.3128127176400604,1.9117056445374092,0.15745842456817627,0.9705083966255188,1.4892067065323218,1.4070480242170273,-0.19324107468128204,0.9713773727416992,1.2553009786101035,1.4199659767931967,-0.24955038726329803,0.9852691292762756,0.001578688621520996,1.3689045921093088,1.397356961391416,178.12138106664747,175.86099625509362,1.0,-0.001556370231295954,0.003230114659613294,0.05411861864941793,0.12578143178572532,94.42660685211547,0.9207980181590415,18,0.6
1.3921654452719117,0.9163942132157461,-0.3924139142036438,0.9999779462814331,1.4817167183245197,1.0623606908871885,-0.16463060677051544,0.9999964237213135,1.2947984609881615,1.0588919250486495,-0.18355563282966614,0.9999909996986389,1.4254630406665232,1.4048265707826213,0.008030137047171593,0.9999865293502808,1.3180042906042837,1.3955650078155535,-0.008143932558596134,0.9999860525131226,1.409240115469288,1.6889959738201648,0.003125549526885152,0.9769707322120667,1.3058971070892187,1.6743864244125235,-0.037437837570905685,0.9615674018859863,1.3865534289285713,1.9421891298431357,0.1783123016357422,0.9830211400985718,1.3166442919867714,1.916394213215746,0.12964004278182983,0.9716898798942566,1.492312792264571,1.4105597915284278,-0.208400160074234,0.9737396240234375,1.2583451322189314,1.4218224896820413,-0.25179535150527954,0.9840068817138672,0.0013100802898406982,1.3717336656354033,1.4001957892990875,178.14724804529095,174.9708787799064,1.0,-0.0009630356458848473,-0.0013608310578328642,0.0045959369199042276,-0.035414735565434445,94.40215620478422,0.9145415122687649,19,0.6333333333333333
1.3851385891920653,0.9128502624133388,-0.41363316774368286,0.9999794363975525,1.4744605162660929,1.0555713110457068,-0.18473286926746368,0.9999964833259583,1.2889839017810336,1.0535554111338652,-0.19558073580265045,0.9999905228614807,1.4184848157609005,1.398135284727799,0.007992505095899105,0.999987006187439,1.3115764631040758,1.3885221406959598,-0.008100374601781368,0.9999862909317017,1.4025302418365204,1.6817694493148587,0.00464635668322444,0.9768967628479004,1.300309398383306,1.6660630538119146,-0.03177740052342415,0.9628639817237854,1.3796527465536774,1.9330606250404958,0.1731572300195694,0.9835194945335388,1.3119955390714122,1.9128502624133388,0.125180184841156,0.9731835126876831,1.4852130819872338,1.4029593706006742,-0.22507433593273163,0.9756603240966797,1.2526615761293198,1.4138185902130525,-0.26670241355895996,0.9810919761657715,0.0007649660110473633,1.3650306394324883,1.3933287127118794,178.01766972521517,174.96418628531208,1.0,-0.0018590873280613651,-0.002089065099861702,-0.0069035328245405396,-0.005631473236390932,94.14205192911815,0.9073951592149996,20,0.6666666666666666
1.3807931272556047,0.9117007934654936,-0.4108080267906189,0.9999806880950928,1.4694675273569509,1.049960875579017,-0.1887633204460144,0.9999966621398926,1.284961784593481,1.0492824423034193,-0.19518449902534485,0.9999886751174927,1.413977714191133,1.390617216906197,0.007339504547417164,0.9999874830245972,1.3069971251341013,1.3798700195442024,-0.007431080099195242,0.9999861717224121,1.3981481785965224,1.6763499804338746,-0.0049784183502197266,0.9775421619415283,1.2965955255191912,1.6601712454844844,-0.0357731431722641,0.9643998742103577,1.3777109340268463,1.9272572332418367,0.14932361245155334,0.984235942363739,1.3085566212660529,1.9117007934654935,0.1080210953950882,0.9748959541320801,1.4802034501209436,1.3985130371151937,-0.1758902668952942,0.9777368307113647,1.2491805168056496,1.4028348097576009,-0.23781780898571014,0.9600653052330017,0.0002582371234893799,1.360487419662617,1.3852436182251997,178.51427809276237,175.15224565498227,1.0,-0.0026343955968519527,-0.029161713194088928,-0.005997040371128658,-0.2079236481252412,93.51505625939521,0.8867360661649605,21,0.7
1.3703432103492168,0.9047385877326155,-0.41812238097190857,0.9999814033508301,1.4583847376674872,1.0421162287067918,-0.19930657744407654,0.9999967813491821,1.2744334292207302,1.04103416310091,-0.19682791829109192,0.9999862313270569,1.403536245117317,1.3792604195837241,0.00594823993742466,0.9999880790710449,1.2973386020492714,1.369387056701497,-0.0060268607921898365,0.9999862909317017,1.3876972980148736,1.6641617182101258,-0.007002412341535091,0.9781873226165771,1.2874726228929858,1.6482972778223262,-0.031051436439156532,0.9658712148666382,1.3680063776738511,1.9133088395712994,0.15215739607810974,0.9847858548164368,1.2997509041761033,1.9047385877326155,0.1087268739938736,0.9766193628311157,1.4692363276518283,1.3873410138073343,-0.18653333187103271,0.9792563915252686,1.240336470950518,1.3861104964483113,-0.22602605819702148,0.9189408421516418,0.00041490793228149414,1.3504374235832943,1.3743237381426106,178.6631732648116,175.23290325681674,1.0,-0.0007715727824694032,-0.005880900655026411,0.013673029155389283,0.17108400575403257,93.9286340303774,0.8785849662164371,22,0.7333333333333333
1.354931810761142,0.8962570921899777,-0.4027029573917389,0.9999813437461853,1.4450389504795087,1.0320696658886352,-0.1955079287290573,0.9999968409538269,1.262698621950159,1.0326032963543135,-0.18313051760196686,0.9999843239784241,1.3907275698624184,1.3666635163366947,0.004509056452661753,0.9999886751174927,1.285368288593641,1.357278305926618,-0.004602626897394657,0.9999865889549255,1.3753135984031755,1.6495495913929596,-0.010765220038592815,0.9785284996032715,1.276063492474293,1.6337230730552277,-0.03338436782360077,0.9671774506568909,1.3565225348340613,1.8962570921899777,0.13909707963466644,0.9852911829948425,1.2880826560316456,1.8963672382012247,0.08531516045331955,0.9782106876373291,1.4558229382072405,1.3743073414165101,-0.20033040642738342,0.9804979562759399,1.2295613870294368,1.374557519209888,-0.2264648675918579,0.8937534689903259,0.00020647048950195312,1.3380479292280298,1.3619709111316562,178.76320422373013,175.45207075488744,1.0,-0.0019179944547595721,-4.647249501511377e-05,-0.008590938174393267,0.04306514798193313,94.12948903449626,0.8717562526971699,23,0.7666666666666667
1.3533817443765972,0.8962837495643199,-0.334939569234848,0.9999757409095764,1.444869758118093,1.0282788275823556,-0.14113008975982666,0.9999967813491821,1.2627764522831564,1.0323282553730673,-0.1399918496608734,0.9999781847000122,1.390751372512772,1.3657868335056798,0.004458478186279535,0.9999890923500061,1.285153600113999,1.3573892698482388,-0.004557471256703138,0.9999865293502808,1.378641448248903,1.6502693803039843,-0.015585042536258698,0.9782060384750366,1.2762810151298953,1.6337441532207593,-0.05616364628076553,0.9680245518684387,1.360884570279779,1.8962837495643199,0.13004137575626373,0.9853743314743042,1.2884229823436413,1.8966189681168797,0.05835990980267525,0.9793580174446106,1.4554973878448614,1.3735312139540885,-0.18059740960597992,0.981509268283844,1.232635436344485,1.3687489577375829,-0.21351560950279236,0.8463042378425598,0.001566767692565918,1.3379524863133854,1.3615880516769594,178.30916162915324,175.51654242103967,1.0,-0.0008798014863718042,-0.003076952791909946,0.007926909257315201,-0.023137972695729456,94.56283514814429,0.8701549557962218,24,0.8
1.3518988414632267,0.8969033258234426,-0.38130971789360046,0.9999736547470093,1.445211288876013,1.0284737610991768,-0.17525120079517365,0.9999968409538269,1.262208169857086,1.0331709357981391,-0.17534059286117554,0.9999750852584839,1.391239162796145,1.3662862408733254,0.0052862707525491714,0.9999895095825195,1.285608593945035,1.359143471788597,-0.005381690803915262,0.9999866485595703,1.3792827181078773,1.6507869975127982,-0.001637101755477488,0.9770342111587524,1.2769933828719013,1.6345990735404254,-0.05462535470724106,0.9686523079872131,1.3607145388814064,1.8969033258234427,0.14865781366825104,0.9851629734039307,1.2886542604504085,1.9036576044578548,0.05502195283770561,0.9804907441139221,1.4558683478137588,1.3748683200754481,-0.19327709078788757,0.9821302890777588,1.2346471532788224,1.3701902539904642,-0.2151242047548294,0.7981986403465271,0.0018168091773986816,1.33842387837059,1.3627148563309612,178.09200857423866,175.7269676090226,1.0,0.0003432627976145448,0.005272938687865441,0.009308316440786595,0.06354101519131598,95.20893074870968,0.8665956482145086,25,0.8333333333333334
1.345616020639544,0.8953240918720715,-0.37810587882995605,0.9999738335609436,1.4431099793807707,1.0265727664271298,-0.1739291250705719,0.9999969601631165,1.2597373456751173,1.0320704581137852,-0.1692993938922882,0.9999728798866272,1.3886869407545732,1.3644792759661781,0.005275937728583813,0.9999899864196777,1.2832463143781496,1.357545409859125,-0.00537027046084404,0.9999868869781494,1.377377759734114,1.6492002392187655,0.0015437813708558679,0.9770417809486389,1.275319191765605,1.635943173539179,-0.048525188118219376,0.9698771238327026,1.3599702238505296,1.8953240918720715,0.15080717206001282,0.9853336215019226,1.285416581381627,1.9069776962050953,0.06937771290540695,0.9817140102386475,1.454001481728174,1.3736760555620364,-0.18179993331432343,0.9830678701400757,1.2334736060628353,1.3680253894461187,-0.20895056426525116,0.7537582516670227,0.0021292567253112793,1.3359666275663615,1.3610123429126515,178.22899909912385,176.23542836515375,1.0,-0.005315559918081692,0.0007796313492768394,-0.043829883498795824,-0.03475124076707801,95.38705189225121,0.8620851288542586,26,0.8666666666666667
1.3404233588119596,0.8930838360007387,-0.35546624660491943,0.9999716281890869,1.439632686019602,1.0253549719902648,-0.1494927555322647,0.9999969601631165,1.2569552469039738,1.0292918512739275,-0.16064301133155823,0.9999698400497437,1.385809481848525,1.362770126812133,0.009568401612341404,0.9999904632568359,1.2807147018659504,1.357866684373286,-0.009658588096499443,0.9999873042106628,1.3751719843779047,1.6472126714838815,0.02589140459895134,0.9755216240882874,1.2739366940711951,1.6382774379782237,-0.0470089465379715,0.9706851243972778,1.3578273363303939,1.8930838360007387,0.18501600623130798,0.9846593141555786,1.282125621239889,1.9125594264961268,0.053907088935375214,0.9826903343200684,1.4522632540846843,1.3724372953969015,-0.17433194816112518,0.9823651909828186,1.2324747697966574,1.3631360943516884,-0.21848483383655548,0.7038845419883728,0.0015266835689544678,1.3332620918572375,1.3603184055927096,178.10656396124077,176.90522528395653,1.0,-0.008179243527717829,0.008263393396828172,-0.023110223234807662,0.06026130249037689,96.39191941420135,0.861095644889245,27,0.9
1.3369146769978169,0.8934576673931062,-0.36490219831466675,0.9999685883522034,1.439609524499002,1.0262165988708658,-0.15759333968162537,0.9999969005584717,1.255918999244582,1.0285464007396157,-0.1676756888628006,0.999966025352478,1.3870789279141622,1.364616569758921,0.012014735490083694,0.9999908208847046,1.2812466990370364,1.36090633547162,-0.012105058878660202,0.9999875426292419,1.3758106664965906,1.6489848786372716,0.027536550536751747,0.9738698601722717,1.2758582195968473,1.6460407562612416,-0.04432845860719681,0.9707768559455872,1.3591493095799148,1.893457667393106,0.1992844194173813,0.9834731221199036,1.2835014899484163,1.9172079059856513,0.06861655414104462,0.9834190607070923,1.453772670330843,1.375821898906617,-0.17316606640815735,0.9816880822181702,1.234169668323088,1.362268380588826,-0.2561056315898895,0.6519188284873962,0.0009025037288665771,1.3341628134755992,1.3627614526152705,178.37038750861447,177.30280769184836,1.0,-0.003982727141513542,0.007314685628378276,0.031396058628092194,-0.007149229656713472,96.81589273300159,0.8647311132444033,28,0.9333333333333333
1.3371968383583668,0.8954835002762899,-0.3667336106300354,0.9999673366546631,1.4421434566610005,1.0292604097917335,-0.16003161668777466,0.9999969005584717,1.2576191910360017,1.0306911289470653,-0.16891171038150787,0.999964714050293,1.3905602475828593,1.368732848597257,0.01261911541223526,0.9999910593032837,1.283764983640601,1.3654229264005688,-0.012715156190097332,0.9999876618385315,1.3798344452446472,1.6510658012748765,0.023149078711867332,0.9719769358634949,1.281581132563796,1.6505234845592909,-0.04244214668869972,0.970632791519165,1.3624604017356914,1.8954835002762898,0.18840117752552032,0.9822165369987488,1.2873318658063986,1.9248170626358059,0.06788751482963562,0.9838958382606506,1.4583063158831278,1.380066712363872,-0.1761898696422577,0.9819653034210205,1.2379693927495774,1.3671293566578906,-0.2539460361003876,0.6242514252662659,0.0005525648593902588,1.3371626156117302,1.367077887498913,178.1096746495303,178.3600615397458,1.0,-0.007465796528454524,0.001692687419025875,-0.02582840477072235,-0.041996286279692006,96.86485510427669,0.8681566087728607,29,0.9666666666666667
1.3367537301913657,0.8948876651465589,-0.35876360535621643,0.999965488910675,1.4400622490926895,1.0295358268781234,-0.14715495705604553,0.9999969005584717,1.2563456164463067,1.0306218827602984,-0.16980081796646118,0.9999628663063049,1.390116644501001,1.3704072616943954,0.016507398337125778,0.9999912977218628,1.2822603051823203,1.3680326335404187,-0.016608035191893578,0.999987781047821,1.3799767785322747,1.6514742328765601,0.03200025483965874,0.9696804285049438,1.2820691340325088,1.6536750550437078,-0.04541320353746414,0.9704919457435608,1.3595959427570137,1.894887665146559,0.2000884711742401,0.9809474349021912,1.2854843599308974,1.9308136404667262,0.060897309333086014,0.9843664169311523,1.458528903657767,1.3816342640443264,-0.16333912312984467,0.982154130935669,1.2374070925191187,1.3678967993766447,-0.25695738196372986,0.5893861055374146,0.00041937828063964844,1.3361884748416606,1.369219947617407,177.27995405693852,179.25562391791345,1.0,-0.008976716382370957,0.014191126177105438,-0.011242216614863902,0.0930737966393177,97.07459603272292,0.8722482747315171,30,1.0
1.3345598970130736,0.8942244614618844,-0.32326191663742065,0.9999587535858154,1.437056321206672,1.0301698108929405,-0.11209969222545624,0.9999967217445374,1.2517979291866164,1.0272244847530205,-0.15714365243911743,0.9999558925628662,1.3880681205580063,1.3719563613568893,0.02287238836288452,0.9999915361404419,1.2796662364747524,1.3719719401963828,-0.022973041981458664,0.9999877214431763,1.3774536865009972,1.6510188792397773,0.04859016090631485,0.964089035987854,1.281453407007362,1.655701940089953,-0.04923783242702484,0.9681962132453918,1.358280762462339,1.8942244614618844,0.20028968155384064,0.9785728454589844,1.283839745876736,1.936206657470524,0.045267485082149506,0.9841023087501526,1.4574578141222334,1.3809765094237325,-0.13758936524391174,0.9797897338867188,1.2358201325805516,1.3607453040210526,-0.2523098886013031,0.5398160219192505,0.001138150691986084,1.3338671785163794,1.371964150776636,177.67070868848492,179.87347145987462,1.0,-0.010435358427101757,0.02861970437042648,-0.011243194287917002,0.11080333841780891,98.1648748688877,0.8791605692592273,31,1.0333333333333334
1.3301999914284544,0.8942132508080531,-0.33988022804260254,0.9999541640281677,1.432306834204414,1.0298224271719234,-0.12622560560703278,0.999996542930603,1.2487007016642673,1.0239563140996686,-0.16383522748947144,0.9999541640281677,1.3856171929174366,1.372555298032337,0.023928482085466385,0.9999917149543762,1.276815834173273,1.3729716963243177,-0.024022595956921577,0.9999879002571106,1.3732165095370779,1.6517681588042261,0.05963117629289627,0.9602320790290833,1.2793476005376023,1.6558317806399614,-0.050629425793886185,0.9678621292114258,1.3567848871932164,1.8942132508080531,0.2171250581741333,0.9772716164588928,1.2826747015144195,1.938855587645751,0.040229275822639465,0.9844537973403931,1.4566894902057757,1.3822618027563995,-0.15654537081718445,0.9774130582809448,1.235088054132703,1.3607948597858532,-0.2748176157474518,0.5128247141838074,0.0022680163383483887,1.3312165135453546,1.3727634971783274,178.66573689001225,179.83930521511925,1.0,-0.015404096765967117,0.012059491292039285,-0.039367638192057165,-0.13094271210970534,97.97678612579784,0.879860056543774,32,1.0666666666666667
1.3277934429694753,0.893487155895174,-0.3275609612464905,0.9999539256095886,1.4264035736152225,1.0290393983251682,-0.11590860784053802,0.9999964237213135,1.2431665886574015,1.0235316566117396,-0.16150249540805817,0.9999545812606812,1.3834073214494256,1.3761373612202847,0.022318681702017784,0.9999918341636658,1.2734082489328549,1.378450523381056,-0.022428449243307114,0.9999880790710449,1.3764467277860786,1.650858877387615,0.04375408962368965,0.9595820903778076,1.2753392478633216,1.6571409599176172,-0.058053720742464066,0.9681054353713989,1.355895728676894,1.893487155895174,0.19405601918697357,0.977238655090332,1.2816730198768018,1.9438616774015427,0.032772086560726166,0.9849869012832642,1.4556473418355729,1.383423036284939,-0.15359178185462952,0.9772196412086487,1.2280632451258588,1.3676302428619982,-0.26396891474723816,0.5229651927947998,0.0021308064460754395,1.3284077851911402,1.3772939423006705,176.60990027915548,179.1315062141912,1.0,-0.014788807267061931,0.04058762946086405,0.004552771557431824,0.21454362398421428,98.2661499540534,0.8935092283099831,33,1.1
1.3219747118119618,0.8929876675792298,-0.3243221938610077,0.9999513030052185,1.4237109273734345,1.028906153937481,-0.11769820749759674,0.9999961853027344,1.239945207719672,1.0239700442586792,-0.16053150594234467,0.999955952167511,1.3819482519234543,1.378079592323999,0.021442880854010582,0.9999918937683105,1.2714178923081152,1.3816923226055267,-0.021559694781899452,0.999988317489624,1.3766265543914091,1.6502833662651128,0.039462145417928696,0.9585879445075989,1.2734132786508983,1.659794635970958,-0.06087546795606613,0.9687777757644653,1.3545599651862212,1.8929876675792296,0.19160328805446625,0.9769923686981201,1.2808848902456667,1.9441615200415214,0.029863769188523293,0.9855329990386963,1.454902120509909,1.3846054819536338,-0.1583380401134491,0.9768204092979431,1.222419593036967,1.3760076735678526,-0.2594994902610779,0.5486870408058167,0.0019106268882751465,1.3266830721157847,1.3798859574647628,175.92498502735492,178.9060161467188,1.0,-0.008095782433329694,0.025379687233796123,0.05154846169073909,-0.11710145536267055,98.69249689821787,0.9037713746695818,34,1.1333333333333333
1.3202241890974524,0.8924040999555383,-0.32508334517478943,0.9999511241912842,1.4169010434260956,1.027015054028877,-0.1157233938574791,0.9999961256980896,1.235757754747851,1.0244112981627889,-0.14683543145656586,0.999955415725708,1.3786167444040833,1.3787975768149148,0.021260250359773636,0.9999920725822449,1.2672579912150845,1.3815656208499925,-0.021384943276643753,0.9999885559082031,1.3718131365589423,1.653991417616832,0.03889290988445282,0.9588983654975891,1.2677159973892418,1.6605946477607791,-0.05787675455212593,0.9700649976730347,1.3526439776112547,1.8924040999555383,0.21739225089550018,0.9765129089355469,1.2800264523189564,1.9426662761712592,0.041528940200805664,0.9862694144248962,1.453989847837606,1.3855456267874515,-0.16117407381534576,0.9770497679710388,1.2042802954693863,1.3736402364579994,-0.24972853064537048,0.5456179976463318,0.0010084211826324463,1.322937367809584,1.3801815988324537,176.81935390526684,177.5950723559476,1.0,-0.02234584589093036,0.00818518798003225,-0.10687811670896694,-0.12880990074314105,97.63493213943539,0.9076814559546518,35,1.1666666666666667
1.3184565784264044,0.8918796872709391,-0.2981674075126648,0.9999415874481201,1.414124213569677,1.025487749367335,-0.0988074317574501,0.9999956488609314,1.2313567868585766,1.0258633659198584,-0.12162232398986816,0.9999522566795349,1.3771027812631906,1.381951859363499,0.019032616168260574,0.999991774559021,1.2656985748349223,1.384127218656007,-0.019170185551047325,0.9999882578849792,1.3728674949315622,1.6602350123724137,0.036926887929439545,0.9586998224258423,1.2624879421391981,1.6641723295806308,-0.05533071607351303,0.970984160900116,1.3525258693299196,1.8918796872709391,0.2106308490037918,0.9757353067398071,1.2797974702636896,1.9430463418172192,0.045374251902103424,0.9867615103721619,1.4538550717276784,1.3889253526551535,-0.16217508912086487,0.9768683910369873,1.200666198011718,1.373475438132737,-0.2243167906999588,0.5566189885139465,0.00014546513557434082,1.3214006780490564,1.383039539009753,175.85344330637744,175.79139476640523,1.0,-0.012432564022687805,0.021255950133909837,0.07606720025285975,0.10027707729008416,97.04798925585838,0.919014088591519,36,1.2
1.3073356032292776,0.888563464406789,-0.2992666959762573,0.9999422430992126,1.4050584189102748,1.0232533983519874,-0.11124475300312042,0.9999952912330627,1.2156337636240238,1.0273378588865136,-0.1391812264919281,0.9999549388885498,1.3692297314676938,1.382855253338119,0.015272235497832298,0.9999917149543762,1.2567358181313355,1.3845256382027207,-0.015414026565849781,0.9999886155128479,1.370368623254689,1.6599773420152577,0.033379316329956055,0.9604958891868591,1.258360260113542,1.665793188499037,-0.0538007915019989,0.9727912545204163,1.3504370950515214,1.888563464406789,0.21711663901805878,0.9763185977935791,1.2777741242003595,1.9418396913007074,0.0560062900185585,0.987615704536438,1.4514406013078203,1.3903460943402517,-0.1607804149389267,0.9764082431793213,1.175285694815415,1.3751084228976254,-0.21912014484405518,0.5961863994598389,0.0015844106674194336,1.3129827747995146,1.3836904457704198,174.78124014424696,176.30801682672183,1.0,-0.04979091161983228,0.02347365623683155,-0.29861776872190543,0.01799796251822233,96.54055163007192,0.9315998261852197,37,1.2333333333333334
1.2867085687201412,0.8686173958062696,-0.36413657665252686,0.9999443292617798,1.38628598512874,1.0123092829545017,-0.15161855518817902,0.9999953508377075,1.1969920447469196,1.0183301386282637,-0.17362219095230103,0.9999579787254333,1.3507845508399368,1.3687840479544313,0.014564784243702888,0.999991774559021,1.240975506584871,1.3701314159270155,-0.014696689322590828,0.9999890327453613,1.3570133317914554,1.6433373186312232,0.03655622527003288,0.9612118601799011,1.2473264712158911,1.6495486012973837,-0.050980132073163986,0.9741833209991455,1.3390118566099203,1.8686173958062697,0.24851088225841522,0.9751906394958496,1.2656620875682671,1.9265078101314312,0.06975413113832474,0.9881958961486816,1.4374713608226324,1.3802108847703674,-0.18513014912605286,0.9770349264144897,1.1565234558809265,1.365003048886025,-0.24549643695354462,0.6306540966033936,0.0023585259914398193,1.295880028712404,1.3694577319407235,174.131723826685,177.5144272132359,1.0,-0.03267133061069605,-0.005748989194077538,0.12585259416201552,-0.21935862271665513,96.39034108280126,0.948456400537089,38,1.2666666666666666
1.278318320747413,0.8668355094766157,-0.3557412028312683,0.9999464750289917,1.3773860311032844,1.0095682238176316,-0.14480473101139069,0.9999952912330627,1.1890599042774694,1.0194265527694852,-0.16877104341983795,0.9999610185623169,1.3467846528910314,1.3689901634897519,0.013098510913550854,0.9999917149543762,1.2348050593848858,1.3717776359350857,-0.01323652733117342,0.99998939037323,1.3541654566282182,1.6441501698513865,0.0281992144882679,0.9614195227622986,1.244064096205431,1.6515195700848695,-0.04744676873087883,0.97491055727005,1.3386607968525113,1.8668355094766156,0.23065285384655,0.9741747975349426,1.2652660224548673,1.9241942208259604,0.08143526315689087,0.9884474873542786,1.4363556774091726,1.3829856075619522,-0.18020138144493103,0.9767531752586365,1.1494387347523751,1.3707926773085177,-0.2281850278377533,0.6644541025161743,0.0038646161556243896,1.2907948561379587,1.370383899712419,174.48064418022952,177.4496016330193,1.0,-0.03026838169942892,0.014198309575029714,0.01743907191650749,0.1462009067923589,96.29240859784109,0.9589733586021622,39,1.3
1.2729652758183863,0.8645293446076852,-0.371450275182724,0.9999499917030334,1.369916207726116,1.0040094340338954,-0.16044014692306519,0.9999954700469971,1.1845098946195756,1.019469046303667,-0.1787075698375702,0.9999640583992004,1.3422232089625448,1.366548905755939,0.011892816051840782,0.9999918937683105,1.2299228378516693,1.3696086950315365,-0.012016117572784424,0.999989926815033,1.343783399295439,1.6430702431886317,0.0370914489030838,0.9621666073799133,1.2427491543780544,1.6494443359502537,-0.04759322479367256,0.9760977625846863,1.336103782269471,1.8645293446076852,0.24719543755054474,0.973385214805603,1.263348025100325,1.925042072292362,0.07372663915157318,0.9889739751815796,1.435008520759157,1.380840121644429,-0.19662262499332428,0.9765311479568481,1.152181350790133,1.374819554587983,-0.24915890395641327,0.6941633820533752,0.006067931652069092,1.286073023407107,1.3680788003937376,177.6906583005215,178.34984218248437,1.0,-0.02118203517741433,-0.0041084933318981795,0.06141838200084933,-0.12413715320813455,95.92884399345235,0.9560316077605172,40,1.3333333333333333
1.2612756774591902,0.8549810014260072,-0.3877943456172943,0.9999537467956543,1.3575758088500678,0.9962602624101078,-0.1718740165233612,0.9999956488609314,1.1744400100254095,1.0141528838688654,-0.19008369743824005,0.9999669790267944,1.3314497669726815,1.3584946536437061,0.011092599481344223,0.9999921321868896,1.2190710603018713,1.3624366821212472,-0.011208371259272099,0.9999904632568359,1.3323155840579068,1.634221665792188,0.046413157135248184,0.9629459381103516,1.2350174440010024,1.6408171947556653,-0.04518742486834526,0.9772294163703918,1.3290216720165229,1.8549810014260073,0.2630738615989685,0.9726780652999878,1.25655137697549,1.920430790455798,0.07107575982809067,0.9895493984222412,1.4276344762290079,1.373301923606561,-0.2024976909160614,0.9767009019851685,1.1444450604991765,1.3738199635272097,-0.2858458161354065,0.7218776345252991,0.007059246301651001,1.2752604136372763,1.3604656678824767,178.9652476948575,178.87463578935794,1.0,-0.028503567526645426,-0.0038635491289981936,-0.05055255138059106,0.00152248277249897,96.1342986033671,0.9585696890705265,41,1.3666666666666667
1.2584918582347284,0.8528201182579839,-0.39060017466545105,0.9999575018882751,1.3514869950483563,0.9902263796123247,-0.1741250604391098,0.999995768070221,1.168655671702239,1.013726195225754,-0.18995031714439392,0.9999698400497437,1.3286524956945018,1.3572613212826181,0.009611527435481548,0.9999921917915344,1.2146130621771443,1.3611063435773167,-0.009727883152663708,0.9999908804893494,1.3321841438417528,1.6328522979789633,0.04341203719377518,0.964177131652832,1.231471413892528,1.6401368883486858,-0.035555168986320496,0.9783347249031067,1.3313869719377678,1.852820118257984,0.2599044740200043,0.9723951816558838,1.255356531775399,1.9181870067772442,0.08506520837545395,0.9900383949279785,1.4263346591354225,1.3710455571440625,-0.22703437507152557,0.9766402840614319,1.1412940027645155,1.3852658902656119,-0.2721903920173645,0.7488623261451721,0.00927916169166565,1.271632778935823,1.3591838324299674,179.05816399810203,178.54768915457808,1.0,-0.019823993586569947,-0.0011935188776673554,0.06673798732603736,0.020561418887848876,95.49106571540061,0.9615832651373292,42,1.4
1.2593676945062648,0.8558803397896481,-0.34566304087638855,0.9999602437019348,1.3536162457006324,0.9915324799441201,-0.13933588564395905,0.9999958872795105,1.1723890846393354,1.0185986387759371,-0.15344540774822235,0.9999721646308899,1.3307633741693474,1.3637021727705598,0.009523955173790455,0.9999923706054688,1.216162960483769,1.3678441846497462,-0.009657343849539757,0.9999912977218628,1.3391996543597013,1.641817956962839,0.01307770423591137,0.9658732414245605,1.23333836558028,1.6485680426639506,-0.03246968239545822,0.979235827922821,1.3408590068285644,1.855880339789648,0.24018041789531708,0.9721953272819519,1.259913861378556,1.9259942750671677,0.09123428165912628,0.9904606938362122,1.4298730607493306,1.3746535654354242,-0.19207647442817688,0.9777320623397827,1.1423207898954504,1.3914484811018148,-0.2414388358592987,0.7722209692001343,0.010638117790222168,1.2734631673265582,1.365773178710153,178.70667206082075,178.02929911664376,1.0,-0.031168744985456093,0.002277038249743454,-0.08644896066278147,0.026704402198519123,95.58374830693343,0.9700132552293441,43,1.4333333333333333
1.2584229386318324,0.8573886638444143,-0.32578933238983154,0.9999614357948303,1.355059270953277,0.9908162430042139,-0.12383931875228882,0.999995768070221,1.172644681011629,1.021922234488769,-0.12973639369010925,0.9999741911888123,1.3328116669871928,1.3684052772388342,0.006327045150101185,0.9999924898147583,1.2171509197069985,1.3725030916566654,-0.006477192044258118,0.9999917149543762,1.34400172962367,1.647030488116597,0.00834689475595951,0.9675046801567078,1.2384246974680062,1.65576061448502,-0.02370085008442402,0.9801912307739258,1.3468224098855113,1.8573886638444141,0.22748443484306335,0.972610592842102,1.2648407127364083,1.9316257001872035,0.09727375954389572,0.9909669756889343,1.429550851666208,1.374772994500746,-0.1623973846435547,0.9777683019638062,1.1427533667410774,1.3940047117334455,-0.20316556096076965,0.7937445640563965,0.012185871601104736,1.2749812933470956,1.3704541844477498,178.46836964394575,178.82528481473656,1.0,-0.02072084823333976,0.0014776771018488526,0.08190733004700008,-0.006263923390411959,95.40109572449892,0.9778457208306873,44,1.4666666666666666
1.2629641516440413,0.8605951993421986,-0.3358674645423889,0.9999629855155945,1.360163417940191,0.9954573038101606,-0.13024118542671204,0.9999957084655762,1.174688087666935,1.0258121968910976,-0.12660594284534454,0.9999760389328003,1.3371200589015655,1.3756029342961498,0.0006129631656222045,0.9999927282333374,1.2208698747769027,1.3801465468140153,-0.0007525311666540802,0.9999921917915344,1.3494487943299454,1.6543603049142597,0.010431161150336266,0.96903395652771,1.2437651704786294,1.6675406145216458,-0.016402998939156532,0.981112003326416,1.353791883731413,1.8605951993421987,0.24232535064220428,0.9727070927619934,1.2707398821922873,1.9386006769984179,0.1109171062707901,0.9914524555206299,1.4331990378250283,1.3803217181883554,-0.17031611502170563,0.9772111177444458,1.1457953486731227,1.3972146835151902,-0.1931861937046051,0.8131597638130188,0.01184701919555664,1.2789949668392342,1.3778747405550824,178.6740128834286,178.87174410184195,1.0,-0.006141042541029674,0.01763896189594027,0.1143804454534538,0.12606908101417486,95.70711795456113,0.9899429840586792,45,1.5
1.2605276217642547,0.8590251655576578,-0.339931458234787,0.9999639987945557,1.3560134688233736,0.9945663616876491,-0.1339169442653656,0.9999957084655762,1.1721650829079906,1.0251959306588965,-0.1358432173728943,0.9999774694442749,1.3335444689353264,1.3745811406710282,0.0022601790260523558,0.999992847442627,1.217865002389012,1.3790911497577447,-0.0024008038453757763,0.9999924302101135,1.348907102344727,1.653257546336188,0.014411578886210918,0.9695695042610168,1.2434634897830337,1.6661656139013106,-0.021086327731609344,0.9814367890357971,1.3528568135074077,1.8590251655576577,0.23982270061969757,0.9721747636795044,1.269956759683092,1.9375231947085654,0.09850277006626129,0.9917111992835999,1.4317184029021326,1.378709274136405,-0.16760890185832977,0.9777594804763794,1.1433336261249933,1.3950942108678412,-0.20414085686206818,0.8302540183067322,0.011961519718170166,1.2757047356621691,1.3768361452143865,177.94429922023517,179.51935213871667,1.0,-0.018185735146368554,-0.0014332930596544977,-0.0873024001588278,-0.13811862557659113,95.61643445332467,0.9911452331024768,46,1.5333333333333334
1.2621478994424518,0.8610127647207287,-0.34005698561668396,0.9999662637710571,1.356931572225069,0.9969279011250392,-0.1264493316411972,0.9999957084655762,1.172236694174423,1.0273225443782457,-0.13984152674674988,0.9999790787696838,1.3338137375622365,1.3763523032328624,0.0032594469375908375,0.999992847442627,1.2171052611452302,1.3808285978692323,-0.0034239075612276793,0.9999926686286926,1.3520581869354729,1.6567183424983365,0.0142668467015028,0.9704738855361938,1.2459256143356456,1.6692423002500938,-0.02460896037518978,0.9820380210876465,1.355919266391844,1.8610127647207286,0.2381448745727539,0.9713656902313232,1.27136985567988,1.9425055257703574,0.09685433655977249,0.9919215440750122,1.430208870295447,1.3715746724690443,-0.15659396350383759,0.978459358215332,1.1394982829959235,1.3968508080244129,-0.20926114916801453,0.8462795615196228,0.011843830347061157,1.2754594993537334,1.3785904505510473,177.3595398222634,179.6131598438174,1.0,-0.022956163026569165,-0.009529234870375118,-0.035724048377689666,-0.06111451096173864,95.68312102517132,0.9870099510154902,47,1.5666666666666667
1.2623982446050663,0.8598769350057507,-0.35024064779281616,0.9999677538871765,1.3562033456752853,0.9997793378469746,-0.13822431862354279,0.9999957084655762,1.1690040580289507,1.026338717474586,-0.15396253764629364,0.9999805092811584,1.330394889745712,1.3749798000149909,0.004032538738101721,0.999993085861206,1.213505532331781,1.3794069490699068,-0.00419135857373476,0.9999930262565613,1.3518073704979439,1.6549740939728899,-0.0011855775956064463,0.972254753112793,1.2446820077291352,1.6693565597058837,-0.019312115386128426,0.9825708270072937,1.3543737141253043,1.8598769350057507,0.2208586484193802,0.9720028042793274,1.270764839625299,1.9446811901789143,0.10719828307628632,0.9922756552696228,1.4275433891857665,1.370865000988319,-0.1811988651752472,0.9778280854225159,1.1327547981220183,1.401133307981636,-0.2369251549243927,0.8604386448860168,0.010359466075897217,1.2719502110387464,1.377193374542449,176.34440837314438,179.2746751300879,1.0,-0.017673513342559583,-0.0003966884270627668,0.041067862995655055,0.07122727892723323,96.10396015253089,0.9824318757282227,48,1.6
1.240299950803745,0.8424034190458929,-0.3311596214771271,0.9999693632125854,1.330114524828348,0.9821556065155205,-0.1213315948843956,0.9999955296516418,1.1463971717594734,1.0018024366968787,-0.14168789982795715,0.9999817609786987,1.3048008564876576,1.3461678894431441,0.004510733298957348,0.9999929070472717,1.1890034549955588,1.3531442260821207,-0.004667019471526146,0.9999930262565613,1.3278883473923546,1.6223636942897446,-0.01749476045370102,0.9735407829284668,1.221834956509535,1.6404844273777346,-0.020126165822148323,0.9823825359344482,1.3301981321934513,1.8424034190458929,0.16903166472911835,0.9729118943214417,1.2482188591647445,1.9097271615487177,0.11172258853912354,0.9922764301300049,1.392974954940959,1.3462138209579046,-0.1430392861366272,0.9770825505256653,1.1047864466006738,1.375997106014364,-0.23188352584838867,0.873766303062439,0.0078015923500061035,1.2469021557416082,1.3496560577626324,175.82311465390663,179.07836703140012,1.0,-0.019264618151203783,-0.024082804944219906,-0.014734719373022877,-0.18330473894565905,97.42566188287958,0.9605887361374311,49,1.6333333333333333
1.2232252062096982,0.8290578733166536,-0.33405113220214844,0.9999707937240601,1.3106557516475699,0.9684204259460722,-0.12596647441387177,0.9999953508377075,1.1291795320465365,0.9832179732469125,-0.14362311363220215,0.999983012676239,1.283082336705511,1.3247619519533067,0.004739379044622183,0.9999924898147583,1.1706019999363972,1.331682078005063,-0.004900334402918816,0.999992847442627,1.3081915152465382,1.5974669838914968,-0.017069293186068535,0.9742299914360046,1.2040035706282546,1.6162015408133608,-0.021589677780866623,0.9816945195198059,1.3060038768088877,1.8290578733166536,0.1627248376607895,0.9733845591545105,1.2312577146056298,1.880597984088961,0.10772959887981415,0.9920904636383057,1.3663349216761838,1.3267099707649266,-0.15316995978355408,0.9770045280456543,1.084602664067336,1.3550244315874873,-0.23509974777698517,0.8860461711883545,0.005962967872619629,1.2268421683209543,1.3282220149791848,174.19814508935096,179.18962434329262,1.0,-0.014030266780027575,-0.013093695372880703,0.037150055332493596,0.07978371593209774,97.94525345475289,0.9449392418162402,50,1.6666666666666667
1.20086654588035,0.8111955834572157,-0.3042641580104828,0.9999688863754272,1.2848102290364372,0.9503705871212382,-0.10449395328760147,0.9999938011169434,1.108452382914062,0.9629264793450389,-0.11195826530456543,0.9999842047691345,1.2577869826187769,1.2946144929206873,0.0023447908461093903,0.9999924302101135,1.1468125035977834,1.3043917530128646,-0.0025209428276866674,0.9999932050704956,1.2839662879433222,1.5678111314131555,-0.028170835226774216,0.9752261638641357,1.1818751128333853,1.5862714172918493,-0.017173726111650467,0.9815893173217773,1.282537409870307,1.8111955834572155,0.15100547671318054,0.9743244647979736,1.212155292420217,1.845681168114358,0.11511184275150299,0.9921453595161438,1.3325069108293408,1.2928929285852053,-0.15166309475898743,0.9432404637336731,1.0650361651188969,1.3289954015881278,-0.19279086589813232,0.8968762159347534,0.005154848098754883,1.2022997431082802,1.299503122966776,174.1899234623876,179.56732746469243,1.0,-0.014856257984623878,-0.033015813628028495,-0.008551849421704978,-0.15891480785301526,99.52349888190335,0.9198595138616702,51,1.7
1.1726052217241638,0.7912710503678279,-0.2737877070903778,0.9999537467956543,1.2538587558051044,0.924765492914832,-0.07603754848241806,0.99998939037323,1.0825819233619933,0.9398566385451845,-0.09392394870519638,0.9999850988388062,1.2273564436835787,1.2640422941800862,0.0027865669690072536,0.999992311000824,1.1193206344977318,1.2736885813933385,-0.002954318420961499,0.9999935030937195,1.2533610438346496,1.539829428779146,-0.03153090551495552,0.9747769236564636,1.1531211160539037,1.553522460102972,-0.01687604933977127,0.9794086813926697,1.2520389609837463,1.7912710503678277,0.14085468649864197,0.9748495817184448,1.1840550771014229,1.8028791333689518,0.1276068091392517,0.9915128350257874,1.2965589566188465,1.2611061903634913,-0.13450786471366882,0.8764801025390625,1.0400108980781686,1.2966193282872445,-0.16602542996406555,0.9064167141914368,0.006347149610519409,1.1733385390906552,1.2688654377867123,174.31211728404458,179.81555571590636,1.0,-0.002056855352408219,0.0027794334086967618,0.0936232696504698,0.263361519199392,99.56882777809513,0.9009512782583352,52,1.7333333333333334
1.1590553122056604,0.7808887348256459,-0.28992241621017456,0.9999215602874756,1.2386197334005609,0.9093839221000221,-0.08683960884809494,0.9999818205833435,1.0706026323805922,0.927802462911025,-0.10866829007863998,0.9999854564666748,1.2120906031926106,1.2494635447851343,0.0030917352996766567,0.9999920725822449,1.1068649880776058,1.2587740067297626,-0.0032521761022508144,0.9999937415122986,1.2375998347321575,1.5211725613364286,-0.03549470752477646,0.9752268195152283,1.139671705234999,1.5356151500190829,-0.01829233393073082,0.9777715802192688,1.2374440907992732,1.780888734825646,0.1005002111196518,0.9765143990516663,1.171527922212068,1.7821582159476466,0.1088712215423584,0.9914944767951965,1.2683274684257888,1.2471722041898199,-0.14154505729675293,0.8110820651054382,1.027862897719514,1.2801977611809647,-0.18303057551383972,0.9151016473770142,0.007838428020477295,1.159477795635108,1.2541187757574483,174.60218439813548,179.3957626146807,1.0,-0.0008589776247176894,0.0008579458197630737,0.008647280839581807,-0.013915767037946824,99.51694622559504,0.8940274575966013,53,1.7666666666666666
1.157814834400976,0.7797735146053921,-0.2848108410835266,0.9998926520347595,1.2373300067374478,0.9066437193844967,-0.08699548244476318,0.9999765157699585,1.0694188624337384,0.9259831949182872,-0.10992170870304108,0.9999858736991882,1.211173769989143,1.24803466627742,0.003633157815784216,0.9999918341636658,1.1061887650593287,1.2571229818168643,-0.0038146700244396925,0.9999938607215881,1.2360800153926865,1.5188015917806075,-0.04503243416547775,0.9756850600242615,1.1388955663425282,1.5332675558493714,-0.022105198353528976,0.9756680727005005,1.238255330455621,1.7925965569704607,0.08751405775547028,0.9779253005981445,1.1709734552391962,1.7797735146053921,0.11059792339801788,0.9909295439720154,1.2679454225466629,1.2483503814145198,-0.13202786445617676,0.7557289004325867,1.027542333909813,1.2783747930348792,-0.17723901569843292,0.9228275418281555,0.00824064016342163,1.158681267524236,1.252578824047142,175.19969812428565,179.34044098484014,1.0,0.0051045428381858915,0.00020128583019385644,0.04675605951726352,-0.005140968115052368,99.32888437284169,0.8827895732977383,54,1.8
1.1580515629768122,0.7798353815920331,-0.289768248796463,0.9998962879180908,1.2376331436931773,0.9067541443989685,-0.09449846297502518,0.9999764561653137,1.0696874941641605,0.9220694853599203,-0.10285109281539917,0.9999862313270569,1.2117227509925037,1.247787556769822,0.001810033805668354,0.9999912977218628,1.1062492424337271,1.2566574032296296,-0.002006254158914089,0.999993622303009,1.2344938380180102,1.5185278416140413,-0.04639578238129616,0.9758041501045227,1.1388484600972664,1.5330339461731197,-0.017037810757756233,0.9726688861846924,1.2404599456307843,1.8046106051654462,0.055968381464481354,0.9792302250862122,1.171881951643194,1.7798353815920331,0.1084665060043335,0.9900525212287903,1.273046503675591,1.2481893073223165,-0.13956257700920105,0.7509593963623047,1.028136876916822,1.2781752579432288,-0.17007873952388763,0.9295719861984253,0.006525814533233643,1.1589859967131153,1.252222479999726,176.38705348458785,179.1035537768226,1.0,0.002140747223135453,-0.002876033546808832,-0.0224323394028612,-0.02329084788147768,99.15176971229724,0.8714674407157079,55,1.8333333333333333
1.156275085379765,0.7780934081339568,-0.2769497334957123,0.9998927712440491,1.2360100266448415,0.9054408060981107,-0.08551156520843506,0.9999752044677734,1.068298015795562,0.9176839553780086,-0.09418941289186478,0.9999864101409912,1.2100467567910127,1.2455301017573863,0.0017273860285058618,0.9999908208847046,1.1040465870964384,1.2543260070203275,-0.0019291106145828962,0.9999934434890747,1.231857747063603,1.5160239513765688,-0.04522440582513809,0.9753137230873108,1.1371452693796615,1.530759306403107,-0.016721397638320923,0.9691218137741089,1.2397106253594226,1.8046252595611196,0.051258426159620285,0.9802899956703186,1.1705672791849353,1.7780934081339568,0.1009158119559288,0.98909991979599,1.2731612667595216,1.2450532809538093,-0.14191730320453644,0.7305535078048706,1.0269017576656732,1.2760044539588242,-0.1607748568058014,0.9355183839797974,0.005224943161010742,1.1570466719437256,1.249928054388857,176.94862917154626,179.1320865780288,1.0,-0.0009483519594126224,-0.0025342336559178173,-0.023397677322035255,0.0025575597732257825,99.10917764104114,0.8680378775179667,56,1.8666666666666667
1.1533024271326284,0.7743721035885497,-0.26971226930618286,0.9998804330825806,1.2334439799745207,0.9018742175261465,-0.08478575944900513,0.999973714351654,1.0659468423842973,0.9137144274577907,-0.08594384044408798,0.9999864101409912,1.2071398325052307,1.2428314719978413,-0.0007000031764619052,0.9999900460243225,1.101139871931499,1.251948134813597,0.00049368612235412,0.9999930262565613,1.2262607367794354,1.513488485683702,-0.054740071296691895,0.9755344986915588,1.1350420046488168,1.5284593224351977,-0.016748594120144844,0.9658068418502808,1.2374862173497732,1.8040954698033445,0.030132021754980087,0.9815295338630676,1.1682379474211007,1.7743721035885498,0.09980116784572601,0.9880709052085876,1.2709305595444274,1.2341445973021148,-0.14199130237102509,0.7179843187332153,1.0248331157806705,1.272765622467289,-0.15263745188713074,0.940974771976471,0.005065709352493286,1.154139852218365,1.2473898034057191,178.17108624148744,179.3020367504625,1.0,0.0,0.0044452015803183335,0.006986108365034199,0.05149702571090525,99.32721300759096,0.8694673369958346,57,1.9
1.1526899153843209,0.7738707061284585,-0.2513101100921631,0.9998818635940552,1.2333950344414704,0.9015998663413378,-0.08099537342786789,0.9999741911888123,1.0655033258034312,0.9134104191104041,-0.06360500305891037,0.9999863505363464,1.2066996404442758,1.2432854969909397,-0.005248473025858402,0.9999889135360718,1.1006588258225751,1.252645362496911,0.005034647881984711,0.9999920129776001,1.2240837594283307,1.5193763988040334,-0.06002255529165268,0.9746353626251221,1.1350952143933672,1.5313497088399193,-0.011199078522622585,0.9580156207084656,1.2382347310641526,1.8100578143328032,0.0041084871627390385,0.9823216795921326,1.1678315622400357,1.7738707061284584,0.10063517093658447,0.9846294522285461,1.2710228716424352,1.2304889331323812,-0.15706102550029755,0.7219787240028381,1.0244604401686048,1.2716026160898577,-0.14093811810016632,0.9455012679100037,0.005056202411651611,1.1536792331334254,1.2479654297439253,179.18419261193358,179.35617776793848,1.0,0.0020635415708044067,0.010570005624374611,0.016031682580057657,0.047605416765606555,99.51159243923428,0.8679330832894968,58,1.9333333333333333
1.1535774854911671,0.7740268201669175,-0.2275838404893875,0.9998787045478821,1.233743691406904,0.9021835535067628,-0.05158570408821106,0.9999731779098511,1.0655879940517214,0.9127570023477446,-0.06495591253042221,0.9999864101409912,1.2070236418244553,1.2453265290677593,-0.004579358734190464,0.9999866485595703,1.1009555914173963,1.2538706176299665,0.00433077709749341,0.9999902844429016,1.2202008376019544,1.525741538396843,-0.059539277106523514,0.9715426564216614,1.1349999411688818,1.532211429709659,-0.013314694166183472,0.9426230192184448,1.2383692793786765,1.8180466996543305,-0.015431387349963188,0.9821879863739014,1.1678378700712315,1.7740268201669174,0.0915057510137558,0.9760783910751343,1.271721023254862,1.2289675793194903,-0.1291164606809616,0.7128686904907227,1.0272033002238299,1.2716859334517707,-0.1508478969335556,0.949980616569519,0.004526019096374512,1.1539896166209258,1.2495985733488628,179.1337648040547,179.23999099292635,1.0,0.0012952091069999125,0.01155067263757239,-0.006012751028250157,0.007661454215047615,99.0579519978163,0.8668144841903808,59,1.9666666666666666
1.1567390276386034,0.7742039098919602,-0.2551604211330414,0.9998867511749268,1.2340975377800785,0.902528160242081,-0.06992239505052567,0.9999740123748779,1.0665699913330606,0.9120847021868442,-0.07051045447587967,0.9999864101409912,1.2102588933960874,1.2457780961295677,-0.005357676185667515,0.9999855160713196,1.1038923519742512,1.2542160897027888,0.0051275817677378654,0.9999892115592957,1.2194415182121665,1.5262110684901289,-0.05842342972755432,0.9701367616653442,1.137285519011249,1.5325427318691798,-0.005316167138516903,0.9349551200866699,1.2378506352169636,1.8156385233796732,0.015793154016137123,0.9822741150856018,1.1677507130014746,1.7742039098919602,0.11156938225030899,0.9727105498313904,1.2724143647959183,1.2257449115066277,-0.19203291833400726,0.7206795811653137,1.0322255289865503,1.270954765009796,-0.15899430215358734,0.9536072015762329,0.004090249538421631,1.1570756226851693,1.2499970929161783,178.23603696672762,179.6564185689025,1.0,0.022687446620072185,0.0019424742844661963,0.1644448884871315,-0.0738703438253435,98.50854298727974,0.8700753217116306,60,2.0
1.160604154369693,0.7717348371013764,-0.24684467911720276,0.999891996383667,1.2362272041229934,0.8990763153195304,-0.05597900226712227,0.9999741315841675,1.0692845567442861,0.909639566315759,-0.0745711401104927,0.9999862313270569,1.211492554501207,1.2473189584145792,-0.0007669160841032863,0.9999842643737793,1.1050802240186388,1.2551385819088314,0.0005333352601155639,0.9999879598617554,1.2168240401128438,1.5280101183346695,-0.05453861504793167,0.9694647789001465,1.1394877356637918,1.5318731992641008,-0.008174711838364601,0.9304588437080383,1.2349941224870364,1.816611303628481,0.034571412950754166,0.982268214225769,1.1654986512039582,1.7717348371013764,0.12718282639980316,0.9691587090492249,1.2710487563761141,1.222634099366408,-0.176394522190094,0.7302880883216858,1.037440703321059,1.2689959383130953,-0.1927485167980194,0.9571028351783752,0.004527032375335693,1.1582863892599229,1.2512287701617053,177.48561485153382,179.10160693998327,1.0,0.021276921046756377,0.022388657712304322,-0.010800840323965314,0.1599384963758318,98.26550743773691,0.8805174844842966,61,2.033333333333333
1.1633890956077804,0.7686492615591521,-0.2330266237258911,0.9998961091041565,1.23536514465911,0.897656240889916,-0.05312160402536392,0.9999744892120361,1.0691560529271933,0.90800925265244,-0.05780954286456108,0.9999862909317017,1.211953790600087,1.2476767030061264,-0.001277731847949326,0.9999833703041077,1.1054109248265718,1.256608958131234,0.0010572847677394748,0.9999872446060181,1.2134673486261507,1.5308779441709066,-0.052302706986665726,0.9690645933151245,1.1387865937323178,1.533676423144347,-0.0015084986807778478,0.9268264770507812,1.2325620846148764,1.8153103828164867,0.04484923556447029,0.9821807742118835,1.1632489564876014,1.7686492615591523,0.1440323293209076,0.9664896130561829,1.2690861291284472,1.2214446587213315,-0.16257035732269287,0.7392656803131104,1.039129910283199,1.2665670954734023,-0.1632915437221527,0.960403561592102,0.00444522500038147,1.1586823577133294,1.2521428305686801,176.46555085443453,179.07471325087488,1.0,0.01973405476374354,0.0250707319874788,-0.011600783884947084,0.02102142018858149,98.61887785162966,0.8933125657024473,62,2.066666666666667
1.1647261330301382,0.7648006012899654,-0.244869202375412,0.9998801946640015,1.239274086230586,0.8959937032533399,-0.06223532557487488,0.9999698996543884,1.0705471379718896,0.9060535709942178,-0.061259519308805466,0.9999857544898987,1.2134121313687738,1.246512046277041,-0.0030354398768395185,0.9999825358390808,1.1069999956341892,1.2553018788440358,0.002822950016707182,0.9999869465827942,1.211521527362997,1.5319475140830319,-0.0532432496547699,0.9665133953094482,1.1373814656359749,1.5319777282662486,0.004313827026635408,0.9177101254463196,1.2304210533537432,1.8177050817137734,0.04416494816541672,0.9817432165145874,1.1612459580733856,1.7648006012899655,0.15702080726623535,0.9612853527069092,1.2667841000494169,1.2184318436978723,-0.18648934364318848,0.6868757605552673,1.0393139190574505,1.2640350251682066,-0.15692195296287537,0.9617498517036438,0.004326313734054565,1.1602060635014815,1.2509069625605385,175.8365666999212,179.58593521608776,1.0,0.026645680763579878,0.006113748405751657,0.054634766533903055,-0.14884870656151017,98.94176657848294,0.897706560502257,63,2.1
1.1634923845253833,0.7553634132788475,-0.2421661615371704,0.9998360276222229,1.2370757129692584,0.8926357169728618,-0.050004743039608,0.9999572038650513,1.0675159367568743,0.8996745346674075,-0.06797049939632416,0.9999847412109375,1.2116571120905366,1.2422420178160345,0.0005127968615852296,0.9999815225601196,1.1060733280642234,1.2508198067916296,-0.0007320409058593214,0.9999866485595703,1.2069648890898361,1.5268153752170057,-0.051356375217437744,0.9649352431297302,1.1349635361480506,1.5275369901877207,0.0019108543638139963,0.9091331958770752,1.2251845971719375,1.8175225288966967,0.04762197285890579,0.9819155335426331,1.1559617448807376,1.7553634132788476,0.1687387377023697,0.9559521675109863,1.259628562257756,1.213453487449049,-0.17616567015647888,0.6276591420173645,1.036379155032633,1.2589037720155036,-0.16080351173877716,0.963594913482666,0.0030389726161956787,1.15886522007738,1.2465309123038322,175.4691062619377,179.30565592369794,1.0,0.024657219661712068,0.003972065262146378,-0.014540357483718132,-0.01634217899028889,98.80304702697843,0.9081892520109451,64,2.1333333333333333
1.172030461865001,0.7541648723274026,-0.29665425419807434,0.9998304843902588,1.2471844431408114,0.8942762167832884,-0.06999741494655609,0.9999514818191528,1.071811808315058,0.8978368911727359,-0.10172128677368164,0.9999845027923584,1.2187298871509267,1.2445131940289922,0.0022686843294650316,0.9999808073043823,1.1131749585193016,1.252874745853797,-0.0024822840932756662,0.9999865293502808,1.2120355842022914,1.5339013264143058,-0.04359648376703262,0.9646443724632263,1.1389767273851712,1.5329433774291343,0.0013549502473324537,0.9067793488502502,1.226961582746906,1.822675303834534,0.08483871072530746,0.9823060631752014,1.1575003934408636,1.7541648723274026,0.1900791972875595,0.9541007876396179,1.269048276922626,1.215118667019588,-0.17952927947044373,0.585300862789154,1.0382706635279904,1.2600254125459096,-0.20145699381828308,0.9661571979522705,0.0015346705913543701,1.1659524228351141,1.2486939699413946,175.71599412523946,179.52280755837742,1.0,0.03920457302314104,0.00019455044779225018,0.11150740188355857,-0.029091932961693157,99.1739582518076,0.9152404209024331,65,2.1666666666666665
1.1700408861435958,0.7503143137382755,-0.32094767689704895,0.999839186668396,1.246632490804844,0.8924509157550861,-0.09464992582798004,0.9999516010284424,1.0704315314933017,0.8932651196103414,-0.1182740330696106,0.999984860420227,1.2176308254819586,1.2419106604469772,0.0024878066033124924,0.9999807476997375,1.1121178028777967,1.2501248733412753,-0.0026971998158842325,0.9999866485595703,1.2106322603437527,1.531416435256821,-0.038768261671066284,0.9654978513717651,1.1368079827857984,1.5304999729173718,0.004427414853125811,0.9088158011436462,1.2240972601005267,1.8176884407547669,0.09717117249965668,0.9829551577568054,1.1536280544288378,1.7503143137382755,0.19047591090202332,0.9548429846763611,1.2742006053398662,1.2119871507591589,-0.19532975554466248,0.5739985108375549,1.0362408346003518,1.2563901030071378,-0.21291008591651917,0.9687057137489319,0.0003516674041748047,1.1648743141798776,1.2460177668941261,175.92222968877573,179.34315876030027,1.0,0.010618753966701366,-0.0003475808355466813,-0.21954357851726466,-0.004172562803011791,99.19561640545135,0.9205413770185108,66,2.2
1.1734293539443374,0.7464531043752353,-0.3609378933906555,0.9998403191566467,1.2507242009751978,0.8933224189783048,-0.1288737952709198,0.9999499917030334,1.0694456717545606,0.8918265278748242,-0.15182510018348694,0.9999854564666748,1.216688769727886,1.240672341718033,0.0029674049001187086,0.9999809265136719,1.1109779149610117,1.2485835731610178,-0.0031676036305725574,0.9999870657920837,1.2102707432723987,1.5289863941337982,-0.036334287375211716,0.9659830927848816,1.1352489013613443,1.5295484122471736,0.0045867543667554855,0.9099158644676208,1.2218669125955077,1.8130682297565863,0.11184664070606232,0.983363151550293,1.1513571256630488,1.7464531043752352,0.20062494277954102,0.9551728367805481,1.278703887050889,1.2199311183437271,-0.20564623177051544,0.5371646881103516,1.0347617156842657,1.2540945189114618,-0.24271008372306824,0.9708607792854309,0.0006472766399383545,1.163833342344449,1.2446279574395254,176.38726995393557,179.31001450294772,1.0,0.007973778539614482,0.006486650004675528,-0.0194085946792558,0.050513358625384835,99.87626571817464,0.930263308358518,67,2.2333333333333334
1.1817085530229414,0.7452261360024697,-0.37656140327453613,0.9998409748077393,1.2582056738500484,0.8990222023885805,-0.13913705945014954,0.9999483823776245,1.0742713659678764,0.8952762293113666,-0.16639357805252075,0.9999860525131226,1.2231635828902214,1.2484687566919532,0.004740080796182156,0.9999806880950928,1.1162653464760701,1.2540949396426433,-0.00494282366707921,0.9999871850013733,1.2156661069100565,1.5380411228255861,-0.03502447158098221,0.9670001864433289,1.13977470936964,1.5380859144140575,0.003471586387604475,0.9105972051620483,1.2262555849511876,1.8237480025232595,0.12366080284118652,0.9839903712272644,1.154597614626721,1.7452261360024697,0.2393426150083542,0.9535799622535706,1.2968294329398724,1.2526428074040497,-0.21745836734771729,0.5127975344657898,1.0385531155660308,1.2587325279971622,-0.25933530926704407,0.973300576210022,0.001615077257156372,1.1697144646831459,1.2512818481672983,176.39420829719094,179.36082184571626,1.0,0.013131515090414518,0.016876008817869787,0.03986329314424115,0.08056565715911766,98.73917631469281,0.9486294217724687,68,2.2666666666666666
1.191870749034965,0.7466996311214366,-0.3869473338127136,0.9998525977134705,1.2717746179308098,0.9077016361245211,-0.15007753670215607,0.9999520182609558,1.082765575979575,0.9011665124775644,-0.1815309226512909,0.999986469745636,1.2354474197312026,1.2585665358023896,0.008534666150808334,0.9999808073043823,1.1258621892274774,1.2629600037664654,-0.008733676746487617,0.9999868273735046,1.2253698991114381,1.5466712435435124,-0.027112528681755066,0.9687343835830688,1.1465501408286738,1.5473874005191686,-0.0013001369079574943,0.9139198064804077,1.2337053598904386,1.8340414348759266,0.14267142117023468,0.984790563583374,1.1546508929464936,1.7466996311214367,0.24034662544727325,0.9537060856819153,1.31630458827963,1.2808059290398177,-0.20240947604179382,0.5516672730445862,1.045762764552302,1.26986509780675,-0.2787688970565796,0.975482702255249,0.002800583839416504,1.1806548044793401,1.2607632697844275,176.33523063762505,178.16731386744786,1.0,0.028534167415087436,0.013948400246454462,0.11431318826604449,-0.022606850878123374,98.20698290052906,0.9705610261827043,69,2.3
1.1979994876199445,0.7475236125525866,-0.4268946051597595,0.9998664259910583,1.2795699464286858,0.9106547035123124,-0.1858741194009781,0.9999562501907349,1.0857129177479474,0.9032999728756369,-0.21197430789470673,0.9999871850013733,1.2424016240050335,1.2632307932050264,0.008422572165727615,0.9999814629554749,1.1289593416111425,1.2658523503553347,-0.008614289574325085,0.9999868273735046,1.2313651025693992,1.5544663065510216,-0.015622399747371674,0.9708606004714966,1.1426839069453145,1.5514062435098759,-0.0014474509516730905,0.9187237024307251,1.2363449181962103,1.8365401690073626,0.1747000366449356,0.985581636428833,1.1509221307762278,1.7475236125525866,0.25205865502357483,0.9548307061195374,1.328196709338057,1.2994646771378418,-0.2243591547012329,0.594016969203949,1.0479274672786236,1.2797751214672468,-0.30204176902770996,0.9775376319885254,0.003145068883895874,1.185680482808088,1.2645415717801807,176.81837344588746,179.65369951497868,1.0,0.019300234017964633,0.008302848141128763,-0.0720203804415882,-0.043974504561383285,97.34167607921526,0.9803092480782805,70,2.3333333333333335
1.2027810245495087,0.748269339212031,-0.41313427686691284,0.9998791813850403,1.2866904525851057,0.9133850000520772,-0.18311834335327148,0.9999603033065796,1.0897180368361816,0.9061837259831999,-0.1983962208032608,0.9999877214431763,1.247699180387515,1.2679754863511044,0.008311845362186432,0.9999819993972778,1.1326806034784966,1.2698452354148144,-0.008494539186358452,0.9999864101409912,1.2355326698245304,1.5579874906881281,-0.019448544830083847,0.9727664589881897,1.143308912002191,1.5566636792716284,0.002347350586205721,0.9215864539146423,1.2400188652563673,1.8411073992166598,0.14052128791809082,0.9862571954727173,1.1526128498902848,1.748269339212031,0.2569613456726074,0.954490602016449,1.3430140217898325,1.3037428604322638,-0.21368515491485596,0.6333479881286621,1.0506682563401641,1.288864556644456,-0.28846099972724915,0.9791670441627502,0.0030702054500579834,1.1901898919330058,1.2689103608829595,176.68994237627965,179.34220424068403,1.0,0.006925469823339159,0.004141846374444336,-0.09155729709310674,-0.030826238822844382,97.20643593178927,0.9904476299129589,71,2.3666666666666667
1.2002781450282063,0.7422040631718886,-0.4037260115146637,0.9998905658721924,1.2866881436466775,0.9094323867015688,-0.17699167132377625,0.9999638199806213,1.0906296880454835,0.9024680320277827,-0.17889031767845154,0.9999882578849792,1.2455527205842858,1.2639048304255158,0.00300392578355968,0.9999823570251465,1.130049799831583,1.2654766939979014,-0.0032119788229465485,0.9999861717224121,1.233499769362009,1.5520987221171347,-0.03844480216503143,0.974428653717041,1.1291070439650144,1.551209611093698,0.0019120055949315429,0.925517201423645,1.2358442580127456,1.834526698864255,0.12837353348731995,0.9869139194488525,1.1484713692943744,1.7422040631718887,0.23882444202899933,0.9557865858078003,1.3474779225344777,1.2938279239243669,-0.22502751648426056,0.6684848070144653,1.0466673210873072,1.2836503128156207,-0.2642351984977722,0.9808032512664795,0.0029791593551635742,1.1878012602079344,1.2646907622117085,177.12953811451757,174.0217012098214,1.0,0.011696699893967679,0.00017460435851962173,0.0352368242204489,-0.02905582748606373,97.39907090997391,0.9979770154447752,72,2.4
1.1915057848212025,0.7332023079035274,-0.39434894919395447,0.9999009370803833,1.281787569135478,0.8922951576339107,-0.16984808444976807,0.999967098236084,1.0913269406497046,0.8968355488888635,-0.16870173811912537,0.9999886155128479,1.2401119256340658,1.2602259911654787,0.0004034807498101145,0.9999831914901733,1.1250955595744998,1.259904660301684,-0.0006216726033017039,0.9999863505363464,1.229379890297366,1.5479150370725097,-0.03429323807358742,0.9759894609451294,1.1155562573126143,1.5417073956999143,-0.004033172037452459,0.9305180311203003,1.228161187594551,1.8233792441730214,0.1578139215707779,0.9875523447990417,1.139051291400348,1.7332023079035273,0.2385643720626831,0.9580832719802856,1.3580747018080748,1.2809305021591149,-0.20457646250724792,0.7010025382041931,1.0396615776583638,1.2761558302334255,-0.2513529658317566,0.9821915626525879,0.0019539296627044678,1.1826037426042828,1.2600653257335814,178.11709739314006,171.0664045977392,1.0,0.014510891458927028,0.022389426425782687,0.022028154249249133,0.16968120247872737,96.30229589365224,1.0168062361095709,73,2.433333333333333
1.169460794504058,0.7152145981604006,-0.4003542363643646,0.9999104142189026,1.262148626395454,0.8685473346923716,-0.17410887777805328,0.9999701380729675,1.075517843090945,0.878512715678389,-0.1680072844028473,0.9999889731407166,1.2210573560574975,1.2386461715283303,-0.003946543671190739,0.9999841451644897,1.1073424798130578,1.2384471319250272,0.0037443875335156918,0.9999867677688599,1.2071458074613595,1.5312048657632291,-0.026710474863648415,0.977641761302948,1.0953590848586234,1.5186831931666425,0.010731035843491554,0.9356088638305664,1.2045627822335319,1.790508572715983,0.18796411156654358,0.9882071018218994,1.11921900832293,1.7152145981604006,0.25996533036231995,0.9609260559082031,1.3405238374073642,1.2549524536154735,-0.188820019364357,0.7302700281143188,1.021128604888837,1.253030354151724,-0.22779886424541473,0.9829782247543335,0.0043659508228302,1.1641999179352778,1.2385466517266788,177.84828812846752,170.62929567410507,1.0,0.018734189024605136,0.006011142492441944,0.032735600919539025,-0.11676115387297668,96.23519123084418,1.0175689341896481,74,2.466666666666667
1.1365037542926733,0.6924013058075651,-0.3912365734577179,0.9999189972877502,1.2269577934559186,0.839677238198609,-0.1693410873413086,0.999972939491272,1.045660065983676,0.8543437908151692,-0.14968539774417877,0.9999893307685852,1.1882446623524767,1.2052977994481802,-0.00603319751098752,0.9999850988388062,1.0768972258370064,1.205709808765624,0.005826632957905531,0.9999871850013733,1.1736727104623046,1.495729306438413,-0.027313973754644394,0.9792614579200745,1.0637802066569406,1.4807294681858088,0.010342208668589592,0.9406730532646179,1.1709557511386983,1.7431554555213515,0.18621458113193512,0.9888263940811157,1.084382194079278,1.692401305807565,0.24800936877727509,0.9638197422027588,1.308065942395567,1.2116162018099434,-0.18933741748332977,0.7569811344146729,0.9929685860095581,1.2217159870530636,-0.21274033188819885,0.983870267868042,0.006607234477996826,1.1325709440947416,1.205503804106902,177.7568148199585,171.71027651823496,1.0,0.0027633394020318,0.007381350362718036,-0.11328410514619164,0.011254264362961779,96.25615451431803,1.0015953940303275,75,2.5
1.10187925861566,0.6722467778018646,-0.38687193393707275,0.9999266862869263,1.1924988272428263,0.8146110472665327,-0.16696389019489288,0.9999755024909973,1.0154471673776906,0.8307582377233902,-0.14467039704322815,0.9999897480010986,1.155959961919053,1.1712820609059926,-0.006056915037333965,0.9999859929084778,1.0462715126790492,1.171637342542206,0.005842548329383135,0.9999877214431763,1.140738380384906,1.4538897072891928,-0.02796206995844841,0.9804132580757141,1.0331324548167944,1.4420506280187773,-0.00045299221528694034,0.9452328681945801,1.1369944266157361,1.6950799213367382,0.1685662567615509,0.9892507791519165,1.0507801446153078,1.6722467778018646,0.19191104173660278,0.9666956663131714,1.2752944875367678,1.1689546062797571,-0.21637490391731262,0.7810878753662109,0.9654626788145393,1.1881598667102584,-0.211308091878891,0.9847857356071472,0.007487595081329346,1.101115737299051,1.1714597017240993,177.80628168604278,172.83432281113622,1.0,0.006108576279926941,0.002275829192616241,0.025687565871038147,-0.03672521021883655,96.03479407760106,0.9745375767756262,76,2.533333333333333
1.0948747459653108,0.6679173695324994,-0.38579291105270386,0.9999336004257202,1.1874164775276919,0.8090323317109964,-0.16553637385368347,0.9999777674674988,1.0106361679363416,0.8271377161874318,-0.14350000023841858,0.9999901652336121,1.1515379268568215,1.1667196368838821,-0.0057279858738183975,0.9999868869781494,1.0419110767090862,1.1668227832380007,0.005513411946594715,0.9999882578849792,1.1356915243194725,1.44794266854335,-0.027576258406043053,0.9816024303436279,1.028412021566802,1.4372734195492671,-0.0005883971462026238,0.9495610594749451,1.1316498764835208,1.687586201910012,0.1765918731689453,0.989729642868042,1.0461882591166949,1.6679173695324994,0.19812262058258057,0.9693753719329834,1.2710689385568301,1.1591456743253687,-0.22119271755218506,0.802763044834137,0.9618683541546705,1.183459291966825,-0.2166452407836914,0.9856836795806885,0.008432745933532715,1.0967245017829539,1.1667712100609415,177.74111426186258,172.73535665039967,1.0,0.003724807046104298,0.0038260288933651895,-0.01926824008778616,0.012755266949679616,95.78191863862253,0.9761564473526982,77,2.566666666666667
1.0702813405526663,0.6507706766387852,-0.3802434206008911,0.9999399185180664,1.1609731640977445,0.7871802069846766,-0.15181729197502136,0.9999798536300659,0.9880775849847385,0.8079467744747065,-0.13331875205039978,0.9999905824661255,1.1259971414345216,1.1411327042235977,-0.005443711765110493,0.999987781047821,1.0188687228684299,1.1416417003801511,0.005222034174948931,0.9999889135360718,1.1113931078340153,1.4177001347913456,-0.024073440581560135,0.9827561974525452,1.0057707720912126,1.4118722164272688,-0.0031289798207581043,0.9537658095359802,1.1069008975344794,1.650770676638785,0.1934758722782135,0.9901566505432129,1.0209718684484035,1.6513242381253268,0.18439708650112152,0.9720104336738586,1.243277066474635,1.1202484642330366,-0.21589358150959015,0.8223079442977905,0.942219109325577,1.1573347053446161,-0.19461214542388916,0.9861998558044434,0.009887754917144775,1.0724329321514758,1.1413872023018745,178.08151064649482,173.59264632479983,1.0,-0.003121230643670477,0.0004054272082117752,-0.05490988522529206,-0.027087882731658332,95.9156208734111,0.9625060112390268,78,2.6
1.064256691571367,0.6457817736642383,-0.357644259929657,0.9999455809593201,1.154409805422587,0.7790993890288163,-0.12914487719535828,0.999981701374054,0.9824614114943467,0.8035133955942537,-0.11715477705001831,0.9999908804893494,1.119934285858012,1.134086434467401,-0.005082567222416401,0.9999886155128479,1.0132896318185145,1.1354475101193504,0.004877001512795687,0.9999895095825195,1.1053975097956108,1.4115251020153035,-0.020190006121993065,0.9837741255760193,0.9997398877470568,1.4056708953688812,-0.013573415577411652,0.9577144384384155,1.1010169405419998,1.6457817736642384,0.19213005900382996,0.9904332160949707,1.0147458993409162,1.6616111420185509,0.13215045630931854,0.974517822265625,1.236081068360339,1.1032646889336368,-0.18331924080848694,0.8399342894554138,0.9384813354205401,1.148415768206488,-0.17194339632987976,0.9867186546325684,0.011686831712722778,1.0666119588382632,1.1347669722933758,178.07195128925966,173.7739733985379,1.0,-0.0007241317982208391,-0.003988853609861015,0.018025631135605,-0.03325889894951681,96.27824761683605,0.9421698446872656,79,2.6333333333333333
1.0620589822728623,0.6445384518985859,-0.36057549715042114,0.9999505877494812,1.1533017162644967,0.7742132351394736,-0.1337723582983017,0.9999834299087524,0.9817761933153656,0.8031391321521547,-0.11761583387851715,0.9999906420707703,1.119289162274612,1.1332068451464266,-0.004958684556186199,0.9999895095825195,1.0123492119315545,1.1348140814056764,0.0047700307331979275,0.9999901652336121,1.10491090012324,1.4112216327155895,-0.0028231169562786818,0.9842445850372314,0.9994824861026642,1.407536874031878,-0.024684827774763107,0.961203396320343,1.1004442393553733,1.644538451898586,0.22330251336097717,0.9900709390640259,1.0101675271571904,1.6767719079742438,0.09886258095502853,0.9767675995826721,1.2333707048431013,1.0990506790277632,-0.20025961101055145,0.8556294441223145,0.9387688408472717,1.1490077882823704,-0.19166123867034912,0.9780458211898804,0.01385420560836792,1.0658191871030833,1.1340104632760515,178.13618365472385,175.02617270290187,1.0,-0.0015800393597459191,-0.0010292534556620397,-0.0064207954469926234,0.022175581647395852,96.27333824434864,0.929254571123307,80,2.6666666666666665
1.059029190966785,0.6429209896655709,-0.3590083718299866,0.9999549984931946,1.150619313153942,0.769123379813437,-0.12656600773334503,0.9999849200248718,0.9796349766586492,0.8013201937906669,-0.12347829341888428,0.9999905824661255,1.1176608297908188,1.131497533616834,-0.0002512723731342703,0.9999902248382568,1.010105729480216,1.1334036957744813,6.62867387291044e-05,0.999990701675415,1.1036492452817173,1.408588083341894,-0.003324616001918912,0.9845771789550781,0.9987934848680046,1.4077573068772544,-0.038249775767326355,0.9643132090568542,1.0990587205706852,1.6429209896655708,0.20859332382678986,0.9895520210266113,1.0039528378989684,1.6859745754311533,0.0558767095208168,0.978822648525238,1.2294324562513972,1.0963620529798979,-0.20612172782421112,0.869648277759552,0.9387760999631408,1.1475169522087885,-0.22432276606559753,0.9742764830589294,0.015439927577972412,1.0638832796355173,1.1324506146956577,178.2274678552204,176.57650758721724,1.0,-0.004676168144069925,-0.001189338926079684,-0.02346257855071616,-0.001222010660364521,96.21216765005533,0.9199660365071991,81,2.7
1.0584513889222091,0.6452325984908168,-0.32944291830062866,0.9999585151672363,1.1527852752417604,0.7700926201545499,-0.11709560453891754,0.9999862313270569,0.9814641296224786,0.8021848054890762,-0.09571408480405807,0.9999900460243225,1.1205073972058484,1.1343901075889804,-0.0015052852686494589,0.999990701675415,1.0109711983765721,1.136619417013402,0.0013092180015519261,0.9999909996986389,1.1065686051343782,1.4039948482114832,-0.015432273037731647,0.9844131469726562,1.0016269297786848,1.4109292866614875,-0.035624776035547256,0.9667848944664001,1.101543187355399,1.645232598490817,0.16448768973350525,0.9888355731964111,1.0043786712864684,1.6912280574941991,0.042652614414691925,0.9805852174758911,1.231109335052507,1.095849774355327,-0.21821972727775574,0.8821938633918762,0.9411490602048764,1.1404674932152061,-0.1986989676952362,0.9684862494468689,0.015348672866821289,1.0657392977912103,1.1355047623011911,178.23379696645574,177.48652946358678,1.0,-0.007548018840599605,0.00017647861529826548,-0.02176885721129283,0.010422556770088449,96.22929771983851,0.9201424503669904,82,2.7333333333333334
1.0545196283615996,0.6458640700028994,-0.2717081308364868,0.9999614357948303,1.1508406286267243,0.7697548615600767,-0.06865907460451126,0.9999874234199524,0.9802532268321175,0.8015115412785095,-0.0462532602250576,0.9999895095825195,1.1209158840251106,1.1347946299559013,-0.0013902091886848211,0.9999911189079285,1.009946135359976,1.138272607430212,0.0011997101828455925,0.9999912977218628,1.1075657667325145,1.4046396015037739,-0.002942553022876382,0.9829776287078857,1.0022521574812142,1.4198253318718745,-0.03905067220330238,0.9688824415206909,1.1016014891867703,1.6458640700028992,0.20396816730499268,0.9851945042610168,1.0044414156350772,1.7045222746217048,0.03352981060743332,0.9819235801696777,1.2296100360146962,1.0915177732366417,-0.1776033341884613,0.8934075236320496,0.9415049346672978,1.1199203416486991,-0.13656416535377502,0.9611538052558899,0.015182048082351685,1.0654310096925432,1.1365336186930568,178.58404901381633,177.9940870137631,1.0,-0.005789808351158645,0.0044377732597749575,0.013763185560951274,0.03329861421829585,96.48159595066937,0.9108884412137859,83,2.7666666666666666
1.0527415831807563,0.6461613396713612,-0.29336103796958923,0.99996417760849,1.1494774081980204,0.7699230779828922,-0.07427065074443817,0.9999884366989136,0.9711876121806691,0.7983553038237948,-0.07149798423051834,0.9999889135360718,1.120456049740498,1.1359608980525644,0.0035154507495462894,0.9999915361404419,1.0081285338995323,1.1405510204119802,-0.003691894467920065,0.9999916553497314,1.1076134574347944,1.4121163445274973,0.025507431477308273,0.9818505048751831,1.002391566713097,1.425992319082205,-0.050090380012989044,0.9710423946380615,1.1011805033137618,1.6461613396713612,0.24952426552772522,0.9822754859924316,1.0047294568989018,1.7134300603888986,0.017079733312129974,0.983282208442688,1.2267617574505483,1.0944697529028184,-0.18619419634342194,0.9033389091491699,0.9402639476211854,1.1110170854069608,-0.17084123194217682,0.9548282027244568,0.013591885566711426,1.0642922918200153,1.1382559592322723,178.91181540185286,178.38258273008654,1.0,-0.008911654412546014,0.012241032436968493,-0.023113115878084258,0.05777727125342138,96.87323865541681,0.9087429631966474,84,2.8
1.0464862364566476,0.6464372989146356,-0.2517736554145813,0.9999662637710571,1.146701041454015,0.7693060817464029,-0.05893416330218315,0.99998939037323,0.9670847938657297,0.7982208340576351,-0.028169279918074608,0.9999880790710449,1.1191827492856623,1.13669061337901,-0.0016538010677322745,0.9999917149543762,1.0051507916860567,1.1420526610614905,0.0014606834156438708,0.9999916553497314,1.1081247110199473,1.4125249544976288,-0.016128018498420715,0.9812755584716797,1.0024476255717931,1.4299635850049035,-0.04469246417284012,0.9725128412246704,1.1009224221451173,1.6464372989146356,0.17771701514720917,0.9800189733505249,1.0060719102438327,1.715756834430873,0.03443308547139168,0.9841980338096619,1.2127162013639516,1.096732979343879,-0.1688987910747528,0.9125826358795166,0.9390809933784624,1.1063353658692516,-0.14349432289600372,0.9538835883140564,0.01381579041481018,1.0621667704858595,1.1393716372202503,179.46788603072767,178.73551461695226,1.0,-0.02101404116517695,0.0044333399283724515,-0.09605755540757836,-0.062040182452087575,96.97583807650048,0.9102741031810957,85,2.8333333333333335
1.043505572034245,0.6462231963849945,-0.28126710653305054,0.9999682903289795,1.1448851312452981,0.7705934314210545,-0.06432254612445831,0.9999901056289673,0.9629091465948568,0.7992753651247202,-0.05931206792593002,0.9999874234199524,1.1166816534125876,1.1396577775840333,0.0014045719290152192,0.9999918937683105,1.002997078552574,1.1458702719460483,-0.0016017869347706437,0.9999918341636658,1.1087596832510966,1.414958200531279,-0.01202262844890356,0.9807558655738831,1.0027117911986354,1.4338328818157167,-0.06641645729541779,0.9742488265037537,1.1014772364049148,1.6462231963849945,0.2020920217037201,0.9778769612312317,1.0080189603674161,1.726745427127255,0.02055729553103447,0.9851983785629272,1.2046378430677234,1.1100567164749575,-0.15357600152492523,0.9205766916275024,0.9395969604156302,1.1078048949264443,-0.20227351784706116,0.9530578255653381,0.013686805963516235,1.0598393659825807,1.1427640247650408,179.84464660806017,178.90523003200488,1.0,-0.02784446900623039,0.014398855346603819,-0.05113946059565045,0.07486741968983332,97.49790280767014,0.9136788267063269,86,2.8666666666666667
1.034202959676385,0.6382453993341201,-0.3056378960609436,0.9999691843986511,1.1365983455398072,0.7672997190539295,-0.08105440437793732,0.9999907612800598,0.9526436617632,0.7932192557414501,-0.08740593492984772,0.9999861121177673,1.107291127134559,1.133804542657376,0.00529745826497674,0.9999920725822449,0.9936853617752293,1.1401426054815302,-0.0054779392667114735,0.9999919533729553,1.1018039302625444,1.4117956341020412,0.007992778904736042,0.9806066155433655,0.9949995625751202,1.4315974358948869,-0.06924505531787872,0.9759929180145264,1.0957048356326307,1.63824539933412,0.22741417586803436,0.9774476289749146,1.002799208559212,1.7241408577703061,0.025409037247300148,0.9862791895866394,1.1903620883856736,1.1161348143479337,-0.1560886651277542,0.927705705165863,0.93479150739596,1.0970716641133647,-0.2528012692928314,0.9484003782272339,0.01243215799331665,1.050488244454894,1.136973574069453,179.58799487691994,178.73112147241108,1.0,-0.02890231740364983,0.00037343382777105613,-0.008818091243059104,-0.1025086314159753,97.76509574017872,0.9168924336157317,87,2.9
1.0314869153425406,0.6362686606799609,-0.3090454936027527,0.9999704360961914,1.1342211388142889,0.7663879306900199,-0.08052782714366913,0.9999912977218628,0.9508995570155421,0.7917271306078212,-0.08789189904928207,0.9999859929084778,1.1034815069066015,1.1329958520929768,0.007371318992227316,0.9999920725822449,0.9907355219728878,1.1394094351296677,-0.00755589222535491,0.9999919533729553,1.1000421665412095,1.4125191939663377,0.020455729216337204,0.9802393913269043,0.9927305528234582,1.4363868461238922,-0.06694449484348297,0.9776734709739685,1.0942056123939352,1.636268660679961,0.24294312298297882,0.976719081401825,1.0016877784784852,1.72535732979323,0.026391630992293358,0.9872366786003113,1.1856440920555904,1.119312325510807,-0.14679381251335144,0.9344013333320618,0.9323156901476474,1.0992342020037917,-0.22837965190410614,0.9516236782073975,0.012171059846878052,1.0471085144397447,1.1362026436113222,179.21071496949938,178.60946472156397,1.0,-0.014584977783965676,0.006490244500081163,0.11015401564386924,0.04720037874588381,98.04874613941695,0.9184098026104404,88,2.933333333333333
1.025703463320736,0.6329607333122104,-0.339763343334198,0.9999698996543884,1.1286739744345566,0.765440564235686,-0.09779200702905655,0.9999917149543762,0.9455955836609474,0.7889721184355493,-0.11330612748861313,0.999984860420227,1.0969499587209712,1.130674364902652,0.009494392201304436,0.9999920129776001,0.9839417673740191,1.1367832772657227,-0.009662259370088577,0.9999918937683105,1.0972802404877273,1.409562455916765,0.041434939950704575,0.9789982438087463,0.9897509245753227,1.4315993210338154,-0.08743233978748322,0.9791414141654968,1.0923092955617475,1.6329607333122103,0.26244837045669556,0.9757679104804993,0.9995687265644064,1.72325768782825,-0.008228740654885769,0.9881361722946167,1.1789898690681095,1.1211758229040807,-0.15626125037670135,0.9398764371871948,0.9299182834363694,1.0991639735038976,-0.2480914294719696,0.9495728611946106,0.011325806379318237,1.040445863047495,1.1337288210841874,178.6574395378115,179.20086760425104,1.0,-0.036296380976241244,-0.0013284269806123038,-0.1739760054176765,-0.06246106524253386,98.0584627668841,0.9202345273698793,89,2.966666666666667
1.0197558174859453,0.6280425352256838,-0.4203871786594391,0.999970555305481,1.1230192989884755,0.7634882623650495,-0.1606111228466034,0.9999922513961792,0.9376895724642239,0.7866827058920632,-0.18607674539089203,0.9999850988388062,1.0911895524933881,1.1281941839370153,0.015808481723070145,0.9999922513961792,0.9797064824221765,1.1337219384292034,-0.015946300700306892,0.9999921917915344,1.0925248513438273,1.407242381928684,0.08282970637083054,0.9792298674583435,0.9869217262383014,1.4267176199751819,-0.07184271514415741,0.9808197021484375,1.0893372960574854,1.6280425352256838,0.35210898518562317,0.9758405685424805,0.9959957702572336,1.7194121647762486,0.023806730285286903,0.9891270399093628,1.171175126574046,1.122782365239609,-0.23048615455627441,0.9446159601211548,0.9238522834752415,1.1382104686565604,-0.2912638187408447,0.9477310180664062,0.011197268962860107,1.0354480174577823,1.1309580611831094,178.89874457257423,179.634966613546,1.0,-0.014023693236150879,0.004834011596950673,0.1666496986326703,0.04630616137943275,97.82647436894595,0.9269387237231984,90,3.0
1.0136709089063936,0.6199709457402361,-0.4422661364078522,0.9999722242355347,1.1155743511628953,0.7598832153413568,-0.17287348210811615,0.9999927282333374,0.9270627258960097,0.7814694073928643,-0.2046918421983719,0.9999855756759644,1.0835822300176405,1.1234057814143654,0.017141804099082947,0.9999924898147583,0.971582899366453,1.1285862316128725,-0.017280075699090958,0.9999924898147583,1.0866352125145622,1.4007555237863323,0.07364991307258606,0.9795966744422913,0.9807064627790213,1.419355631363759,-0.0661531537771225,0.9822295308113098,1.0842283580288807,1.619970945740236,0.34828969836235046,0.9756187200546265,0.9910131813062967,1.711741886910029,0.032197315245866776,0.9899754524230957,1.160235078055065,1.1222460928237403,-0.22994503378868103,0.948675274848938,0.9097248347330111,1.1437764443768434,-0.316439688205719,0.9486009478569031,0.010472267866134644,1.0275825646920467,1.125996006513619,178.7402825898713,179.77833765759777,1.0,-0.020312189320914574,0.0042911119079952365,-0.04638364989517445,-0.003787967269353193,97.67769593995833,0.9375142653859666,91,3.033333333333333
1.0095128553119037,0.6186295421591587,-0.48335856199264526,0.999974250793457,1.113083251171629,0.7592516084062794,-0.21024715900421143,0.9999932646751404,0.9226024776856013,0.7801724140576707,-0.22845788300037384,0.9999865889549255,1.080141681293936,1.1250868904906373,0.015429312363266945,0.9999926090240479,0.9653878002774235,1.128360387106381,-0.015572285279631615,0.9999927878379822,1.0854831792592943,1.400709388543216,0.06686536967754364,0.9803635478019714,0.9784038346534345,1.4208177124818908,-0.05099562928080559,0.9835880398750305,1.0836651156247348,1.6186295421591586,0.3610824942588806,0.9756403565406799,0.9905483401453432,1.7093828349136226,0.07962410151958466,0.990736186504364,1.1560854278762434,1.1271771112540165,-0.27812984585762024,0.9529160857200623,0.899660073659198,1.1614085119627913,-0.33395063877105713,0.9527249932289124,0.010157912969589233,1.0227647407856797,1.1267236387985091,178.41176452572,179.86160849356293,1.0,-0.02970138747661184,0.01247212171221399,-0.07049332653228581,0.06133877285364041,96.77930153007436,0.9456550381357091,92,3.066666666666667
1.0096947642858334,0.6181864462562175,-0.4931924343109131,0.999976396560669,1.1135828406886854,0.7611427645334248,-0.2240990698337555,0.9999938011169434,0.9206326352844627,0.780902388032133,-0.2394978255033493,0.9999876618385315,1.0805173354863444,1.1297099963224315,0.01429043896496296,0.999992847442627,0.963541742616114,1.1323068752070056,-0.014440682716667652,0.9999931454658508,1.0885214766116926,1.4046219226514522,0.05506335571408272,0.9814375042915344,0.9783772884895187,1.4280403482842454,-0.040086932480335236,0.9848427772521973,1.0867121646541562,1.6181864462562177,0.3639828562736511,0.9756516218185425,0.9937363817834047,1.7146775464115345,0.10708953440189362,0.9914210438728333,1.1562745057140749,1.1410291789239462,-0.27279695868492126,0.95697420835495,0.8943655554651084,1.1693750662586824,-0.3521783947944641,0.9569889903068542,0.009570866823196411,1.0220295390512293,1.1310084357647185,177.84689132107758,179.80466118798046,1.0,-0.02620101360248793,0.012602347256885266,0.02907704506750849,0.0008133821870850524,96.39825588354347,0.957508124288821,93,3.1
1.0066521067344891,0.616860699533241,-0.5083354711532593,0.9999783635139465,1.1097715546518159,0.76151228932301,-0.2364923655986786,0.9999942183494568,0.9145675871965467,0.7799492453155195,-0.2559063732624054,0.9999886751174927,1.0787301142716341,1.1320974819545093,0.013736662454903126,0.999993085861206,0.9601815230999587,1.1342810406859636,-0.013887462206184864,0.9999935030937195,1.0895368085394785,1.4074076811186402,0.0594477541744709,0.9818766713142395,0.9757114810441594,1.4284358887239847,-0.03612187132239342,0.9857024550437927,1.0887993894214043,1.6168606995332409,0.37923020124435425,0.9744793772697449,0.994320444018194,1.716296254281622,0.11807845532894135,0.9919009208679199,1.155585149214055,1.150747398971764,-0.2758718430995941,0.9597589373588562,0.8822649470402636,1.1678893450081302,-0.3692339062690735,0.9607324600219727,0.008922040462493896,1.0194558186857965,1.1331892613202363,177.5504148045867,179.32335053994117,1.0,-0.025573830903316233,0.008341233882437238,0.004744629948505135,-0.03113129558572322,95.84332401141312,0.9674780683145984,94,3.1333333333333333
1.010346214579222,0.6204669679973372,-0.48830652236938477,0.9999802112579346,1.1146624043700044,0.7674952877388489,-0.21637049317359924,0.9999946355819702,0.9167380025002555,0.7850496435959764,-0.23970754444599152,0.9999896287918091,1.0842765354871386,1.1445168929232639,0.013789528980851173,0.9999933838844299,0.9637907935409921,1.1453850251412654,-0.01394373457878828,0.9999939203262329,1.0994127446749788,1.4271054735339144,0.043132320046424866,0.9823784828186035,0.9802949253923274,1.4398763513596962,-0.03429195284843445,0.9864501953125,1.0972514752755163,1.6204669679973374,0.3881192207336426,0.9707244634628296,1.00146430594449,1.7286428954754038,0.13337430357933044,0.9922601580619812,1.163929590430636,1.166909590186109,-0.2540382742881775,0.9624353051185608,0.8797661082497821,1.1743332750151387,-0.3508940041065216,0.9641087055206299,0.008429557085037231,1.0240336645140653,1.1449509590322646,176.29362440792679,179.0148287812942,1.0,-0.024753309952072023,0.022113409220741766,0.007577250056328697,0.1019429267805785,95.02058993193604,0.9895350825919117,95,3.1666666666666665
1.006731009895218,0.6155533541162729,-0.5016645193099976,0.9999819993972778,1.105454797848858,0.7651574229105493,-0.213873028755188,0.9999949932098389,0.9094370852119079,0.7801133324697489,-0.24693100154399872,0.9999904632568359,1.077125886983518,1.141429647992828,0.014619925990700722,0.999993622303009,0.9559106108424885,1.1420273523675761,-0.014781424775719643,0.9999942779541016,1.0961532013682247,1.426309459429532,0.033136479556560516,0.9823620915412903,0.9770657701224769,1.439725330652015,-0.03716196492314339,0.9867135286331177,1.0947494435880771,1.6155533541162728,0.3675294518470764,0.9672251343727112,0.9982832237830666,1.7221851260319865,0.13608822226524353,0.9923542737960815,1.1601217975770393,1.1600532551999725,-0.2532415986061096,0.9641953110694885,0.8688968054921993,1.168773602425262,-0.3576391339302063,0.9671571254730225,0.007205158472061157,1.0165182489130034,1.1417285001802022,175.75385549068974,179.7689442390012,1.0,-0.031561203144973196,0.0036947634826716065,-0.05183404674499212,-0.13806199319219134,94.58810052417829,0.9967243754604239,96,3.2
1.000967582951659,0.6095346173721502,-0.48027220368385315,0.9999837279319763,1.0970905590351925,0.7623184426289614,-0.2052595168352127,0.9999953508377075,0.9004368727610548,0.7762848018981436,-0.22511200606822968,0.9999912977218628,1.068814361489533,1.1370053584943518,0.011080947704613209,0.9999938607215881,0.9487035608556189,1.1381531231139927,-0.011282769031822681,0.9999946355819702,1.091904851754978,1.4206817990511007,-0.05214129760861397,0.9833565950393677,0.97200294847211,1.4396859120489158,-0.023948432877659798,0.9870327115058899,1.0911591066982351,1.60953461737215,0.2839907109737396,0.9624921679496765,0.9942412731128897,1.7163462362058424,0.16137585043907166,0.9923205971717834,1.1549840874445545,1.152189422941711,-0.24093098938465118,0.9665616154670715,0.8488371935386508,1.168162121105497,-0.3351213335990906,0.9700923562049866,0.0067546069622039795,1.008758961172576,1.1375792408041723,175.12028925013482,179.82282527995721,1.0,-0.02942131722835063,0.002117539458071965,0.01553820043242018,-0.012036543253639538,94.86320929225205,1.0031219830817266,97,3.2333333333333334
0.9980693903610262,0.6070501668776281,-0.48505204916000366,0.9999852776527405,1.0934938547437234,0.7610413370682033,-0.2105773389339447,0.9999956488609314,0.8987079832507849,0.7728943636963451,-0.2240193784236908,0.9999920129776001,1.0644004256014648,1.1349158734619944,0.008399369195103645,0.9999940991401672,0.9446381000414418,1.1360933700275269,-0.008608757518231869,0.9999949336051941,1.0900226327610154,1.418739173192201,-0.04415173456072807,0.9839470982551575,0.9701268838361069,1.4397079867570697,-0.016732845455408096,0.9870880246162415,1.0893687413969149,1.607050166877628,0.2939057946205139,0.9565512537956238,0.9921959326726878,1.7141818087422507,0.17038220167160034,0.9921932816505432,1.1522511917216247,1.1485522457662072,-0.24043163657188416,0.9679259061813354,0.848260787377473,1.1640489174714668,-0.33699697256088257,0.9725236296653748,0.005742579698562622,1.0045192628214532,1.1355046217447606,174.6426411711928,179.79818211754863,1.0,-0.019730997129317394,-0.0006642987359192311,0.07687696184504715,-0.022157727394594106,95.01287368584583,1.004046150155109,98,3.2666666666666666
0.9913492459340052,0.6004266854622211,-0.473239004611969,0.9999865889549255,1.0831717327170072,0.7554558181442186,-0.20769762992858887,0.9999959468841553,0.8895112148416009,0.76366128901578,-0.20640699565410614,0.9999926090240479,1.0542725908564243,1.127405028384743,0.005769569892436266,0.9999943375587463,0.9353471148268314,1.1286393414326885,-0.005988606717437506,0.999995231628418,1.082645061548053,1.4109106654941426,-0.049267806112766266,0.9850208759307861,0.9608058593968706,1.429855319290275,-0.02124624326825142,0.9876118898391724,1.0801374815678828,1.600426685462221,0.26443570852279663,0.9577248692512512,0.984972348542505,1.7012184567411315,0.16774852573871613,0.9924528002738953,1.143513131152905,1.1417736387342283,-0.2116047590970993,0.9698053002357483,0.8349385935974835,1.153812709113823,-0.3196004331111908,0.9747999310493469,0.0040051937103271484,0.9948098528416278,1.1280221849087158,173.52695888952795,179.74204958745125,1.0,-0.016921439780063472,0.007282282673282352,0.020132936925854734,0.06004520040080281,95.0373989992274,1.0065697641013804,99,3.3
0.9658432068952707,0.5803345692313407,-0.43792980909347534,0.9999876618385315,1.0529748783296802,0.7348585949400007,-0.16967502236366272,0.9999960660934448,0.8658545305940484,0.735035969833191,-0.1896209418773651,0.9999931454658508,1.025198588252777,1.0984183972953896,0.0058562373742461205,0.9999945163726807,0.9091451201842702,1.1003883047887952,-0.006055320147424936,0.9999954104423523,1.0559616004755359,1.3761345766615893,-0.028075192123651505,0.9858728051185608,0.9341711483449121,1.3950402199353569,-0.02234027348458767,0.9879845380783081,1.0469450830330274,1.5803345692313409,0.2727029025554657,0.9599769711494446,0.9587727607088458,1.6560442842813092,0.19127945601940155,0.9925875663757324,1.1111105695285508,1.1106551250139318,-0.18933294713497162,0.9711164236068726,0.8076990452130623,1.1178731656573913,-0.300554484128952,0.977106511592865,8.893013000488281e-05,0.9671718542185236,1.0994033510420924,171.15076354732392,179.47006786158315,1.0,-0.009880053959815192,0.00890707826961722,0.04875062094289213,0.013435846018447125,95.34141371988869,0.998185456311359,100,3.3333333333333335
0.9326364990748203,0.5580372615828476,-0.43329864740371704,0.9999885559082031,1.0154674347705428,0.7091272443804894,-0.1585765779018402,0.9999960660934448,0.8365768506161391,0.7047807271623819,-0.18787410855293274,0.9999935030937195,0.9888158566235677,1.060428339466678,0.007458322681486607,0.9999943971633911,0.877099841780531,1.062337162664841,-0.007678181864321232,0.9999954104423523,1.0192030367673084,1.3280712847642344,-0.018497422337532043,0.9864176511764526,0.9002512796201081,1.3465007518537302,-0.024744877591729164,0.9880768656730652,1.0087047960459419,1.5580372615828475,0.25070253014564514,0.9626766443252563,0.925529331245772,1.5981311548001682,0.1707175225019455,0.9927470088005066,1.0717584989248454,1.0748398111785438,-0.16545036435127258,0.9722926020622253,0.7778145288238901,1.0680905979011437,-0.30283045768737793,0.9791387915611267,0.0022577643394470215,0.9329578492020494,1.0613827510657596,170.9087777290194,178.92120629723226,1.0,-0.004309881580694692,0.0017899467302834034,0.040131251889848174,-0.05226964239812995,95.3173359967535,0.9720262273770541,101,3.3666666666666667
0.9052687371585488,0.5388648246256489,-0.4128303527832031,0.9999890923500061,0.9864221422703596,0.6881077692895748,-0.14400812983512878,0.9999959468841553,0.8124992203802406,0.6787037173161122,-0.1714015156030655,0.9999935626983643,0.9599198595437042,1.0299355053985326,0.00754967425018549,0.9999940395355225,0.8506355460278596,1.0314097663635504,-0.007762079127132893,0.9999950528144836,0.9858027900586452,1.2926035468689578,-0.02006452903151512,0.9868237972259521,0.8723504065605671,1.3070262896692808,-0.02281353250145912,0.9877023696899414,0.9783598715899432,1.5388648246256489,0.19666504859924316,0.9656271934509277,0.8997382259596451,1.551257214824002,0.16813306510448456,0.9927847385406494,1.040342092695453,1.046834877425954,-0.15615694224834442,0.9738200902938843,0.7548668877222807,1.0240410231462425,-0.27335307002067566,0.9808598160743713,0.0050328075885772705,0.9052777027857819,1.0306726358810416,172.64116262641593,178.10646578871416,1.0,-0.0020368757507576653,0.0039267007472493,0.01717477800962263,0.017519353464829756,95.20621771140918,0.9540446978242324,102,3.4
0.8903232352057724,0.5273785235738626,-0.3956056535243988,0.9999895691871643,0.9690620531831239,0.6764894425148957,-0.12713375687599182,0.999995768070221,0.7985728579317665,0.6634124536504059,-0.15454570949077606,0.9999933838844299,0.9436252273198396,1.0127015490765015,0.007656958885490894,0.9999935626983643,0.835843510870671,1.0140648932096372,-0.00786836352199316,0.9999945759773254,0.9652548736267593,1.2753431712391987,-0.029676076024770737,0.9873523712158203,0.8580186590891744,1.2865170083477178,-0.02368406392633915,0.9872481822967529,0.9610546786411719,1.5345619783360784,0.1540711224079132,0.9685394763946533,0.8861964636933792,1.5273785235738626,0.15993957221508026,0.9928420782089233,1.0212004940452524,1.0310492044585844,-0.13768060505390167,0.9749028086662292,0.742815751322526,0.9967810842736119,-0.24234771728515625,0.9823843836784363,0.007117897272109985,0.8897343690952553,1.0133832211430693,174.36377655729842,177.98053949119787,1.0,-0.002810050077827375,2.998197856348985e-05,-0.0064071808412581345,-0.030401739491547123,95.05129143420807,0.9369724634096179,103,3.433333333333333
0.8876510898543603,0.524260693095294,-0.3725956082344055,0.9999895691871643,0.9643507001124924,0.6734170656059747,-0.11088285595178604,0.999995231628418,0.7956489986124428,0.660876763925935,-0.12649443745613098,0.9999929666519165,0.9399482931212081,1.0099664738706373,0.006041042972356081,0.9999927878379822,0.832348449500432,1.0109258602999531,-0.006260870490223169,0.9999938011169434,0.954262242587883,1.2824020922898307,-0.028528746217489243,0.9877277612686157,0.8549065837170543,1.285123719533218,-0.021015694364905357,0.9865584969520569,0.9586230899938637,1.546071370425497,0.14803235232830048,0.9711679816246033,0.885473613407439,1.524260693095294,0.16930456459522247,0.9926421642303467,1.0155376611023381,1.0297896090339294,-0.12311601638793945,0.9753991961479187,0.7412480003004018,0.9889860494908697,-0.20226195454597473,0.9837528467178345,0.0068475306034088135,0.88614837131082,1.0104461670852953,177.93994004401034,177.4189295834177,1.0,-0.005888548987407354,0.0021925943781567823,-0.02394886693248964,0.01677591018951192,94.65797449236747,0.9244021629675894,104,3.466666666666667
0.8845694036532976,0.5218759797466234,-0.3701421618461609,0.9999896287918091,0.9601823358600656,0.6705407779891772,-0.10491571575403214,0.9999946355819702,0.7915113324989144,0.6586425582491233,-0.1324436366558075,0.9999926686286926,0.9354997771650004,1.0063585334928211,0.006212671287357807,0.9999919533729553,0.8274140073074653,1.0072764124734304,-0.006432248745113611,0.9999929666519165,0.9489998528935513,1.2786966749320006,-0.04675249755382538,0.9880644083023071,0.8519686568093563,1.2843484992559024,-0.025859951972961426,0.9850001335144043,0.9597703290371543,1.5601599843811564,0.07419086247682571,0.9736571311950684,0.8843882533461279,1.5218759797466235,0.15047712624073029,0.9921073317527771,1.007256725769379,1.0274935698710765,-0.12084871530532837,0.9743139147758484,0.7408202992759698,0.9825629641432789,-0.23532971739768982,0.9849452972412109,0.006520301103591919,0.8814568922362328,1.0068174729831256,179.35352485981016,177.29228051303372,1.0,-0.011828819440755586,-5.011131952355709e-05,-0.04655176886537549,-0.01745166700349358,94.6902248425229,0.9051914777887702,105,3.5
0.8856732607182661,0.5228594532637456,-0.2788793444633484,0.9999850988388062,0.9586181638033806,0.6651089811112325,-0.034318774938583374,0.9999910593032837,0.7905663223038049,0.6603290815522601,-0.07747341692447662,0.9999918937683105,0.9356694207966779,1.0072473009106793,0.007175706326961517,0.9999907612800598,0.8275308063220295,1.0081677935244497,-0.007434823550283909,0.9999921321868896,0.9462248236806522,1.2810454122570842,-0.06178219988942146,0.9874167442321777,0.8528804936392012,1.287090989159991,-0.02603338286280632,0.9781672358512878,0.9631359363266434,1.567312954589158,0.022081371396780014,0.9756125211715698,0.8851936923396041,1.5228594532637456,0.13604699075222015,0.9894919991493225,1.002113616938893,1.0275267677368862,-0.08512861281633377,0.9404622316360474,0.7426186828323283,0.9825407392276321,-0.2147434949874878,0.9858049750328064,0.0026172399520874023,0.8816001135593536,1.0077075472175645,178.8269700510532,177.38896952098753,1.0,-0.004447292251902253,0.00040030557104917805,0.05575529159545398,0.003397946330895741,94.32503440877127,0.8994582837932161,106,3.533333333333333
0.8868648123610314,0.5232194894135598,-0.2609097361564636,0.9999810457229614,0.958402116411906,0.6650085081051612,-0.03230920433998108,0.9999876022338867,0.7906958241798667,0.6609928914371876,-0.05965767428278923,0.9999909400939941,0.9347422429693241,1.0079336604519142,0.006078741513192654,0.9999893307685852,0.8273858406780102,1.0085405387579576,-0.0063536264933645725,0.9999910593032837,0.9433901499928684,1.2834879742916947,-0.06505174934864044,0.9861341118812561,0.8528647164751297,1.2881940021028508,-0.024607110768556595,0.9683671593666077,0.9644421663531146,1.5738168798041925,-0.017991887405514717,0.9772286415100098,0.8850390076581925,1.5232194894135598,0.12274609506130219,0.9853804707527161,1.0011482908120355,1.026952808627032,-0.07584759593009949,0.9000680446624756,0.7431675989239664,0.9835402217685267,-0.17806503176689148,0.9860772490501404,0.002199143171310425,0.8810640418236672,1.008237099604936,177.65025082944453,177.41060705340658,1.0,-0.002855018958672327,0.005300429595751768,0.011931365646124147,0.036736647925744596,94.27071194298796,0.8948553971342352,107,3.566666666666667
0.8854166921297567,0.5224021686350246,-0.2902291715145111,0.9999805688858032,0.9567442531774812,0.6640388214481406,-0.04455922171473503,0.9999832510948181,0.7896167521112908,0.6603516030393614,-0.07547719776630402,0.9999908804893494,0.9331166784245032,1.0070973440761228,0.005980403162539005,0.9999879598617554,0.8258156785167949,1.0079956004126025,-0.006257460918277502,0.9999905228614807,0.9409989103698686,1.2800136498459258,-0.08048151433467865,0.9816184043884277,0.852114446852868,1.2851675422438775,-0.02352212183177471,0.9529926180839539,0.9627327373965309,1.5746437924191314,-0.06009606644511223,0.9780000448226929,0.8832587801216133,1.5224021686350246,0.09892021119594574,0.9790055751800537,0.9912721490179884,1.0084133308932224,-0.13573874533176422,0.8243471384048462,0.7442319378690824,0.9831813234386074,-0.20041659474372864,0.9856947064399719,0.0020229220390319824,0.879466178470649,1.0075464722443626,177.43546166081916,177.94107991992473,1.0,-0.00015460273230370514,0.009155867864095507,0.022106750207499967,0.03170007883273151,94.41956086221276,0.89396873387658,108,3.6
