nose_x,nose_y,nose_z,nose_visibility,left_shoulder_x,left_shoulder_y,left_shoulder_z,left_shoulder_visibility,right_shoulder_x,right_shoulder_y,right_shoulder_z,right_shoulder_visibility,left_hip_x,left_hip_y,left_hip_z,left_hip_visibility,right_hip_x,right_hip_y,right_hip_z,right_hip_visibility,left_knee_x,left_knee_y,left_knee_z,left_knee_visibility,right_knee_x,right_knee_y,right_knee_z,right_knee_visibility,left_ankle_x,left_ankle_y,left_ankle_z,left_ankle_visibility,right_ankle_x,right_ankle_y,right_ankle_z,right_ankle_visibility,left_wrist_x,left_wrist_y,left_wrist_z,left_wrist_visibility,right_wrist_x,right_wrist_y,right_wrist_z,right_wrist_visibility,trunk_lateral_inclination,center_mass_x,center_mass_y,left_knee_angle,right_knee_angle,person_height,center_mass_velocity_x,center_mass_velocity_y,center_mass_acceleration_x,center_mass_acceleration_y,body_orientation,torso_leg_ratio,frame,timestamp
0.7336106402442109,0.31496515825090365,0.2210332453250885,0.9999971985816956,0.6550089320859739,0.4759069268255402,-0.00039890100015327334,0.9999980926513672,0.8521107137740866,0.45866211764140363,-0.011883294209837914,0.9999955892562866,0.7009494561426063,0.7858158146206787,0.015935134142637253,0.9999929666519165,0.7870787475143142,0.7667391994295362,-0.01617131009697914,0.999993622303009,0.7129931829462215,1.107218576179761,0.12968696653842926,0.9835950136184692,0.7769106161146537,1.0643083389103936,0.10623480379581451,0.9770251512527466,0.7019471454630165,1.3149651582509037,0.2771981358528137,0.9701712727546692,0.7778764035841773,1.3179332407516837,0.2789354622364044,0.973619282245636,0.6242070898707992,0.8654683386233634,0.04745984449982643,0.992527186870575,0.8966808847481228,0.884880052931136,-0.006203510798513889,0.9904350638389587,0.011889100074768066,0.7440141018284602,0.7762775070251074,174.81040239994456,177.82474973218905,1.0,0.2834134090228347,-0.11458091617355812,1.6180987686220614,-0.6431705103428632,85.94333171527859,0.8542008105200809,0,0.0
0.6703970882769075,0.24798340489012435,0.267345130443573,0.9999974370002747,0.578759011886817,0.40264576620049697,0.027604464441537857,0.9999982714653015,0.7676969973133118,0.39751988939910765,0.014953774400055408,0.9999960064888,0.6206043711712023,0.7146317036561494,0.023931704461574554,0.999993622303009,0.7156855485584819,0.7226208217850548,-0.024157676845788956,0.9999942183494568,0.6241590498921419,1.019348974412204,0.18418851494789124,0.9850383400917053,0.7015774544711691,1.0312514658930152,0.12852300703525543,0.9791764616966248,0.6172872018073371,1.2479834048901244,0.338824063539505,0.9725328087806702,0.6812272087427634,1.2522982283849786,0.29868054389953613,0.975513219833374,0.5470133313179169,0.7744497653642957,0.10964752733707428,0.9932451248168945,0.801670672587648,0.7935316613657041,0.06286947429180145,0.9911379814147949,0.003990978002548218,0.668144959864842,0.7186262627206021,177.61007992362323,177.35727834079248,1.0,0.06968903468452436,0.233286124382636,-1.35332542170364,2.4991659329654086,102.44219902327168,0.8849244553787459,1,0.03333333333333333
0.6715594771636414,0.2548319114229316,0.19390808045864105,0.9999976754188538,0.5723574485677909,0.38831136449285075,-0.018301671370863914,0.9999984502792358,0.7644189102319213,0.38773397641081714,-0.05658695846796036,0.9999963641166687,0.61710867687268,0.7259470911583674,0.02866985835134983,0.9999940395355225,0.715751615164034,0.7300202296956914,-0.02886563539505005,0.9999946355819702,0.6181583073878646,1.0170263102449808,0.19736605882644653,0.985975444316864,0.6943948752832423,1.0360238921803648,0.09412357956171036,0.9808697700500488,0.6152557320783874,1.2548319114229316,0.33787357807159424,0.9744195342063904,0.6795904135699057,1.2706879057073297,0.25512224435806274,0.9767962098121643,0.5445366859122387,0.7698637353855299,0.05017966032028198,0.9937984943389893,0.8005381905145196,0.7857218599725103,-0.06688977032899857,0.991902232170105,0.00045233964920043945,0.666430146018357,0.7279836604270294,179.09409422209447,179.6175487219158,1.0,0.018128718167445827,0.10396339838495013,-0.38554185789538664,-0.9642905777258988,99.9146421976822,0.8842573650397508,2,0.06666666666666667
0.6650135727276856,0.2506586028378799,0.1801893413066864,0.9999971985816956,0.5705419202334978,0.38324057525198774,-0.03304639086127281,0.9999985098838806,0.7548278022544367,0.38151558146728254,-0.07348738610744476,0.999996542930603,0.6129156574893192,0.731021170864385,0.03004043735563755,0.9999926686286926,0.7116176267793988,0.7341287806069848,-0.030181268230080605,0.9999938607215881,0.614599680412215,1.010765093940387,0.2181021273136139,0.9848534464836121,0.687765731624738,1.0211560275104274,0.09775566309690475,0.979917585849762,0.610241593272464,1.2506586028378799,0.35679322481155396,0.9724288582801819,0.6771533746471253,1.256822307489481,0.25904586911201477,0.970551609992981,0.5422237492571207,0.7638691074354658,0.03827871382236481,0.9937106966972351,0.7930204781254385,0.7700390631560563,-0.08486239612102509,0.9920758605003357,0.0013651847839355469,0.6622666421343589,0.732574975735685,178.6143268107944,177.8280101542024,1.0,0.019261074685807976,0.08966963494289504,0.009877550290766438,-0.09945295505623858,98.75005188720726,0.9241161261286702,3,0.1
0.6602113984115512,0.24776503747481995,0.2114638388156891,0.999992311000824,0.5682039632591225,0.3767547619077843,-0.013504011556506157,0.9999983906745911,0.7494875881296521,0.376029145331573,-0.059352122247219086,0.999996542930603,0.6089563225490568,0.7317877706482625,0.03005310334265232,0.9999892711639404,0.7064684377510583,0.7346068293157908,-0.030174527317285538,0.9999921321868896,0.6094643848268589,1.0050718862573709,0.23726233839988708,0.9804993867874146,0.6853078380255045,1.020704956571652,0.10452629625797272,0.9765504002571106,0.6015996867994683,1.24776503747482,0.39014530181884766,0.9635980129241943,0.6726432432832024,1.250257260664697,0.26081588864326477,0.9571568965911865,0.5425717957186419,0.7614227954043512,0.08966612070798874,0.9906457662582397,0.7904468610838706,0.7640049226186951,-0.0331757627427578,0.9920538067817688,0.0005792081356048584,0.6577123801500576,0.7331972999820267,178.0374079197662,178.92780497120174,1.0,0.00844313068900574,0.052799380930680026,-0.08180102777511848,-0.27722358988731965,98.20397164360934,0.9403609369938551,4,0.13333333333333333
0.6658875722032641,0.2551372207955642,0.16508784890174866,0.999981701374054,0.5709570191605352,0.3815148423369174,-0.04008626192808151,0.9999979138374329,0.7597458756873541,0.3784816529052458,-0.08333314210176468,0.9999960660934448,0.6146239748404475,0.7449029927988673,0.02952379360795021,0.9999815225601196,0.7134655258607112,0.7464729797215419,-0.029662420973181725,0.9999873042106628,0.6148179640150834,1.0156831135624,0.25544455647468567,0.9752634167671204,0.693877137603879,1.0322733298433857,0.13193607330322266,0.9691397547721863,0.6047191556741665,1.2551372207955642,0.4221855103969574,0.9521768093109131,0.6765846142411174,1.2565756475132355,0.3053697645664215,0.9357218146324158,0.5490240051437254,0.7718783321886139,0.08241087198257446,0.9851565957069397,0.7925253019003596,0.7717542273129152,-0.053710609674453735,0.9911037087440491,0.0024007558822631836,0.6640447503505793,0.7456879862602046,177.54397481218516,179.51236566800685,1.0,0.005841393047084751,0.04955605589980589,-0.021187589318731003,-0.029262481096416767,97.76216041218089,0.9605418149508357,5,0.16666666666666666
0.6685553146804623,0.25150288330841136,0.12378130108118057,0.9999550580978394,0.5721498380359257,0.3796093933773291,-0.07048069685697556,0.9999963045120239,0.7595687104171001,0.3780859213355475,-0.11861175298690796,0.999994695186615,0.6168227722962225,0.7468426305771392,0.025808950886130333,0.9999561309814453,0.715361486709704,0.7480165558669296,-0.025961121544241905,0.9999712109565735,0.6163167323250953,1.0108559632566585,0.2486860454082489,0.966210663318634,0.695830967120933,1.024390214485038,0.1538710743188858,0.9464128613471985,0.6049087083312776,1.2515028833084114,0.4141634404659271,0.9345674514770508,0.6759196925948516,1.2524317414231483,0.33616164326667786,0.9005236029624939,0.5512415599856186,0.7749772619347847,0.04849938675761223,0.9682729840278625,0.7945029570697866,0.7738445706483021,-0.0890369564294815,0.9900389909744263,0.0012046098709106445,0.6660921295029633,0.7474295932220344,177.39570807710288,179.052123188691,1.0,0.010440429278300032,0.007505003408047432,0.03476058644958032,-0.31861530444169134,97.61835095578402,0.9816719971326021,6,0.2
0.6577015294799832,0.2435742946294932,0.13390609622001648,0.9999359846115112,0.5640225992442792,0.37641139920155986,-0.05751657485961914,0.9999940395355225,0.7483999985487304,0.3739663820844864,-0.1213177815079689,0.9999932050704956,0.6076248773281829,0.7403770082059061,0.02708076313138008,0.9999304413795471,0.7040456279155052,0.74129696426965,-0.0272586140781641,0.999954342842102,0.6092735567798524,0.9997995573441729,0.2242373675107956,0.959839940071106,0.6875704435554282,1.011858044624493,0.13672444224357605,0.9304484724998474,0.596587711709764,1.2436565332388643,0.37354183197021484,0.9223790168762207,0.6665300860742405,1.2435742946294932,0.30590081214904785,0.8749670386314392,0.5467478769833204,0.7642725711259312,0.06053493171930313,0.954319953918457,0.7862610913975159,0.7614789144019807,-0.09834401309490204,0.9896501302719116,0.0019581615924835205,0.6558352526218441,0.740836986237778,176.6579421315898,178.2962322739378,1.0,-0.01360812501201141,0.022073264243706266,-0.18164281600937007,0.11137143797337407,97.37799803518047,0.9878831050119735,7,0.23333333333333334
0.6535827654713986,0.23878870398826763,0.14908282458782196,0.999908983707428,0.5616769974519034,0.3743562489807946,-0.05398854613304138,0.9999916553497314,0.7461685465692928,0.37227275819418904,-0.12108004093170166,0.9999920129776001,0.6044343973732463,0.7362381275297852,0.02845543622970581,0.9999096989631653,0.7016720852799246,0.7357601604642846,-0.028641829267144203,0.9999420046806335,0.6063481902354815,0.991650343959372,0.2225426733493805,0.9537317752838135,0.6850056394487974,1.0077237168264614,0.14036300778388977,0.9180049300193787,0.5939780443085907,1.2387887039882677,0.3618415594100952,0.9114095568656921,0.6644141194891016,1.2427424990741562,0.30087682604789734,0.8543219566345215,0.546508778878904,0.7572582411567025,0.06042752414941788,0.9385953545570374,0.7816213113648606,0.7560139130831289,-0.09289266914129257,0.9896305799484253,0.0016776621341705322,0.6530532413265855,0.7359991439970349,176.70522890717908,178.49954120465787,1.0,0.006084581939125636,-0.0068505666111618145,0.15882633689632347,-0.23318653755309113,96.45679072873243,0.9839304344132997,8,0.26666666666666666
0.6535767399792212,0.24031979953904203,0.11929851770401001,0.9998749494552612,0.5619264582569654,0.3735886612418377,-0.06558866053819656,0.9999883770942688,0.7485971307839935,0.372047565763749,-0.1406499743461609,0.9999900460243225,0.6055562048819756,0.7376107500300532,0.029441213235259056,0.9998695254325867,0.7061681049915749,0.7362396196013268,-0.029637586325407028,0.9999184012413025,0.6058183392955082,0.9941103850386301,0.23264212906360626,0.9431259632110596,0.6860595503742806,1.010235281936194,0.1463262438774109,0.8968786597251892,0.5927636305912639,1.240319799539042,0.37734508514404297,0.895308792591095,0.6634913925557309,1.2467499463302385,0.3135570287704468,0.8255072236061096,0.5470113583552658,0.7556593489945926,0.04547945410013199,0.9189838171005249,0.7839534174255296,0.75700128751859,-0.09863267093896866,0.9890751838684082,0.001239776611328125,0.6558621549367752,0.73692518481569,176.9063060207921,178.74677147428028,1.0,0.016445738942051497,0.001857831425799105,0.07710920857552749,0.06489103322043982,96.05379088733862,0.978794758183205,9,0.3
0.6528849721408234,0.2392547840932777,0.11834597587585449,0.9998499155044556,0.5614913169189433,0.37349450196664,-0.07061271369457245,0.9999859929084778,0.7472549056102701,0.37132517943460336,-0.13570645451545715,0.9999883770942688,0.6055223922625498,0.7379852756483832,0.02809176780283451,0.9998447299003601,0.7073535948733742,0.7349984886231566,-0.028273776173591614,0.9999024271965027,0.6051887385718431,0.9943384700411215,0.21988439559936523,0.9390599727630615,0.6851942090566644,1.0053427143662057,0.14694549143314362,0.8825685977935791,0.5923055692044267,1.2392547840932777,0.36629438400268555,0.8868129849433899,0.6627760260887066,1.2427825511515678,0.3096073269844055,0.806124746799469,0.5474810441447477,0.7533394878754422,0.05878100544214249,0.9027390480041504,0.7829819374463529,0.7555010398324487,-0.08029498904943466,0.9885249733924866,0.0017471909523010254,0.6564379935679621,0.7364918821357699,177.06345622361482,179.292240317671,1.0,0.009766517185516427,0.0030646587315650057,-0.0487594032243303,0.008850907490758423,95.2079991161258,0.9839615426108584,10,0.3333333333333333
0.6545351628745614,0.24024640763424873,0.13560831546783447,0.9998337030410767,0.5634488412814926,0.3731092070791341,-0.07101210951805115,0.9999843835830688,0.7486997950622777,0.37207348579214305,-0.11701077222824097,0.9999871253967285,0.6058722056651946,0.7364785872049932,0.024467485025525093,0.9998211860656738,0.7070664553053935,0.7339437167841799,-0.024667706340551376,0.9998857975006104,0.6053829578441386,0.9921342111902621,0.21047361195087433,0.9364257454872131,0.6841196745447736,1.0037145066214455,0.14159832894802094,0.8687127828598022,0.591815005285419,1.2402464076342488,0.3510836958885193,0.8791950345039368,0.6606289727225474,1.2468813271999428,0.30441319942474365,0.7847128510475159,0.548074341328481,0.752144801078831,0.055600523948669434,0.8944071531295776,0.7841885728155363,0.7547134816091592,-0.07602577656507492,0.9881030321121216,0.0008344352245330811,0.656469330485294,0.7352111519945865,176.97955915474463,179.3440565597767,1.0,0.0018137387803630516,-0.008205509117604702,-0.061866321340063715,-0.08769875585242472,95.22420044595378,0.9719500792378923,11,0.36666666666666664
0.661859369053725,0.24381747423059086,0.11555995047092438,0.9998189806938171,0.5679685029266326,0.3760342355092034,-0.0727735236287117,0.9999824166297913,0.7537321347987448,0.3749255977135639,-0.1200355514883995,0.9999862909317017,0.6083499368496987,0.7405192116621402,0.023977898061275482,0.9997955560684204,0.7096789847899658,0.7385420478888358,-0.02417396381497383,0.9998714923858643,0.6091487217320621,0.9972305267715373,0.22175034880638123,0.9301102161407471,0.6881026380518283,1.0094806208699147,0.14345914125442505,0.8561648726463318,0.5969054007816809,1.2438174742305907,0.37066295742988586,0.8695560693740845,0.6632815068423309,1.253283060200558,0.3109544515609741,0.7703121304512024,0.5522791010350486,0.7569298049549225,0.051978640258312225,0.873791515827179,0.789938555638843,0.7591674744203879,-0.06874185055494308,0.9876248240470886,0.0008878111839294434,0.6590144608198323,0.739530629775488,176.9792525581822,178.74001164525234,1.0,-0.010676740560057366,-0.0009531012003873662,-0.09364424656888892,0.054697155881223355,95.20420828578669,0.9723041383722013,12,0.4
0.6591190275713433,0.23800252208825473,0.13635070621967316,0.999813973903656,0.5654223165659634,0.3735427850239853,-0.06227840110659599,0.9999809861183167,0.7490615438232262,0.372241923903806,-0.11504608392715454,0.99998539686203,0.6052191048444329,0.7361999890614284,0.02404354140162468,0.9997763633728027,0.7067380787146423,0.734182866126315,-0.024238597601652145,0.9998593330383301,0.6057535998669017,0.9919835367836114,0.22060208022594452,0.9297581315040588,0.6845007322848241,1.004970981331233,0.1385560780763626,0.8545812368392944,0.5927629359155862,1.2380025220882547,0.3657509684562683,0.8667839765548706,0.6586723815646139,1.2482129904197208,0.30538180470466614,0.7633721828460693,0.5480080439206594,0.7521369254576309,0.05347777530550957,0.867003858089447,0.7863247724085114,0.7550512628980598,-0.0702718049287796,0.9875073432922363,0.001047670841217041,0.6559785917795377,0.7351914275938717,176.85766207357383,178.6334735153955,1.0,0.005335353880974756,-0.001212333664487543,0.12316869487966625,-0.002043241101536478,95.12410584567077,0.9771639468718273,13,0.43333333333333335
0.655827377640083,0.2314381105836552,0.11609335988759995,0.9998106956481934,0.5632077177032407,0.3705055438567254,-0.06970589607954025,0.9999796748161316,0.7472872901214938,0.3698812654669875,-0.1257554292678833,0.999984860420227,0.6020107674956623,0.7319383301134587,0.024150162935256958,0.9997575879096985,0.7025775921782724,0.7301020050351905,-0.02434210665524006,0.9998490810394287,0.6027354854400279,0.9878306383003626,0.2195054292678833,0.9261906147003174,0.6811381454062586,1.0010042299259045,0.13792023062705994,0.8465139865875244,0.5896776072478861,1.2314381105836552,0.3649201989173889,0.8612899780273438,0.6555723958758981,1.2417940212186565,0.30627816915512085,0.753219723701477,0.5451827005251877,0.7487574101544905,0.05265886336565018,0.8521531820297241,0.7823427925446026,0.7517100165416107,-0.07691983878612518,0.9870639443397522,0.0005055069923400879,0.6522941798369674,0.7310201675743245,176.76949261762232,178.46436021041575,1.0,-0.0009735754832628093,-0.0013891036709889988,-0.044621104325324845,-0.001302565320851755,95.08165445809256,0.9864307976684782,14,0.4666666666666667
0.6574141426047221,0.2320756718088013,0.11298948526382446,0.9997958540916443,0.563555866337241,0.3696045505384252,-0.06487033516168594,0.9999768733978271,0.7477170440173624,0.3695107053585451,-0.12286367267370224,0.999984085559845,0.6019151479915679,0.7320002756127353,0.024021096527576447,0.9997342228889465,0.7017347452563212,0.7303985432991397,-0.02421468123793602,0.9998379945755005,0.6026433586288583,0.9890679378402785,0.21586938202381134,0.920161783695221,0.6798581867264509,1.001611554604081,0.13661693036556244,0.8363147974014282,0.5876613858427833,1.2320756718088013,0.36329275369644165,0.8521343469619751,0.6550239047695461,1.2425129774713812,0.30628103017807007,0.7414064407348633,0.5451318980943616,0.7481211190686379,0.083779476583004,0.8190000653266907,0.782117280429226,0.752206897609685,-0.05366145819425583,0.9865410327911377,7.602572441101074e-05,0.6518249466239445,0.7311994094559374,176.3097471701599,178.72583034327224,1.0,-0.0013333603267179925,0.004058456234001598,-0.002836841630109752,0.0428946681524825,95.12290648965855,0.984500863006692,15,0.5
0.6588203064154168,0.23142368342334133,0.1408127397298813,0.9997569918632507,0.5651277658296764,0.36713147939685425,-0.0603426992893219,0.9999738335609436,0.7480891072359137,0.36879883952587683,-0.10250476747751236,0.9999828934669495,0.6013850478735269,0.7311110465080167,0.021533023566007614,0.9997043013572693,0.7008357823194407,0.7295869851896508,-0.02173019014298916,0.9998207092285156,0.6018837086232035,0.9892472233053041,0.20819810032844543,0.9161127209663391,0.6792706895421895,1.0022667968055574,0.1366385519504547,0.8230918645858765,0.5866637872144604,1.2314236834233414,0.35329002141952515,0.8427761197090149,0.6543135422815471,1.2422493407391022,0.31234556436538696,0.7224421501159668,0.5449185172237342,0.7465108724251374,0.08477504551410675,0.7975005507469177,0.7804781667043321,0.7515887736499545,-0.04548951983451843,0.9858960509300232,0.0013520419597625732,0.6511104150964837,0.7303490158488337,176.29321302013827,178.58469797019004,1.0,-0.0007349422548431342,-0.001197579701742097,0.004561209648674483,-0.04011754361701208,94.81069038349078,0.9833889607845357,16,0.5333333333333333
0.6595408450852116,0.23039085621506272,0.12791316211223602,0.9997157454490662,0.5648178998112202,0.3660612269945903,-0.07438601553440094,0.9999715089797974,0.7481332120743116,0.3686020198357702,-0.1056160181760788,0.999981164932251,0.6008177824732545,0.7300394480988955,0.01693763956427574,0.999677836894989,0.7009724549125379,0.7286178083272581,-0.017143191769719124,0.9998021721839905,0.6010788924896763,0.9878596692266243,0.20466144382953644,0.9142890572547913,0.6791704293934394,1.0002477094039368,0.1457599699497223,0.8108815550804138,0.5851261792493094,1.2303908562150627,0.3502328097820282,0.8387240767478943,0.6534861913664003,1.2385852022506714,0.32415828108787537,0.7081136703491211,0.5452591001081191,0.7418767047460674,0.08088108152151108,0.7878883481025696,0.7805389036118175,0.750597235927255,-0.05645303055644035,0.9850890636444092,0.002062469720840454,0.6508951186928962,0.7293286282130768,176.17871119924652,178.43823986620384,1.0,0.0033644156391800613,-0.0017976289946286409,0.029317616909748,-0.004301238552400855,94.83533781078414,0.9859039773547291,17,0.5666666666666667
0.660724483026768,0.23135280796840732,0.12931349873542786,0.9997171759605408,0.5662847512973587,0.36702616110746633,-0.07177001237869263,0.9999709129333496,0.7508138728998565,0.369596499980992,-0.10725148022174835,0.9999807476997375,0.6024359788294006,0.73114897995228,0.017562823370099068,0.9996767044067383,0.7041761100543648,0.7299037025044168,-0.01776931807398796,0.9998006820678711,0.6019905642663895,0.9890491984459817,0.21164222061634064,0.9144734144210815,0.6811004060761697,1.0014184737869447,0.1434747874736786,0.8105552196502686,0.585249649271436,1.2313528079684073,0.35364919900894165,0.8388859629631042,0.6546434652112706,1.242263680749765,0.32022973895072937,0.7068970203399658,0.5462767026425951,0.7428213501556753,0.07324986159801483,0.7852322459220886,0.7826557356854292,0.7519238596744391,-0.06002463772892952,0.9848533868789673,0.0020824968814849854,0.6533060444418827,0.7305263412283485,176.1466322824523,178.58899454959493,1.0,0.008833907429197407,-0.0014140450440333532,0.04109843932163511,0.002911363449911616,94.96866623816383,0.9839325087984657,18,0.6
0.660212057676627,0.22982536205019607,0.13158103823661804,0.9996998906135559,0.5681196909337164,0.36679763886535294,-0.06711232662200928,0.999969482421875,0.7507582513119196,0.36950615248585084,-0.10780743509531021,0.9999798536300659,0.6042940844259327,0.7297878995037834,0.017657723277807236,0.9996577501296997,0.7054587276403409,0.7290472124934256,-0.01786639541387558,0.9997885823249817,0.6015468677773529,0.9880469207872695,0.211014062166214,0.9122306704521179,0.6813888991445584,1.0000643396492472,0.14209617674350739,0.8039323091506958,0.5839945115945249,1.229825362050196,0.35233229398727417,0.8335616588592529,0.6539331253943009,1.2408164339452608,0.3181237578392029,0.6981619000434875,0.5461308944863383,0.7420524590692965,0.0727347657084465,0.775603711605072,0.7823873361927876,0.7511863736966282,-0.059375204145908356,0.9844003915786743,0.0021961629390716553,0.6548764060331368,0.7294175559986046,176.45724826627776,178.569290915157,1.0,0.01570315140136281,-0.004058572768888179,0.05188820155154208,-0.019964248668123453,95.27162550821774,0.9850999890724865,19,0.6333333333333333
0.6616444478773549,0.230133967285079,0.1307862251996994,0.9996904134750366,0.5688865880789638,0.3663117716795569,-0.06263796985149384,0.9999683499336243,0.7515375149454636,0.36979448828014017,-0.10812133550643921,0.9999797940254211,0.6046046029113797,0.7300471935494838,0.01801358535885811,0.9996533989906311,0.7055094675486729,0.729919004867511,-0.018226822838187218,0.9997873902320862,0.6019705203907063,0.9887054040777717,0.21034733951091766,0.9093846678733826,0.6817474191317784,1.0002959996544862,0.14336024224758148,0.7979223132133484,0.5844733904327006,1.230133967285079,0.35233134031295776,0.8287113904953003,0.6539205465883029,1.241534522956907,0.31616848707199097,0.690481960773468,0.5483516143472553,0.742295721397528,0.08098916709423065,0.7574229836463928,0.7825210797480507,0.7518289732051641,-0.049736205488443375,0.9843840599060059,0.002822577953338623,0.6550570352300263,0.7299830992084974,176.43829124813286,178.44253856169738,1.0,-0.000969701173859926,0.0016448618039864487,-0.12474897534695881,0.04266936526206949,95.53555034851209,0.9857444131539483,20,0.6666666666666666
0.6622763602017864,0.23007427326830687,0.12782852351665497,0.9996812343597412,0.5687887796536669,0.36496002675152295,-0.06241883710026741,0.9999673962593079,0.751269142275619,0.36977142608836694,-0.10832999646663666,0.9999799132347107,0.6057366370503446,0.7298365285193337,0.018273979425430298,0.9996461868286133,0.706005953654957,0.729840278320539,-0.018489938229322433,0.9997853636741638,0.6017635756222042,0.9893471824030505,0.20990261435508728,0.9078275561332703,0.682087515801552,0.9998659629882857,0.14246615767478943,0.7947543859481812,0.5841441420642333,1.230074273268307,0.3507153391838074,0.8265475034713745,0.653558954705416,1.242410457504422,0.30697911977767944,0.687595784664154,0.5485413971803407,0.7420919082157482,0.08298752456903458,0.7436789870262146,0.7827688693856745,0.7515944926743222,-0.0436144657433033,0.9848958253860474,0.0039004385471343994,0.6558712953526508,0.7298384034199363,176.69095906152222,178.35353712038687,1.0,0.0075765996255194,0.00036308951438114204,0.06563415240802102,-0.009840767131326495,95.78427673401677,0.9843402293359476,21,0.7
0.6623615093714398,0.2287078659046936,0.1285710632801056,0.9996730089187622,0.5680960653647468,0.36383710449358775,-0.06220100075006485,0.9999668002128601,0.7501501310372983,0.3691872053743773,-0.11371810734272003,0.9999796748161316,0.6056110413050574,0.7287558204796537,0.020926814526319504,0.9996293187141418,0.7060680394117969,0.7289604119843053,-0.021133849397301674,0.9997758269309998,0.6008804408576208,0.9884765505064814,0.2196526825428009,0.9066550731658936,0.6809219302823065,0.9993019149933676,0.14655837416648865,0.7918148040771484,0.5825344849919064,1.2287078659046937,0.37388724088668823,0.8233404159545898,0.6524458319766391,1.2415314294431106,0.32418665289878845,0.6831029653549194,0.5477860090316101,0.7437708695539028,0.08328301459550858,0.7379608750343323,0.7822102144309099,0.7504674056993379,-0.048368532210588455,0.9852635860443115,0.0043440163135528564,0.6558395403584272,0.7288581162319795,176.6763997283149,178.60931589627168,1.0,0.008024597017974361,0.0013889345205400016,0.003670619151586867,0.008190763617986823,95.98628430257052,0.9851877014180624,22,0.7333333333333333
0.6638243877308015,0.2282224882954876,0.1323203444480896,0.9996521472930908,0.5683389408090543,0.36349630545080397,-0.06194264814257622,0.9999657273292542,0.7503458605894326,0.36917358565200525,-0.09335759282112122,0.9999791979789734,0.6068091842489682,0.7285003729959039,0.016353467479348183,0.9996172189712524,0.70736381613155,0.728736316297591,-0.016564633697271347,0.9997686743736267,0.6011359037087132,0.9883194488834157,0.20483586192131042,0.908402681350708,0.6806003601162617,0.9999746076571123,0.14544887840747833,0.7921543717384338,0.5825217752183209,1.2282224882954875,0.349942147731781,0.8243328332901001,0.6521301130069341,1.2408071095624555,0.3183583617210388,0.6831356883049011,0.5476714450995164,0.7438351464518054,0.08839882165193558,0.7335807085037231,0.7828654525065949,0.7500735900919959,-0.01568138226866722,0.9856338500976562,0.004610985517501831,0.657086500190259,0.7286183446467474,176.81418068208458,178.8932268223989,1.0,0.010902234425683614,-0.00024157139965309748,0.021893363219314437,-0.012392180721397784,96.15101604696657,0.9861731579050628,23,0.7666666666666667
0.6635235373918809,0.22648827119844114,0.1382024884223938,0.9996094703674316,0.5677939195995749,0.362507246463668,-0.06231125444173813,0.9999647736549377,0.7497057382718536,0.36881461829108875,-0.0862637460231781,0.9999784231185913,0.606166239095299,0.7271536785094012,0.01290670596063137,0.9996106028556824,0.7065256395009342,0.7276693409968668,-0.013112479820847511,0.9997637271881104,0.600861711310711,0.9870190546049663,0.19543114304542542,0.9114159345626831,0.6797866994450306,0.9992077205832155,0.14508628845214844,0.7947947978973389,0.5815511628330214,1.226488271198441,0.34189626574516296,0.8286752104759216,0.6509021225277191,1.2391010354834842,0.3166203796863556,0.6873180270195007,0.5486072283542671,0.7429900297860332,0.08736056834459305,0.7322903871536255,0.7823795620831262,0.7485591699886631,-0.01057399995625019,0.985909104347229,0.005128204822540283,0.6563459392981166,0.727411509753134,176.55909710330818,178.7582015664787,1.0,-0.00029921047853912847,-0.003241262494415088,-0.0844188230183654,-0.022632378483853473,96.30160858714082,0.9881658153238019,24,0.8
0.6653482754598766,0.22736769524321648,0.1367499828338623,0.9996106028556824,0.5697702569355266,0.36247902799008613,-0.0625474601984024,0.9999651908874512,0.7518349543451093,0.3700295031154107,-0.11349712312221527,0.9999786019325256,0.6090491566115498,0.7277085570507063,0.018595930188894272,0.9996195435523987,0.7086520654754717,0.7294950847506737,-0.018803665414452553,0.9997692108154297,0.6027723353468326,0.9889139385342692,0.21733441948890686,0.9109479784965515,0.6822200892109259,1.002226743186404,0.14577023684978485,0.7952573895454407,0.5840088304902689,1.2273676952432164,0.3654652535915375,0.8271145224571228,0.6528861912800269,1.243402834823001,0.3146950602531433,0.687501847743988,0.55044445879308,0.7452876130892699,0.07655669748783112,0.7396256327629089,0.7847953718688332,0.7503706090784994,-0.061936281621456146,0.9864093661308289,0.006119638681411743,0.6588506110435107,0.72860182090069,176.877332148935,178.6008318564634,1.0,0.0033281934342410803,-0.008363245896271066,0.027579083752866624,-0.03885465045207494,97.16590278672638,0.9860020655807107,25,0.8333333333333334
0.6680952014270188,0.22847539229026817,0.1346404254436493,0.9996088147163391,0.5720778942243937,0.36397259599401427,-0.06270166486501694,0.9999654293060303,0.75497835676814,0.3715080257995622,-0.12191244214773178,0.9999784827232361,0.6116616306928057,0.7300004333740547,0.021581700071692467,0.9996278285980225,0.7112427196665663,0.732315773021557,-0.021789202466607094,0.9997736811637878,0.6053247717717122,0.9898301801248752,0.21789701282978058,0.9124442338943481,0.6851776697041487,1.0041835731151865,0.14406876266002655,0.7988871335983276,0.5866419941230935,1.2284753922902683,0.36328622698783875,0.8304599523544312,0.6553664074272783,1.2471514515336088,0.3003239035606384,0.6934135556221008,0.5527920474162896,0.7479505357042265,0.06270994991064072,0.7491690516471863,0.7883046000920938,0.7532856877812363,-0.09367413818836212,0.9868727922439575,0.006083637475967407,0.661452175179686,0.7311581031978058,176.92070643051096,178.48141760908464,1.0,0.00018813840602576384,-0.002382291385334157,-0.025467608816789482,0.04857287058811913,97.5041437292748,0.9890964377262613,26,0.8666666666666667
0.6707468565076901,0.23008134990153867,0.12883992493152618,0.9996137619018555,0.5744418186359656,0.36550101304217436,-0.07180490344762802,0.9999655485153198,0.7582072205816633,0.3732386663462768,-0.1296301931142807,0.9999784231185913,0.6144777687252682,0.7310089943052215,0.021757356822490692,0.9996373057365417,0.7141829647978454,0.7344750170193235,-0.021965643391013145,0.9997789859771729,0.60802371359693,0.9910107356191395,0.21837759017944336,0.9137025475502014,0.6881910561624889,1.005779879758901,0.14340022206306458,0.7999749779701233,0.5897594507144224,1.2300813499015386,0.362743079662323,0.8341614603996277,0.6581067262345769,1.247673735444897,0.3008158206939697,0.6975373029708862,0.5550726850300784,0.7495033938015525,0.04492056742310524,0.7507085800170898,0.7914091621800405,0.7563411458579468,-0.10758564621210098,0.9866839647293091,0.006221503019332886,0.6643303667615568,0.7327420056622725,177.05323221158767,178.38295412963237,1.0,0.0013410840992975814,-0.010551387814042572,0.008678678862381476,-0.06145976129345988,98.24193309156065,0.9900643880357414,27,0.9
0.6725281883031743,0.2315524656557593,0.12777647376060486,0.9995916485786438,0.5762218790353771,0.36653047570479885,-0.08020205795764923,0.9999644160270691,0.7604834580003207,0.3742848292780272,-0.12598058581352234,0.9999773502349854,0.6161180775992462,0.7313514302318068,0.01971716433763504,0.9996294975280762,0.7162029274258682,0.7351935603105064,-0.0199262872338295,0.9997731447219849,0.609369932477853,0.9909018486097801,0.21492131054401398,0.9142782688140869,0.6902946764738233,1.0082342481818685,0.1433430016040802,0.7974146008491516,0.5922251795953309,1.2315524656557593,0.36054620146751404,0.8362430930137634,0.6598924192428428,1.2493563419368665,0.3059728741645813,0.6961541175842285,0.5568067089879513,0.7512452498563614,0.018054937943816185,0.7542352676391602,0.7934165112251019,0.7584412346706192,-0.10967206954956055,0.9863993525505066,0.006218135356903076,0.6661605025125572,0.7332724952711566,177.4142608266147,178.2341395638162,1.0,0.00026473239040207357,-0.01073246861973253,-0.008000839967402078,-0.0011303738833518225,98.43940127008518,0.9862301671019713,28,0.9333333333333333
0.6750412128588783,0.23333048865509676,0.12376485764980316,0.9995916485786438,0.5784429164014354,0.367987576683898,-0.08353313058614731,0.9999646544456482,0.7633388314901217,0.3758348221260006,-0.1276099532842636,0.9999776482582092,0.6184601710071327,0.7295154020672883,0.019674543291330338,0.9996370077133179,0.7189314828934574,0.7359266539355657,-0.019883090630173683,0.9997783303260803,0.6116027243623374,0.9908054962914257,0.21483707427978516,0.9139886498451233,0.6929051206539962,1.0117988859120808,0.14195488393306732,0.7958846092224121,0.595148396604107,1.2333304886550966,0.3600744307041168,0.8365830779075623,0.6623295862858528,1.2534209680766477,0.3019581139087677,0.6957073211669922,0.5590120292582151,0.7542452625614695,0.027399132028222084,0.7554967403411865,0.7964143996679655,0.7618095324701367,-0.09970169514417648,0.9865325689315796,0.00626865029335022,0.6686958269502951,0.732721028001427,177.62202210849065,178.17741609383714,1.0,-9.649736391243879e-05,-0.026184115780656957,-0.0028264263081839093,-0.12024255722139601,99.96751067386425,0.9750380054977177,29,0.9666666666666667
0.6810290999938836,0.23906040660007621,0.1194106787443161,0.9996129870414734,0.5838253153479531,0.371377575361221,-0.08340074121952057,0.9999658465385437,0.7700597808443468,0.37951989009282827,-0.13112786412239075,0.9999783635139465,0.62389223827649,0.7360197983466875,0.02105429209768772,0.9996524453163147,0.7252974503982723,0.742341643808547,-0.02125892974436283,0.9997878074645996,0.6167675435088429,0.9931632846059386,0.22141507267951965,0.9139947891235352,0.6990550053400959,1.0201464738899892,0.14034631848335266,0.7995936274528503,0.6019942882146201,1.2390604066000763,0.36269429326057434,0.8383119106292725,0.6684552678752065,1.264413506913895,0.2958311140537262,0.7003442049026489,0.5635500016467256,0.7602030647915952,0.024297568947076797,0.7639017701148987,0.8032709428209821,0.7694161463797914,-0.10629693418741226,0.9868971705436707,0.006446957588195801,0.6745948443373811,0.7391807210776172,178.14895165875686,178.2560110201862,1.0,-0.0003955373181718868,-0.0004630812591165396,-0.0021403400917800993,0.18629899813895026,99.83785087625185,0.972949838221816,30,1.0
0.683676929455301,0.2427975649480313,0.12228872627019882,0.9996156096458435,0.5862060319021837,0.3733458756645989,-0.08610205352306366,0.9999659657478333,0.7727108530638946,0.38200207964308547,-0.11735899746417999,0.9999784827232361,0.6251440220578444,0.7381609404299543,0.015714459121227264,0.9996592998504639,0.7279787049445858,0.7450181051847261,-0.015920327976346016,0.9997914433479309,0.6186806475037093,0.9955639836232406,0.21530842781066895,0.9168725609779358,0.7018590015290738,1.0236756154356008,0.14069685339927673,0.802249014377594,0.6050009352517265,1.2427975649480314,0.34992116689682007,0.8431102633476257,0.6721148410135366,1.2680140451586281,0.29591646790504456,0.7028564214706421,0.5650216685703324,0.7613714337067897,0.024079320952296257,0.7678418159484863,0.8060750868346129,0.7744495010457076,-0.09947092831134796,0.9870028495788574,0.006826221942901611,0.6765613635012151,0.7415895228073401,178.27138062100042,178.41425761208902,1.0,-0.005921310038096628,-0.004518285182759868,-0.0428422178410957,-0.03143523427333533,99.90723208841534,0.9682110184893205,31,1.0333333333333334
0.685733140031423,0.24430816334380642,0.12144698947668076,0.9996301531791687,0.5885075848795703,0.37480022969838694,-0.09394724667072296,0.9999669790267944,0.7746540924831135,0.38345481213796195,-0.11848940700292587,0.9999791383743286,0.6263539523470683,0.7407409571054422,0.01465509831905365,0.9996658563613892,0.73057128786854,0.7477998049126594,-0.014857171103358269,0.9997950196266174,0.6202969054219395,0.9992643824943973,0.2195831537246704,0.919649600982666,0.7044875171490451,1.0275382388713006,0.14186742901802063,0.8051032423973083,0.6088795845885401,1.2443081633438065,0.3595430850982666,0.8474235534667969,0.6748537243253672,1.2702059812470643,0.30156975984573364,0.705629289150238,0.5667132471769654,0.7629575010187195,0.02159656025469303,0.7760147452354431,0.8081570088165609,0.7802923093298924,-0.10411940515041351,0.9873178005218506,0.00679934024810791,0.6784626201078041,0.7442703810090509,178.67450776547807,178.3647504155842,1.0,-0.00474252361385126,-0.0008188810324823433,0.008812959346710872,0.027269251646822045,99.7794977288453,0.9722402885628602,32,1.0666666666666667
0.685165060119304,0.24474011392057368,0.11432616412639618,0.9996482729911804,0.5880107655325687,0.37524103716931095,-0.09381997585296631,0.9999682903289795,0.7752154110973727,0.3840254480413733,-0.13956937193870544,0.9999799728393555,0.6245730332986652,0.7385094428923101,0.019882556051015854,0.9996810555458069,0.7309704105074186,0.7467179886860209,-0.0200808085501194,0.9998041391372681,0.620446962290825,0.9982961396418889,0.21999144554138184,0.9200501441955566,0.7052418039007757,1.0278687329908751,0.12973542511463165,0.8093277215957642,0.6097503558047933,1.2447401139205736,0.3504396378993988,0.8515179753303528,0.6766211120325307,1.2704749485589264,0.2747194170951843,0.7130086421966553,0.5645156678100042,0.7618914486732147,0.007367855869233608,0.7858700752258301,0.8086682960564748,0.7810112022163286,-0.136742502450943,0.987855851650238,0.006893754005432129,0.6777717219030419,0.7426137157891655,178.42463063640227,178.50048746475528,1.0,-0.011348013438656875,-0.019544758729079816,-0.05211197601446899,-0.1478417060926887,100.15897944486017,0.9646876457310983,33,1.1
0.6847406089170003,0.244903680652135,0.11834913492202759,0.9996621012687683,0.5874971688934872,0.3752754304587651,-0.09312272071838379,0.9999693632125854,0.7750252959663676,0.38413908009574244,-0.13753047585487366,0.9999805688858032,0.6230934153566814,0.7368708402914057,0.02239213138818741,0.9996910095214844,0.7309221596463931,0.7456790690894449,-0.02258448489010334,0.999809741973877,0.6201129213837926,0.9979358111589043,0.22138960659503937,0.921014666557312,0.7052510295256513,1.0275810598618182,0.12471920251846313,0.8131564259529114,0.6101062501810246,1.244903680652135,0.3490903973579407,0.8548821806907654,0.6770473304030689,1.270254289156043,0.2696914076805115,0.7175360918045044,0.5625816842484118,0.760659789076036,0.01374839711934328,0.7945766448974609,0.8086103243629001,0.7811680824969006,-0.13320167362689972,0.9882060885429382,0.006954163312911987,0.6770077875015372,0.7412749546904254,178.3338513872632,178.57400741957022,1.0,-0.007035608875941568,-0.011476381484852648,0.032404480379731475,0.060624559733470106,100.29217103319876,0.9594983502615789,34,1.1333333333333333
0.6882322837045384,0.24844034543812746,0.15989884734153748,0.9996711015701294,0.590519390181552,0.37653934095471175,-0.06991744041442871,0.9999701976776123,0.778954642924631,0.3872134602614111,-0.10241594165563583,0.9999808669090271,0.6245950140114018,0.7403488150588309,0.022125497460365295,0.999694287776947,0.7336029698822962,0.7493792908050855,-0.022314254194498062,0.9998102188110352,0.6231273755800748,1.003346063671058,0.2252184897661209,0.9258350729942322,0.7086392575775314,1.032842767077809,0.12632009387016296,0.8244465589523315,0.6136540235870163,1.2484403454381274,0.35036832094192505,0.8625333905220032,0.6804827893231776,1.276796489793411,0.26989224553108215,0.7296232581138611,0.5633772612483265,0.7632941570477731,0.016080539673566818,0.8072189688682556,0.8114177772472595,0.7851568956872005,-0.10996630042791367,0.9886075854301453,0.008332163095474243,0.6790989919468491,0.7448640529319581,178.10624482714883,178.44907969619325,1.0,-0.010616155416512688,-0.0014610949722377528,-0.027724221720755053,0.07878976080238485,100.08660865826961,0.9571316581914388,35,1.1666666666666667
0.6819660639062576,0.2482859704337378,0.155430868268013,0.9996631741523743,0.5900597267174125,0.37651122242905394,-0.0811883881688118,0.9999703168869019,0.7778503148556773,0.3887947853298033,-0.09601856768131256,0.9999806880950928,0.6235371518783992,0.7396893789351473,0.013789196498692036,0.999679446220398,0.7328230133315966,0.7482284460353877,-0.013981135562062263,0.9997982978820801,0.6224270044581266,1.0030983409978782,0.21775302290916443,0.9270766377449036,0.708261383309406,1.0324711441531271,0.13756832480430603,0.821721076965332,0.6142863813577365,1.2482859704337377,0.3445598781108856,0.8615537881851196,0.6788098073174049,1.274122468594913,0.281515508890152,0.7205730080604553,0.5596149794411102,0.76248060471739,0.003560494165867567,0.8160937428474426,0.809615461275928,0.7853912873693195,-0.10892293602228165,0.9886186718940735,0.0095919668674469,0.6781800826049978,0.7439589124852676,178.33986052041067,177.98997526368035,1.0,-0.005585726026613708,-0.005273171355355486,0.04174982569212944,-0.031666806831331204,99.73432573419196,0.9565323313536737,36,1.2
0.6837992751367217,0.25892235361055105,0.11765209585428238,0.9996775984764099,0.5912288168603045,0.3813109542174571,-0.10182161629199982,0.999971330165863,0.7785141586108505,0.3962298859367662,-0.12375477701425552,0.9999808669090271,0.6256474800550813,0.747061973361035,0.014197656884789467,0.9996870756149292,0.734858590130861,0.7545044309674347,-0.014390063472092152,0.999800443649292,0.6276327895803746,1.0115986474744563,0.217646986246109,0.9288339614868164,0.7112702207977191,1.040049376267526,0.13820531964302063,0.8233981728553772,0.6216586598646994,1.2589223536105512,0.3454163670539856,0.8645269274711609,0.6796872028305582,1.277344908539946,0.28338074684143066,0.7217942476272583,0.5593838256167651,0.7688326914481406,-0.023256242275238037,0.8275916576385498,0.8117442065685451,0.7918293890571938,-0.13708268105983734,0.9886052012443542,0.011554479598999023,0.6802530350929712,0.7507832021642348,178.18629511746215,177.14111564070691,1.0,-0.026852288070015405,0.005197406116304856,-0.16161161581171757,0.08007382310323899,99.27446806753822,0.9492026144283824,37,1.2333333333333334
0.6839533868936846,0.2688379742259462,0.10225296020507812,0.9996818900108337,0.5940295634743189,0.38652862497307633,-0.12119419872760773,0.999972403049469,0.7808537932565102,0.4008725665857715,-0.13815906643867493,0.9999809265136719,0.6301501549506224,0.75625793678153,0.014078119769692421,0.9997029900550842,0.7396943641661614,0.7623982316815278,-0.014271633699536324,0.9998084306716919,0.6340283280134589,1.0222994659547437,0.20428642630577087,0.9316407442092896,0.7172146523247724,1.0500272040473044,0.13557519018650055,0.8275072574615479,0.6290981471994079,1.2688379742259461,0.3233729302883148,0.8708228468894958,0.6849042019256201,1.2847321898530137,0.27502116560935974,0.7301802635192871,0.5611158054261106,0.779920083409547,-0.07246849685907364,0.8385358452796936,0.8172538601300083,0.8001959476689413,-0.17281362414360046,0.9883328676223755,0.010996222496032715,0.6849222595583919,0.7593280842315289,178.01921419326013,176.63057724127145,1.0,-0.017748021366748978,0.006387536947739662,0.07184152465886666,0.008706340989533465,98.78803695326735,0.9465083289456008,38,1.2666666666666666
0.6808452599979125,0.2695730235905712,0.08726691454648972,0.9996933341026306,0.5939755479359223,0.3877371636789638,-0.14227895438671112,0.9999732971191406,0.7804032970405462,0.40526881536167897,-0.1392599493265152,0.9999805092811584,0.6305053364261912,0.7597249765932554,0.010876347310841084,0.9997137784957886,0.7385701088472042,0.7642855918829616,-0.011058353818953037,0.9998119473457336,0.6352003944484342,1.0242690163247439,0.20612478256225586,0.9343946576118469,0.7170677619413344,1.05095496402138,0.14871259033679962,0.8297692537307739,0.6329399494320846,1.2695730235905713,0.3389022648334503,0.8761869668960571,0.686394566831124,1.282323662699853,0.3139813542366028,0.735875129699707,0.5583834312963364,0.7838394538789766,-0.0839274451136589,0.8491436839103699,0.8145774556829707,0.8020337773734283,-0.1665228307247162,0.9874350428581238,0.013415485620498657,0.6845377226366978,0.7620052842381085,178.455277995163,176.73775481327334,1.0,-0.01210307264517932,0.009571904323367684,0.04205572309103967,0.023502434050944824,98.02515037270068,0.957050140116451,39,1.3
0.6759114126301267,0.2762401661848433,0.08504020422697067,0.9997063279151917,0.5969123736564793,0.3960707189616985,-0.1348092406988144,0.9999736547470093,0.7825008303346298,0.40995631162409524,-0.1363663673400879,0.9999793171882629,0.6345195949146181,0.7709443803541844,0.009675109758973122,0.9997228384017944,0.740982369391802,0.7734196226251938,-0.009856940247118473,0.9998134970664978,0.6408088343674029,1.033862795309248,0.20700272917747498,0.9355512261390686,0.7205779522081005,1.0579926930552581,0.16372106969356537,0.8258641362190247,0.6395073806430819,1.2762401661848433,0.3503517210483551,0.8771713972091675,0.6910230705283287,1.2857823520972582,0.3383933901786804,0.7324170470237732,0.5595913770977005,0.7975539226187084,-0.0803397074341774,0.857056200504303,0.8165823230109801,0.809209737614257,-0.16487647593021393,0.9846201539039612,0.01052829623222351,0.68775098215321,0.7721820014896891,178.32204722329317,176.70857370222086,1.0,-0.024333735506407893,0.02464150399412599,-0.09498773694450176,0.11742227175220578,97.06060752261925,0.9739970037916599,40,1.3333333333333333
0.6714482519690574,0.2784650905485281,0.07591483741998672,0.9997148513793945,0.5958563210548306,0.399201938630906,-0.13200519979000092,0.999973475933075,0.7803507966132357,0.41083807437746916,-0.1342562884092331,0.999978244304657,0.6339877411866112,0.774372586863078,0.008600885048508644,0.9997280240058899,0.7400450879769584,0.7758724195691955,-0.00877995602786541,0.9998136758804321,0.6414138084618826,1.0365261790790479,0.20687825977802277,0.935672402381897,0.7218052276786793,1.0590239849107261,0.16497278213500977,0.8187156319618225,0.6425425643829256,1.2784650905485282,0.35123392939567566,0.8741694688796997,0.6932101302189101,1.2878004477746565,0.3371341824531555,0.7200573682785034,0.5584511742824755,0.7991904796599917,-0.08887238800525665,0.8615953326225281,0.8142673802700086,0.8032368204003728,-0.15504159033298492,0.9833205938339233,0.008800506591796875,0.6870164145817848,0.7751225032161367,178.64471621877564,176.56121419970557,1.0,-0.018394080114036836,0.00738239454859149,0.04468171728554788,-0.12896785688620055,96.61367947046125,0.9774364563715889,41,1.3666666666666667
0.6727689173282267,0.2829196701366975,0.07467182725667953,0.9997294545173645,0.6015290184492881,0.4073245719549183,-0.1299753189086914,0.9999740719795227,0.7859979899412299,0.4166662635140908,-0.09966466575860977,0.9999774098396301,0.6394312645982048,0.7864029283830302,-0.0021369506139308214,0.9997470378875732,0.7472972617996995,0.7872343156222477,0.0019322556909173727,0.9998246431350708,0.6490167668424185,1.0508178952884684,0.18781578540802002,0.9366877675056458,0.7325731435053779,1.0688020719030416,0.1850016564130783,0.8061507344245911,0.6524441901229164,1.2859794182680253,0.33314892649650574,0.8729323148727417,0.7038709724108099,1.2829196701366976,0.36671265959739685,0.7053871154785156,0.5648594995947617,0.8106181512457075,-0.08288398385047913,0.8651484251022339,0.8213935599834459,0.8077688687500072,-0.13366831839084625,0.9799643158912659,0.006963223218917847,0.6933642631989522,0.7868186220026389,178.7588507936022,175.35855370514534,1.0,-0.02840129968830791,0.0026346850790490905,-0.07447667891424443,-0.03713818461201812,96.15136049974113,1.0129655923776169,42,1.4
0.6654606549527108,0.2821446080183627,0.08275384455919266,0.9997455477714539,0.5995762274201517,0.40839982006013525,-0.1263795793056488,0.9999750852584839,0.7842739997394291,0.417883638820816,-0.08053330332040787,0.999977171421051,0.6365113743772072,0.7876037871362195,-0.005392315331846476,0.999767005443573,0.7439214751869265,0.7875444337778602,0.005189143121242523,0.9998370409011841,0.6467893842679004,1.048130554190986,0.18491525948047638,0.9386995434761047,0.7329519826731389,1.0631407145540415,0.18524029850959778,0.8016842007637024,0.653273578686545,1.2839020913559773,0.3324125409126282,0.8754266500473022,0.7070148050433157,1.2821446080183627,0.36415645480155945,0.7025238275527954,0.5623974677233617,0.8106742455519227,-0.09315786510705948,0.8719286322593689,0.8176173086231651,0.8067512445357364,-0.11974958330392838,0.9774119853973389,0.007066786289215088,0.6902164247820669,0.7875741104570398,179.3161555068403,175.52510636859378,1.0,-0.02496838440351742,0.003624295220028653,0.025421571414812574,0.007301417638297855,95.53150239853035,1.0211530403305642,43,1.4333333333333333
0.6597337651023647,0.2805561103931433,0.08647943288087845,0.9997498989105225,0.5947779943814125,0.40820206797046504,-0.12398193776607513,0.9999756813049316,0.7789773871225216,0.41626557621287186,-0.08680067956447601,0.9999759197235107,0.6315394827475443,0.7847631165864061,-0.00346229481510818,0.9997852444648743,0.7367837819440989,0.7843515980199286,0.0032631084322929382,0.9998482465744019,0.6423879745714524,1.0419929071829956,0.1844310313463211,0.9411313533782959,0.731009131519676,1.0577372584271238,0.18057607114315033,0.8027318120002747,0.6515060639010303,1.2805561103931433,0.3253934979438782,0.8795400261878967,0.708125495069668,1.28088975686211,0.3509160876274109,0.7055056691169739,0.5576938987331158,0.8075469619759396,-0.09609601646661758,0.8762582540512085,0.8086908130213625,0.8036488936024844,-0.12218491733074188,0.9718663692474365,0.006029993295669556,0.6841616323458216,0.7845573573031673,179.77384872316213,175.35501486612776,1.0,-0.02797582090806523,-0.0015863267348857953,-0.024135590931621632,-0.04051153227888102,95.35175608983616,1.016943118802413,44,1.4666666666666666
0.6596367718970862,0.27946754435364013,0.13369524478912354,0.9997603893280029,0.5918642724526231,0.40868450747086454,-0.0799524113535881,0.999976634979248,0.7768141925279513,0.41567855066213133,-0.0803743228316307,0.9999760985374451,0.6300733109712099,0.783912168144433,0.0032965496648103,0.9998016953468323,0.7354155709760244,0.7834169864632097,-0.0034773238003253937,0.9998589158058167,0.6406427330844355,1.040942588679665,0.20249328017234802,0.9456045627593994,0.7319318643540541,1.0574252124897638,0.17394497990608215,0.8182500004768372,0.6506037663861002,1.27946754435364,0.33872589468955994,0.8887794017791748,0.7101511946108788,1.2809031731731741,0.3248642683029175,0.727969765663147,0.5550473154256558,0.8064021737042804,-0.03262929245829582,0.8844589591026306,0.8068293674183391,0.8019413987907257,-0.11077223718166351,0.9721171855926514,0.005236417055130005,0.6827444409736172,0.7836645773038213,179.96341184662512,175.16181643422416,1.0,-0.004627594936052409,0.0002554511005039547,0.17707036030210024,0.013973403608845589,95.54499987557683,1.016511696970562,45,1.5
0.6589216050589448,0.27871327182913774,0.14187106490135193,0.9997521042823792,0.587557709254779,0.40857698193207004,-0.07679479569196701,0.9999772906303406,0.7710126784697184,0.4126951067998256,-0.08577929437160492,0.9999749064445496,0.6271220801002916,0.779359285523821,0.009418574161827564,0.9998157024383545,0.7318759024796705,0.7787707661634363,-0.00958989653736353,0.9998673796653748,0.6386699239832473,1.0394183739966194,0.1989975869655609,0.9492083191871643,0.7310184070322577,1.0563863682871388,0.1371641606092453,0.8314435482025146,0.6496800939706879,1.2787132718291379,0.30345430970191956,0.8968985080718994,0.7104723072600585,1.2891561908875506,0.2501397728919983,0.747730016708374,0.5534505396168761,0.8045946172383022,-0.03826167434453964,0.8910035490989685,0.8008096315383406,0.7996647936201862,-0.11363891512155533,0.9694925546646118,0.0030872225761413574,0.679498991289981,0.7790650258436287,179.9081596814716,175.1326699738929,1.0,-0.01779103965459003,-0.027007593593616132,-0.09920689319099646,-0.20537321707437434,95.76881559479888,0.9918857292253908,46,1.5333333333333334
0.6623551957327148,0.27981592321463833,0.140593022108078,0.9997610449790955,0.5842425117389517,0.41150591267727243,-0.0632089152932167,0.9999783039093018,0.7662953831065284,0.41286039869383595,-0.09877681732177734,0.9999749064445496,0.6232251577970045,0.779714486899483,0.023392658680677414,0.9998292922973633,0.7265041895922483,0.7791799626588684,-0.023553764447569847,0.9998760223388672,0.6375590775559277,1.0399270915299186,0.21301762759685516,0.9526756405830383,0.7314378006077429,1.0571386925354127,0.13001295924186707,0.8448552489280701,0.650564442087341,1.2798159232146382,0.307187020778656,0.9045222997665405,0.7106371715872526,1.3005359758875479,0.25629723072052,0.7669112682342529,0.5512976033309133,0.8030018467732971,-0.03664958104491234,0.898090660572052,0.7975672783668216,0.7992095086453529,-0.11988379806280136,0.9698667526245117,0.0010149776935577393,0.6748646736946263,0.7794472247791757,179.95022765565008,174.09853406021358,1.0,-0.03568759789191611,0.00034517378099341203,-0.1295975897539866,0.19824316529213226,95.74692078935982,0.9785137012240779,47,1.5666666666666667
0.6683268051353112,0.2852271434121151,0.13302671909332275,0.9997778534889221,0.5846933690266708,0.417437347998268,-0.06844928860664368,0.9999796748161316,0.766819242657489,0.41597616133948034,-0.11370619386434555,0.999975860118866,0.6234157364341519,0.7850016709229221,0.027023226022720337,0.9998436570167542,0.7276848904442349,0.7839139893927426,-0.027178674936294556,0.9998860359191895,0.6381845248272399,1.0470682930583384,0.222822904586792,0.9560327529907227,0.7361246328314052,1.0642371962578054,0.1309673935174942,0.8579792976379395,0.6550814275615873,1.2852271434121152,0.3311140835285187,0.9116901159286499,0.7239657755905269,1.3131275921227896,0.2543083429336548,0.7861549258232117,0.5531071998959567,0.8058457236425624,-0.02845502272248268,0.9044660925865173,0.7979382901297185,0.8000987578311749,-0.1269543468952179,0.9703583717346191,0.0010875463485717773,0.6755503134391935,0.7844578301578323,179.16727418732762,175.47870176250095,1.0,-0.028330533381036017,-0.002061439443601413,0.055228988114360694,-0.01750705843287642,95.41618667801897,0.9696499267702774,48,1.6
0.6475391801465805,0.29021411687389154,0.129335418343544,0.9997938871383667,0.5787683098770032,0.42420706366465677,-0.06741594523191452,0.9999807476997375,0.7600820909413094,0.41759426044359893,-0.09844231605529785,0.9999767541885376,0.6214980642093557,0.7897104497280616,0.02436446025967598,0.9998564124107361,0.7265715989694836,0.7870172037518364,-0.024528509005904198,0.9998949766159058,0.6390131271421732,1.050820727518496,0.22458532452583313,0.9574260115623474,0.7397489681702342,1.0661348457209217,0.13383692502975464,0.8687699437141418,0.6584353298077672,1.2902141168738914,0.3453376889228821,0.9158134460449219,0.7350365916658629,1.3192459417757605,0.25762832164764404,0.8013319373130798,0.5509273820690396,0.8090888770971166,-0.02339533530175686,0.9103520512580872,0.7926554941042132,0.7923120449456929,-0.11922647804021835,0.9696707725524902,0.004902690649032593,0.6740348315894197,0.788363826739949,179.19930524438053,176.23042777467188,1.0,-0.033235264501505116,0.00673330141687403,-0.03835265202422019,0.07042261653153997,95.19970210567381,0.9651506044605328,49,1.6333333333333333
0.6556242530320016,0.2929176684559159,0.14149229228496552,0.9997979998588562,0.57693607509671,0.4269595924108605,-0.0468677394092083,0.9999816417694092,0.7590995491784749,0.4196918310487151,-0.10811775922775269,0.9999776482582092,0.6185501311501854,0.7913917869745194,0.03428541123867035,0.9998674392700195,0.7230181993098164,0.7876389250971279,-0.03443874791264534,0.9999027848243713,0.6397053020240397,1.0526654718199542,0.25196588039398193,0.9592966437339783,0.7418324534101918,1.0555391456292182,0.13649985194206238,0.8792539834976196,0.659465807053704,1.2929176684559158,0.3761030435562134,0.9208282232284546,0.7354539496148467,1.3154653704402415,0.25952962040901184,0.8165162801742554,0.5496440281176653,0.8111236543499579,-0.003819096367806196,0.9149629473686218,0.7931729604557697,0.7870235578942302,-0.1284966617822647,0.971097469329834,0.005377531051635742,0.670784165230001,0.7895153560358237,179.9271683154552,174.57705663247165,1.0,-0.033637352130751696,-0.0030966434524592737,-0.0024563919439758194,-0.07202603671275969,94.45693557167381,0.9640270453708174,50,1.6666666666666667
0.6628838931579841,0.3013689279331117,0.08125452697277069,0.9998161792755127,0.5803705889479276,0.43661005386460117,-0.0697733610868454,0.9999831318855286,0.7693741092006036,0.428758084456136,-0.1646096408367157,0.9999794960021973,0.6272081319415219,0.805472759910486,0.039486080408096313,0.9998801946640015,0.731000259719335,0.8001532487568013,-0.039657704532146454,0.9999121427536011,0.6484958519726882,1.067538055442186,0.251027375459671,0.9596622586250305,0.7572042392263111,1.0545820168856515,0.11456407606601715,0.888661801815033,0.6716493694682805,1.3013689279331118,0.3803001046180725,0.9268945455551147,0.7469575632545723,1.3046479921563532,0.22932124137878418,0.8328837156295776,0.5569798187622313,0.8253840289622931,-0.04246716946363449,0.9196863770484924,0.8053556709727053,0.8011893382650626,-0.20251397788524628,0.9726923108100891,0.005707830190658569,0.6791041958304285,0.8028130043336437,178.9890809088963,171.7733260628278,1.0,-0.030495352406349322,-0.006713373698660094,0.031160859231048194,-0.029649884997644416,94.30265847732703,1.001194766598306,51,1.7
0.6753903527397739,0.3109160820860253,0.08006683737039566,0.9998327493667603,0.594292283556562,0.4504155789290848,-0.07167631387710571,0.9999845623970032,0.7822411832930657,0.4397996035937108,-0.16027921438217163,0.999981164932251,0.6448737344717126,0.8263721317399557,0.04281572997570038,0.9998916983604431,0.7488294175481333,0.8192791697232316,-0.04299706220626831,0.9999204874038696,0.6643717256816328,1.0935022362121802,0.24970361590385437,0.9588978886604309,0.777186125170054,1.0751724565025005,0.1027628630399704,0.8974831700325012,0.6918140345406121,1.3264721322761799,0.3763890862464905,0.9324660301208496,0.7653976905984882,1.3109160820860253,0.21887223422527313,0.8476956486701965,0.5685436437520588,0.848457498825827,-0.06771376729011536,0.9263919591903687,0.8247448703594142,0.8152890736770853,-0.2174299657344818,0.9743725061416626,0.007522702217102051,0.6968515760099229,0.8228256507315936,177.45654598769792,170.8138824004526,1.0,0.0015240508495520855,-0.005529085072253974,0.2485354228893321,0.01028573669627949,93.7593225912165,1.03114132790862,52,1.7333333333333334
0.6837260126210719,0.31903667439228467,0.08948531001806259,0.9998468160629272,0.6028740500434264,0.4633800020444802,-0.07201715558767319,0.9999858140945435,0.7970559484988355,0.450202265168225,-0.1521826833486557,0.9999827146530151,0.6582166490411592,0.8423631745564545,0.03929094225168228,0.9999018311500549,0.7626295619609976,0.8320839657080815,-0.039480503648519516,0.9999278783798218,0.676337222529657,1.1125577316266821,0.22142858803272247,0.9588215351104736,0.7934562045201033,1.0864451069399377,0.08330442756414413,0.9041418433189392,0.7055725601150659,1.3562595151192316,0.2931087017059326,0.9376688003540039,0.7800580585182582,1.3190366743922848,0.17965607345104218,0.8604185581207275,0.5802681057976675,0.8655815189286581,-0.06288565695285797,0.9313479065895081,0.8403077961736899,0.8304114822127541,-0.19825707376003265,0.9763961434364319,0.009153157472610474,0.7104231055010783,0.837223570132268,176.99607477243234,169.79307689319154,1.0,-0.00392353426038036,-0.017336718135202427,-0.04277558358276891,-0.0913231658028202,92.68561295254065,1.0346996118537293,53,1.7666666666666666
0.6935988087277867,0.3395282420623853,0.13449785113334656,0.9998572468757629,0.6136140958713213,0.47716744685668516,-0.058641232550144196,0.9999868869781494,0.8126509874293953,0.4609974462506053,-0.14776873588562012,0.9999841451644897,0.6713651619377725,0.8600791574915951,0.039676181972026825,0.9999110698699951,0.7773384568803525,0.8485789288919369,-0.03989327326416969,0.9999346137046814,0.6873571279515646,1.1313084629142094,0.19761677086353302,0.9601047039031982,0.8101753253035673,1.1025917109783625,0.03764808177947998,0.9126821756362915,0.7170016398764544,1.386297543948402,0.20862504839897156,0.9429892301559448,0.7960013360479812,1.3395282420623853,0.05357224866747856,0.8733086585998535,0.5922803035498561,0.8837584591894576,-0.03994929417967796,0.9362626075744629,0.8562223254283535,0.8489464757003261,-0.18853208422660828,0.9782100319862366,0.01100042462348938,0.7243518094090625,0.854329043191766,176.74299148001245,169.2106199286212,1.0,-0.007561634080540669,-0.0036803723693235478,-0.02692850702047045,0.1061840351553145,92.38325121089953,1.012005632769511,54,1.8
0.7023690775607168,0.34693778866551434,0.13060608506202698,0.9998668432235718,0.6188490017933119,0.48226778630353956,-0.05717150494456291,0.999987781047821,0.8190631648035819,0.4680277439491776,-0.1419033706188202,0.99998539686203,0.6771304866651157,0.8687498333908845,0.03962697461247444,0.9999192953109741,0.7811653808354483,0.8554816812336541,-0.03985532373189926,0.9999406337738037,0.6945526413511736,1.1393442034950674,0.16912519931793213,0.962550938129425,0.818314719017546,1.1026063289411703,0.028857359662652016,0.9204755425453186,0.7218539970113536,1.402432949185482,0.16863040626049042,0.9481343626976013,0.8044561174394776,1.3469377886655143,0.05513429641723633,0.8850589394569397,0.5995907593027223,0.8889700913057806,-0.0261906236410141,0.9402677416801453,0.8631156334126533,0.8588592963546855,-0.18119847774505615,0.9800326824188232,0.009583830833435059,0.729147933750282,0.8621157573122693,177.75937455010222,168.2045834898734,1.0,-0.0238624217977453,-0.011411494615622438,-0.12741420227317993,-0.060421897673781685,91.30757192599245,1.0042349712212617,55,1.8333333333333333
0.7043116802554218,0.3539646094603289,0.13592171669006348,0.9998759627342224,0.6199493492981465,0.48773813390507376,-0.04710746929049492,0.9999886155128479,0.8216413658579641,0.47267838752871827,-0.1391231119632721,0.9999865889549255,0.6808096905335274,0.8737145083293121,0.04129112511873245,0.999926745891571,0.7851115034802283,0.8597556030453771,-0.041527099907398224,0.9999460577964783,0.6979395698075834,1.1437947596227058,0.17337027192115784,0.9642166495323181,0.8220662206743963,1.1066216092192516,0.012473381124436855,0.9276173710823059,0.7239592803128462,1.4097440874779181,0.1743636429309845,0.9526402950286865,0.8081351645124599,1.353964609460329,0.033318690955638885,0.8956068158149719,0.6030198858301665,0.8908698344049388,-0.01740310899913311,0.9437224268913269,0.8655786498131729,0.8631174280472779,-0.17867626249790192,0.9816524982452393,0.010088592767715454,0.7329605970068778,0.8667350556873445,178.04126312645695,168.26264656319205,1.0,0.0033044297270641817,0.0047792015749894366,0.213648744592613,0.12722643202235093,91.33785619125018,0.9949394949059301,56,1.8666666666666667
0.7014186626449511,0.3503874514822105,0.161672443151474,0.9998830556869507,0.6181581768506198,0.4846388675143729,-0.02033269591629505,0.9999892115592957,0.815751967282111,0.4733468347057898,-0.12671014666557312,0.9999876022338867,0.6781259166833176,0.8697303551665158,0.04688388481736183,0.9999332427978516,0.7797578432664606,0.8555288492196766,-0.04712777957320213,0.9999508261680603,0.6949418743065091,1.1368278718492664,0.18295302987098694,0.9634140729904175,0.816787066599213,1.1004169447715573,0.0045278603211045265,0.933336615562439,0.7201877314293245,1.400046356719652,0.18304726481437683,0.9554966688156128,0.8028201784406004,1.3503874514822105,0.011527841910719872,0.9037227630615234,0.6003735462376837,0.8785525685555126,0.010729600675404072,0.9438561201095581,0.8584760525118718,0.8578640446158184,-0.17144881188869476,0.9828281998634338,0.007599294185638428,0.7289418799748891,0.8626296021930961,178.12387556512522,168.20348659326882,1.0,-0.004826092139563767,-0.0010547320840987218,-0.058377496577812035,-0.04180877214283428,90.89650055048124,0.998752083542782,57,1.9
0.6998514112618048,0.35000819850187115,0.16582997143268585,0.9998915195465088,0.6159364214901701,0.48270394319897725,-0.021010909229516983,0.9999898076057434,0.8116208608219407,0.47305872481124567,-0.1173047423362732,0.9999885559082031,0.6762209574198562,0.8669107802063567,0.04510175436735153,0.9999388456344604,0.7770143948735009,0.8515655164078011,-0.045342251658439636,0.9999549984931946,0.693073085106632,1.1325414459330994,0.1632370501756668,0.9641813635826111,0.8113354920145532,1.097296587617034,0.014193800278007984,0.938399076461792,0.7178065498897939,1.3962822830087518,0.1344403624534607,0.9583657383918762,0.8002212999330828,1.3500081985018713,0.01765536703169346,0.9108142852783203,0.6024794407054006,0.872389048744587,0.034068234264850616,0.9407997727394104,0.8539173581295951,0.8536810964274095,-0.1384376585483551,0.9840070009231567,0.006509125232696533,0.7266176761466785,0.8592381483070789,178.27259459008383,169.53074056145263,1.0,-0.0022169315402526825,-0.007407349493373826,0.01937245619213122,-0.04743258217856145,90.26086748214922,0.9902981413056847,58,1.9333333333333333
0.7013239736817637,0.3501579657539393,0.18149641156196594,0.9998980760574341,0.6154826394846128,0.48212716324870375,-0.015118017792701721,0.9999901056289673,0.8089145506772982,0.47316930984872924,-0.08794812858104706,0.99998939037323,0.6762962538464942,0.8665852297627101,0.03791575878858566,0.9999436140060425,0.7762496928235185,0.8511377958154771,-0.03818994015455246,0.9999586343765259,0.6930894806083892,1.1278608251905995,0.14986784756183624,0.9653947353363037,0.8059004021484296,1.0961852014358067,0.03244452923536301,0.9422872066497803,0.7176562260070113,1.3952523120907754,0.1213354840874672,0.960838258266449,0.7983200415578985,1.3501579657539393,0.051796864718198776,0.9166691899299622,0.6069829348950099,0.8688990644792906,0.06737691164016724,0.9272846579551697,0.8521182881331731,0.8538111031748296,-0.0891590416431427,0.9850634336471558,0.006046712398529053,0.7262729733350063,0.8588615127890936,178.42822470684735,171.3911494294836,1.0,-0.001290648653583387,-0.0012901440340133687,0.007053925315840665,0.04659767467826537,90.20323225431375,0.9893012784268961,59,1.9666666666666666
0.7163116465275402,0.36656918835374297,0.14992572367191315,0.9999004602432251,0.627238591530044,0.49318511364244966,-0.04237934201955795,0.9999901056289673,0.8214878278938247,0.483380915396915,-0.08945916593074799,0.9999897480010986,0.6909446692610793,0.8854655669896369,0.031879972666502,0.9999474287033081,0.7914967919073945,0.8690960988778844,-0.03215266391634941,0.9999613761901855,0.708047884530666,1.151792342882265,0.1562071293592453,0.9654880166053772,0.815103560413863,1.116889673027191,0.09338345378637314,0.941195547580719,0.7330377547084513,1.4227967794468568,0.17085836827754974,0.9622584581375122,0.8124362659717137,1.366569188353743,0.17737999558448792,0.9176698327064514,0.6222387330860821,0.8819928457398034,0.02070673182606697,0.916698694229126,0.8669214555134453,0.8720903246538143,-0.1311403512954712,0.9849370718002319,0.0064813196659088135,0.741220730584237,0.8772808329337606,178.40596549012542,173.94591654007277,1.0,-0.002909103443123895,0.0024101666343361665,-0.012534436386881469,0.02936232375909981,89.97786561952003,0.9864112302353248,60,2.0
0.7216292902319414,0.3706168926464843,0.09193792939186096,0.9999043345451355,0.6313056488060041,0.4978932166934942,-0.06482230126857758,0.9999893307685852,0.8262645947197708,0.4908861945816807,-0.1374591886997223,0.9999904036521912,0.6926723115160678,0.8896577703307011,0.028552820906043053,0.9999513030052185,0.7922767775322556,0.87324226248316,-0.02881496027112007,0.9999644756317139,0.7130133201675497,1.1553068631525845,0.15704503655433655,0.965365469455719,0.8147791760573586,1.1216077698212819,0.1437314748764038,0.9373002052307129,0.7386820600079542,1.4285038928367053,0.19348262250423431,0.9635259509086609,0.8155730985881009,1.3706168926464843,0.27393490076065063,0.9182040691375732,0.6378711439770612,0.8811987331639489,0.009776534512639046,0.858570396900177,0.8662285691348071,0.8787322817119781,-0.1537681519985199,0.9854481816291809,0.0046014487743377686,0.7424745445241617,0.8814500164069305,179.0110744819076,175.00570244685306,1.0,-0.02780908105933247,-0.012707209838348298,-0.18722904576918148,-0.11388111525916195,89.5439485725096,0.984572157528285,61,2.033333333333333
0.7258882741985494,0.3776310914321059,0.10552261024713516,0.9998887777328491,0.6374774108588978,0.5045883495235439,-0.05025940015912056,0.9999859929084778,0.8323746633809845,0.49577245394855873,-0.11117392778396606,0.9999905824661255,0.6974261510301628,0.8952466031513956,0.02223963662981987,0.9999525547027588,0.7954168296708582,0.8793276553915161,-0.022481735795736313,0.999966025352478,0.7201799410579285,1.1639625334054604,0.13937067985534668,0.9657437205314636,0.8170857364574027,1.1332498648074565,0.14922022819519043,0.9322100281715393,0.748522040631902,1.438554903101211,0.18234190344810486,0.9635096788406372,0.8214227965973746,1.377631091432106,0.2690637409687042,0.9121878743171692,0.650214245092576,0.8770685008677555,0.015482591465115547,0.8007597327232361,0.8699921002402624,0.890975668181333,-0.15174642205238342,0.9856758713722229,0.005737423896789551,0.7464214903505105,0.8872871292714559,178.94710519396546,176.13910696188134,1.0,-0.022196598807587193,-0.017121239269109297,0.047009083772550524,-0.034463784572512354,89.49700614635486,0.976710050977726,62,2.066666666666667
0.7391149399360043,0.38306313662920655,0.1929197758436203,0.9998583197593689,0.6493162727407055,0.5133501562295348,-0.0005945656448602676,0.9999825358390808,0.8446309414501069,0.5038050347897919,-0.056449681520462036,0.9999907612800598,0.7076524395580963,0.9050078228402039,0.013233533129096031,0.9999528527259827,0.8074181797533693,0.8869779832519589,-0.013519287109375,0.9999668002128601,0.7340600059313774,1.1802939437363889,0.09156470000743866,0.9678555727005005,0.8255722132380298,1.1521809023959282,0.16313306987285614,0.9290328025817871,0.7638076608566782,1.462756178174326,0.08045928180217743,0.9654104709625244,0.8352667962513116,1.3830631366292065,0.27353435754776,0.909202516078949,0.6670258841478403,0.8919881626993189,0.11537086963653564,0.7353252172470093,0.8838959793135113,0.9128558141729245,-0.061342351138591766,0.986087441444397,0.0061019062995910645,0.7575353096557328,0.8959929030460814,179.46751340831557,178.4884169563642,1.0,-0.017387897152224253,-0.05394353867866025,0.03847158423183891,-0.2696621894667359,88.22771763856662,0.970999638223497,63,2.1
0.7490639593547876,0.39085421456932257,0.19862444698810577,0.9998108148574829,0.6617423449200471,0.5213302275992299,0.022589905187487602,0.9999751448631287,0.8532210743558712,0.5095177180691643,-0.05390895530581474,0.9999908804893494,0.7151482250803117,0.9143198130564919,0.01617833413183689,0.9999521374702454,0.8143319271820643,0.89643087133505,-0.016453759744763374,0.9999674558639526,0.7437189460658912,1.1943196933526252,0.11419087648391724,0.9676566123962402,0.8304180532659114,1.1662150162798437,0.16786283254623413,0.9201670289039612,0.775813390720184,1.4761736640135372,0.12853330373764038,0.9641602635383606,0.8398959603738729,1.3908542145693226,0.2977587580680847,0.896487295627594,0.6790596299863936,0.8854265985432275,0.16418176889419556,0.6670078635215759,0.8923527396786578,0.9266250877955994,-0.06250850856304169,0.9857195019721985,0.00746995210647583,0.764740076131188,0.9053753421957709,179.32996571566468,179.00369958910724,1.0,-0.008178603187852355,-0.002986019410005989,0.0730154575685722,0.40043495691364533,87.51483759553285,0.9714336812068262,64,2.1333333333333333
0.7595801050591898,0.3900278280040312,0.19815106689929962,0.9997553825378418,0.6666790363471257,0.5221458827235317,0.03518747538328171,0.9999669790267944,0.855419303367924,0.5151203291354792,-0.06073395535349846,0.999990701675415,0.7165635497999087,0.9159095902887999,0.017259346321225166,0.9999507069587708,0.8157957231310475,0.8985175362882517,-0.01756022684276104,0.999967634677887,0.7469475452841254,1.1943912280647087,0.12824904918670654,0.9677219986915588,0.8299357786964076,1.1691830468147082,0.16876861453056335,0.9143713116645813,0.778825156077512,1.4676261384001055,0.13213881850242615,0.9635871052742004,0.835022833391452,1.3900278280040312,0.317440927028656,0.8870552778244019,0.6856297645105558,0.8832371094946173,0.16683563590049744,0.6068042516708374,0.8942647268363806,0.9311138160738048,-0.055850349366664886,0.985900342464447,0.004434794187545776,0.766179636465478,0.9072135632885259,179.57221167792068,178.32903123889275,1.0,0.0004560203753365768,0.0015572477150699305,0.06570456223487359,0.03455362092517286,87.27908631786396,0.9885779536187417,65,2.1666666666666665
0.7704100322222505,0.3916022922507526,0.18759727478027344,0.9996803402900696,0.6731539029826104,0.5243543163487904,0.023831620812416077,0.9999575614929199,0.8599677713458505,0.5199432081620372,-0.06854459643363953,0.9999902844429016,0.7201855005873501,0.9204736625040933,0.01888204924762249,0.9999483823776245,0.8197118138914877,0.903121143769762,-0.01916603371500969,0.9999671578407288,0.7513949697390616,1.198621040705711,0.12994135916233063,0.9671297669410706,0.8318347362543377,1.1745102904077194,0.18313097953796387,0.9011334180831909,0.7826558108237817,1.4752098997652,0.14946778118610382,0.9625410437583923,0.8357333109820362,1.3916022922507527,0.33617737889289856,0.8716955780982971,0.6916991707986564,0.8818990804305404,0.15248046815395355,0.5517798066139221,0.8983907516669611,0.9362618750456708,-0.07321101427078247,0.9857984781265259,0.00277140736579895,0.7699486572394189,0.9117974031369277,179.95371989161592,178.47112100898727,1.0,0.0011818026411789466,0.0022870681669444792,0.005307273416615054,0.005298858067855616,86.88091441968159,0.9944763838404423,66,2.2
0.7635880398984464,0.39114001136364573,0.1851041316986084,0.999617338180542,0.670398032973909,0.5242091990822777,0.01882411725819111,0.9999492764472961,0.8551719031441974,0.5200802741706502,-0.06733367592096329,0.9999902248382568,0.7162317028266332,0.9153225875863195,0.019886627793312073,0.9999468326568604,0.8149354949806241,0.8994831887488824,-0.02016562782227993,0.9999674558639526,0.7477495842978421,1.19176332584364,0.1306879073381424,0.9656320810317993,0.8253901433873262,1.1712263246081176,0.16312101483345032,0.893250048160553,0.777959762224143,1.4613714451319724,0.18038299679756165,0.9603294730186462,0.8267845303971628,1.3911400113636458,0.29685547947883606,0.8620898127555847,0.6930153430440351,0.8820390610879082,0.14094257354736328,0.5017715692520142,0.8914279461972995,0.931920065866228,-0.0697597861289978,0.9855197072029114,0.0026091337203979492,0.7655835989036287,0.907402888167601,179.88906176836596,178.16005782925265,1.0,0.0005192159435065732,0.006691911080933669,-0.005144064526067437,0.03465541520418095,87.56711523088512,0.9925209609355462,67,2.2333333333333334
0.7633659402046276,0.39410785389413056,0.18114319443702698,0.9996210336685181,0.67145182374749,0.529931016952343,0.012542223557829857,0.999946653842926,0.8557954209477466,0.5261185289736962,-0.06884180009365082,0.9999904036521912,0.7184760785627659,0.9157356275567416,0.020412879064679146,0.9999452829360962,0.8156726789512139,0.9000523997722848,-0.020680958405137062,0.9999674558639526,0.747857456956538,1.1918948351148013,0.13111241161823273,0.963514506816864,0.8252907050390068,1.173927473563402,0.15830206871032715,0.8819326758384705,0.7778953539702039,1.4600190964075137,0.17341987788677216,0.9563003182411194,0.8237757491664841,1.3941078538941305,0.2775493264198303,0.8480761051177979,0.6950502619351722,0.8883884850332767,0.1410873979330063,0.45943373441696167,0.8911860016416739,0.9326331977726487,-0.06707005202770233,0.9856764674186707,0.0024083852767944336,0.7670743787569898,0.9078940136645133,179.68083899199402,177.59447775945884,1.0,0.009701906653970919,0.001522200469789296,0.07180785165370894,-0.04044453719259068,87.78328703318533,0.9875677938210643,68,2.2666666666666666
0.7643965310021634,0.39363768784327613,0.17774386703968048,0.9996268153190613,0.6772000750305348,0.529743247640788,0.008490467444062233,0.9999464154243469,0.8570095542306573,0.5263592366402066,-0.0663975402712822,0.999990701675415,0.7183995509859025,0.9137473655518673,0.020258186385035515,0.9999457001686096,0.8150357307229722,0.8997032296270484,-0.020510656759142876,0.9999682307243347,0.7474615321191832,1.1835429507148478,0.13600383698940277,0.9617677927017212,0.8254450624548119,1.1650249848003769,0.15303482115268707,0.8738564252853394,0.7772214443076239,1.4492630522182068,0.18882429599761963,0.953697144985199,0.8235917384762531,1.3936376878432761,0.2820013165473938,0.8386850953102112,0.6939011574058688,0.8889067712606276,0.13501474261283875,0.422343909740448,0.889906832686103,0.9316851129302417,-0.05004521459341049,0.9853658080101013,0.0021393299102783203,0.7667176408544373,0.9067252975894579,179.75777238739437,177.28879798159252,1.0,0.0016705279459389567,-0.003607691409059345,-0.06003234636009423,-0.038370976237873326,87.85488577558147,0.994697663250832,69,2.3
0.7685298621564254,0.39962137529674147,0.1654941737651825,0.999649703502655,0.685501945637838,0.5333837217931116,-0.014319154433906078,0.9999497532844543,0.8633002655114622,0.5297923111920466,-0.07382422685623169,0.9999909400939941,0.7278907948676793,0.9159152060849282,0.020559584721922874,0.9999482035636902,0.8212471760216051,0.9050906648502797,-0.020815033465623856,0.999969482421875,0.752999184190605,1.1831042815886685,0.14931105077266693,0.9620183110237122,0.8313024239330643,1.1689391182383069,0.15022103488445282,0.8728427886962891,0.7816261516106249,1.4499747148875375,0.20715324580669403,0.9541857838630676,0.8291489336984758,1.3996213752967415,0.27926525473594666,0.8374015092849731,0.692525493154527,0.907753413608725,0.04492387920618057,0.4373489320278168,0.8948078153639124,0.9369645584043422,-0.11589282751083374,0.9855321049690247,0.0022572576999664307,0.7745689854446423,0.9105029354676039,179.24579634925166,177.28265934738684,1.0,0.025609546335765062,-0.011542518416126758,0.1817415423722873,-0.06010453936296412,89.70939671014429,0.9916501493837794,70,2.3333333333333335
0.777202619063929,0.40831410627571924,0.1524721384048462,0.999673068523407,0.6975200348555397,0.5394789789485246,-0.02794850990176201,0.9999533295631409,0.8745830097995807,0.5409339241069224,-0.07435216009616852,0.9999910593032837,0.7435704483345458,0.924087596548276,0.019710900261998177,0.999950110912323,0.8330886340248695,0.9155902193243123,-0.019953811541199684,0.9999698996543884,0.7619042880962668,1.194711127252187,0.14666208624839783,0.9630985260009766,0.838788345207612,1.1800704037509888,0.14400720596313477,0.8718814253807068,0.7882829724106234,1.457610604533899,0.2052631378173828,0.955643355846405,0.8371642025800294,1.4083141062757192,0.27801257371902466,0.8373621702194214,0.6981205734555241,0.9248377675156932,0.026027340441942215,0.4733109176158905,0.902944657837464,0.9434734073433136,-0.1315428763628006,0.9858889579772949,0.0009064376354217529,0.7883295411797077,0.9198389079362941,178.14593544269928,178.35773173905304,1.0,0.051490653378776015,0.009553547894902708,0.1911984912261411,0.15798579926334866,91.40523528769205,0.995992308895151,71,2.3666666666666667
0.7801071693491991,0.41117896900843587,0.13442163169384003,0.999701738357544,0.7007031970704758,0.545195660709275,-0.053101278841495514,0.9999574422836304,0.8795169419144587,0.5419807147438394,-0.09061337262392044,0.9999914765357971,0.7486848832686329,0.9277735580434348,0.017856739461421967,0.9999532699584961,0.8400862347056114,0.9192247408306208,-0.018107010051608086,0.9999710917472839,0.765066489279294,1.1931059698514808,0.1187959760427475,0.9644365906715393,0.8441725687568628,1.1800514339471835,0.13176634907722473,0.8719093203544617,0.7915222619983759,1.4552087836533956,0.13090817630290985,0.9578115344047546,0.8411329188455172,1.411178969008436,0.2509005665779114,0.8401674628257751,0.6914530515228683,0.9358214195828991,-0.015628213062882423,0.5196985006332397,0.9070829550024301,0.9443338228716242,-0.19122877717018127,0.9862287640571594,0.0019944608211517334,0.7943855589871222,0.9234991494370277,177.76923192791782,178.34895265670846,1.0,0.019717334302586955,-0.0017756279107106253,-0.23277140900907559,-0.08272560969812269,91.80516736177607,1.0046076864993179,72,2.4
0.7806554241607131,0.4059989884759817,0.13303525745868683,0.9997252821922302,0.7057668295981492,0.5443022361556172,-0.05778615549206734,0.9999610781669617,0.8804975691831439,0.5291783484695441,-0.08949040621519089,0.9999915361404419,0.7513206514813872,0.9242373887662066,0.012917469255626202,0.9999558329582214,0.8438566624182146,0.9173634617820319,-0.013155484572052956,0.9999714493751526,0.7632121562640406,1.1867683939362716,0.10878411680459976,0.9659721255302429,0.8457478685641017,1.1776790814739673,0.14288680255413055,0.8663948178291321,0.7901900510937739,1.455391301066287,0.13168495893478394,0.9598098397254944,0.8409963751642142,1.4059989884759816,0.28623226284980774,0.8372784852981567,0.6825394668651945,0.9341190969185775,-0.015291732735931873,0.5635915398597717,0.9076162842115543,0.9406983241484123,-0.17530229687690735,0.9860790371894836,0.009387731552124023,0.7975886569498009,0.9208004252741193,176.85846950494,178.39155832038819,1.0,0.026739029187863316,-0.015940764389882647,0.05149519414311508,-0.10372607339015297,92.58871947156605,1.0095366763034854,73,2.433333333333333
0.7853092461331554,0.4091394649122146,0.11086253076791763,0.9997465014457703,0.7109343257092878,0.5490834761598119,-0.07299460470676422,0.9999642372131348,0.8867848267177191,0.5297066034037622,-0.09294914454221725,0.9999914765357971,0.7606198756110336,0.9299002620047176,0.0107441870495677,0.9999585151672363,0.8527163886356299,0.9229412265901268,-0.010973869822919369,0.9999723434448242,0.7643669816480775,1.1888532168850747,0.11296723037958145,0.9674023389816284,0.8524970048461502,1.1819020062555776,0.15080216526985168,0.8622789978981018,0.7915710062538387,1.4541689778763378,0.14614151418209076,0.9620340466499329,0.8457571600164687,1.4091394649122146,0.30581215023994446,0.8386121988296509,0.6810932519246556,0.9387173457710708,-0.047167256474494934,0.6036784052848816,0.9145961415888101,0.9446785761827838,-0.20324385166168213,0.9861359596252441,0.011955738067626953,0.8066681321233318,0.9264207442974222,174.9746882784987,178.3496490784349,1.0,0.03236565145170423,0.0006166485462628492,0.04131455471248643,0.12587831830066115,93.11225276439198,1.0244264201186526,74,2.466666666666667
0.7874794212028174,0.4151579585096962,0.09205968677997589,0.9997649788856506,0.7146920539118108,0.5518703873742271,-0.09945307672023773,0.9999671578407288,0.8902359689160565,0.531097578312286,-0.09919492900371552,0.9999915957450867,0.7632321744592794,0.932851352704297,0.007142518647015095,0.9999613761901855,0.8578448246925513,0.9254828246327809,-0.007347235921770334,0.9999738335609436,0.7603056974297192,1.1812542723905475,0.14672540128231049,0.9688701629638672,0.8567434785150552,1.182544617283172,0.14910973608493805,0.8657739162445068,0.7859502365704958,1.4367510859313029,0.22494089603424072,0.9643810987472534,0.8473240576716357,1.4151579585096963,0.30026501417160034,0.8477951288223267,0.6797570315441375,0.9412010078833583,-0.10033567249774933,0.6401836276054382,0.9200846880864888,0.9458499306609147,-0.20651373267173767,0.9864608645439148,0.012781262397766113,0.8105384995759154,0.9291670886685389,173.5933660711619,177.9266119160623,1.0,0.012493135938460392,0.0011832441249407198,-0.15471954067269933,0.004377885816344041,92.80757236128338,1.0356253305862912,75,2.5
0.7979696756270643,0.42728441439480325,0.0864822044968605,0.9997780323028564,0.7286989881958639,0.559786944469728,-0.12908685207366943,0.9999697804450989,0.9051738620750532,0.5427715953321529,-0.08163062483072281,0.9999913573265076,0.7768570141178525,0.9456878558661949,-0.010627243667840958,0.9999635815620422,0.8744819691842913,0.9377485215005065,0.010408814996480942,0.9999746680259705,0.7679706506399295,1.1888718728033367,0.143992081284523,0.9697694778442383,0.8684233393925522,1.1930098352581737,0.16675317287445068,0.8616348505020142,0.7915070979071,1.430867611221426,0.2207915037870407,0.9660781025886536,0.8580543279524995,1.4272844143948031,0.30861037969589233,0.8515119552612305,0.6866680295245285,0.9535448099908086,-0.13856865465641022,0.6731924414634705,0.9355778659707844,0.9549189595424646,-0.19775265455245972,0.9860703945159912,0.01032903790473938,0.8256694916510718,0.9417181886833507,172.35214292999567,178.8253988352829,1.0,0.03213035251893732,-0.0005473589395306327,0.1517803774997025,-0.01361812552843894,92.46404260215809,1.0570803684084429,76,2.533333333333333
0.800358904631964,0.42896010454825373,0.08761783689260483,0.9997938871383667,0.7326309658036805,0.5610434483634231,-0.13208353519439697,0.9999723434448242,0.909526681963009,0.5495486935726661,-0.07013271749019623,0.999991238117218,0.7792477072593759,0.9483130364782173,-0.015359235927462578,0.9999657869338989,0.8780097905190082,0.9400826085194952,0.015154044143855572,0.9999756217002869,0.7679074354510482,1.1891338895344277,0.1462366133928299,0.9708734750747681,0.8708405592362731,1.1945735809386706,0.17564663290977478,0.8595542907714844,0.7933016218202438,1.4289601045482536,0.23626801371574402,0.9675701260566711,0.8603295134814956,1.4305248231950143,0.3176197409629822,0.855210542678833,0.6872889304869408,0.9559861835697945,-0.1373516023159027,0.703601062297821,0.9401062388036144,0.9550960110751203,-0.14719772338867188,0.9852908849716187,0.006958603858947754,0.828628748889192,0.9441978224988563,171.25964267905374,179.0629457520819,1.0,0.005246529366169628,-0.0009138247224709143,-0.2077489935328525,-0.002810982595659652,92.10004334729116,1.0627392142054208,77,2.566666666666667
0.8176519855171481,0.45187738316154946,0.0980820581316948,0.9998049736022949,0.7499680975062939,0.5760267484993504,-0.13560286164283752,0.9999746084213257,0.9321399126427482,0.5769328950095848,-0.04217889532446861,0.9999908208847046,0.7975932265812433,0.9701011891267851,-0.024226952344179153,0.9999675750732422,0.8993858474451674,0.9615420153955877,0.023992870002985,0.9999760389328003,0.7836380170285124,1.2098815893110626,0.10780391842126846,0.9712575078010559,0.8897450320511289,1.2178627205390342,0.16953472793102264,0.8514484167098999,0.8086903650344444,1.4518773831615495,0.14387492835521698,0.9684775471687317,0.8792601900991258,1.4632191283579796,0.23567697405815125,0.8562328815460205,0.7013059424751135,0.9728229987277733,-0.1658981740474701,0.7312458157539368,0.9614406114896963,0.97107891190591,-0.12491893768310547,0.9837654232978821,0.0005368888378143311,0.8484895370132053,0.9658216022611864,170.75871730173455,179.70707359448906,1.0,0.014247704886417818,0.00849659664179584,0.06829310676906139,0.0724666531105825,92.08457884771859,1.0470147905417562,78,2.6
0.8214976325161736,0.45419695827982554,0.10082300007343292,0.999821126461029,0.7545188390459715,0.5803563279211476,-0.11309140920639038,0.999976634979248,0.9362368807939422,0.5782601861945547,-0.05318635702133179,0.9999909400939941,0.8025076275482227,0.9746685042525761,-0.015518640168011189,0.9999696016311646,0.9059117604992816,0.9660686426274446,0.0152865219861269,0.999977171421051,0.7879782663519118,1.211231409983307,0.15757401287555695,0.971197783946991,0.8941917426894556,1.2250380682504474,0.16674378514289856,0.8514066338539124,0.8119181293820182,1.4541969582798255,0.24980096518993378,0.9686073660850525,0.883521817289581,1.4723739982604591,0.25790345668792725,0.8581584095954895,0.7024529447112043,0.9753011472782654,-0.12137027829885483,0.755458414554596,0.9699350527598407,0.9704423598929187,-0.1282884180545807,0.9827782511711121,0.0012360811233520508,0.8542096940237521,0.9703685734400104,170.8580892657137,179.87894312162487,1.0,0.012793783955106042,-0.0003358109529775542,-0.01154202166741068,-0.0673019377659063,92.18471219850447,1.0491839998090386,79,2.6333333333333333
0.8237658057385576,0.4569634569832495,0.0870412141084671,0.999833881855011,0.7592768394704247,0.5829026764284149,-0.12848518788814545,0.9999783039093018,0.9398862000018879,0.5808626238391295,-0.05207826569676399,0.9999909400939941,0.8059388175043597,0.9742661459164895,-0.018986467272043228,0.9999712109565735,0.9091213868338199,0.9682718484009201,0.018780989572405815,0.9999780058860779,0.790727438763151,1.2117398789325873,0.1561790406703949,0.9710770845413208,0.8978622737649278,1.2266359472917563,0.16524238884449005,0.8451581001281738,0.8126028133623394,1.4569634569832495,0.2280377894639969,0.9684476256370544,0.8858589612042878,1.4764941261324758,0.26834607124328613,0.8573804497718811,0.7054082962409298,0.9724299057357461,-0.1433820277452469,0.7765226364135742,0.9781575622168335,0.9697111212859426,-0.12486541271209717,0.9822819828987122,0.0011979937553405762,0.8575301021690898,0.9712689971587048,171.2373015169115,179.74488034613847,1.0,-0.0021597966659703148,-0.026938389551856956,-0.12796326271952427,-0.22682409056728506,93.4744271188545,1.0401219409593214,80,2.6666666666666665
0.8224046120592369,0.4593400438298978,0.08653813600540161,0.9998430609703064,0.7629992926872834,0.5840011771766238,-0.16012126207351685,0.9999798536300659,0.9416254728574401,0.5821695672284442,-0.002991047687828541,0.9999902248382568,0.8081721236419848,0.969395899213302,-0.04447034001350403,0.9999725818634033,0.9106969264921027,0.9670283261175844,0.044270746409893036,0.9999783635139465,0.7885093284078213,1.209881816083745,0.10491685569286346,0.9726691842079163,0.8993399584093411,1.2168909795231164,0.19987867772579193,0.842553436756134,0.8089931270518411,1.4593400438298978,0.17084278166294098,0.9703613519668579,0.8856637205218362,1.4718630025112118,0.30386829376220703,0.8625249862670898,0.7074348476313362,0.9667312863008766,-0.17681588232517242,0.7959117889404297,0.9832461306394538,0.9678372791274819,-0.045096494257450104,0.9793294072151184,0.0010735690593719482,0.8594345250670437,0.9682121126654433,170.6315307861584,179.53216518320323,1.0,0.0021510191228621077,-0.036064957557430576,0.03186257863340401,-0.06701958200979173,95.36236240184599,1.0254838126058101,81,2.7
0.8358969631817524,0.4879454230240957,0.10181870311498642,0.999849796295166,0.7867768397581755,0.599158990644792,-0.14244835078716278,0.9999812841415405,0.9672075003590412,0.5991160569852255,0.030325666069984436,0.9999887943267822,0.8302390058922405,0.9888662013450912,-0.047395408153533936,0.9999738335609436,0.9348666127361475,0.9877602553149445,0.047195497900247574,0.9999785423278809,0.8086413406069108,1.23256015707355,0.0872078388929367,0.9743815064430237,0.922318298675228,1.244844191767077,0.18503649532794952,0.8465483784675598,0.8284217070287409,1.4879454230240956,0.1411125659942627,0.972143828868866,0.9088753160097321,1.5083588913809192,0.2616945505142212,0.8694581389427185,0.7276685629989376,0.9862026450994671,-0.14695142209529877,0.813382089138031,1.0087376518126117,0.9856290138472268,0.004576713778078556,0.9687054753303528,2.4527311325073242e-05,0.882552809314194,0.9883132283300179,170.50643595917282,179.87403494297635,1.0,0.00574105459838917,-0.03739636181559542,0.02608364446478822,-0.002907334492144663,95.75801417549079,0.985310720269675,82,2.7333333333333334
0.8412444887289428,0.5113559524706197,0.09445050358772278,0.9998568296432495,0.8043563137538261,0.6113312392524629,-0.14482943713665009,0.9999823570251465,0.9844390769703446,0.6102874435574779,0.027020424604415894,0.9999868273735046,0.8469802851711755,1.0047655127306585,-0.046856410801410675,0.9999749660491943,0.9528010512532783,1.0039427317180698,0.046673983335494995,0.99997878074646,0.824965999377861,1.2528436690543698,0.08511790633201599,0.9757217764854431,0.9396868751215448,1.26466750242664,0.1612994372844696,0.8522962927818298,0.8441870425714173,1.5113559524706197,0.14219936728477478,0.9735934138298035,0.9269808979483455,1.5375752620154326,0.21512258052825928,0.8769146203994751,0.74611721618736,1.0034684677208987,-0.15778973698616028,0.829352855682373,1.0279072127702762,0.9945478789611895,-0.018774542957544327,0.9563313126564026,0.0005848109722137451,0.8998906682122269,1.0043541222243642,170.67663303702426,179.7861494012431,1.0,-4.331715086407278e-05,-0.023739292368369264,-0.04139971303854264,0.10103516532294475,95.7377282645798,0.9541891148085275,83,2.7666666666666666
0.8425662324826444,0.5144120793793837,0.0685216560959816,0.99986732006073,0.8093303616129511,0.6148651881518448,-0.15086522698402405,0.9999836087226868,0.9845464445713579,0.6132131216092154,0.008036935701966286,0.9999855756759644,0.8511150874470474,1.0100218313566325,-0.04293515533208847,0.9999765753746033,0.9573705032534799,1.008611670166409,0.04275693744421005,0.9999796748161316,0.8283287259050909,1.255572924627157,0.09618190675973892,0.9774312376976013,0.9435001582141195,1.2699804331982245,0.15439438819885254,0.8613015413284302,0.8429139346731522,1.5144120793793836,0.14775973558425903,0.9755980968475342,0.9317637124115836,1.5461779676026453,0.22280561923980713,0.8865200281143188,0.7561225175498992,1.0051755984270645,-0.17470213770866394,0.8450378775596619,1.032893621573317,0.9827874050762061,-0.047867998480796814,0.9499136805534363,0.0009209811687469482,0.9042427953502638,1.0093167507615208,171.4731938432122,179.3954734770923,1.0,-0.0013168606097808087,-0.0006526218459940807,-0.009882015446438701,0.18009658111569093,95.27579768152516,0.9567942009345611,84,2.8
0.8613526344721347,0.5336759884407078,0.0763927549123764,0.9998776316642761,0.8272302597155256,0.6306164308768862,-0.14225280284881592,0.999984860420227,1.0002910656409068,0.6269065606020482,0.003492780728265643,0.9999844431877136,0.8719944929921423,1.034205926945094,-0.03815590962767601,0.9999780654907227,0.978594837010623,1.0321235745616613,0.03797322139143944,0.9999805688858032,0.8474396640283386,1.2852088402808601,0.14875949919223785,0.9783817529678345,0.9647845570183811,1.3014806289883114,0.15742190182209015,0.8682100176811218,0.8629743562038675,1.5336759884407078,0.2579978406429291,0.9767217040061951,0.9533890883794599,1.5848973076346196,0.23900775611400604,0.8937780857086182,0.7910375623408414,1.0314910276268483,-0.1581539511680603,0.8578325510025024,1.0515566762436357,0.9971401420091928,-0.057204507291316986,0.9244040250778198,0.002021968364715576,0.9252946650013826,1.0331647507533777,170.83511501964475,179.36742060824244,1.0,0.0030299975085689205,0.006037584406884078,0.03321968639189733,0.05088988629798526,95.21002196837516,0.9566166655989518,85,2.8333333333333335
0.877486766052719,0.5448189217998446,0.0792953222990036,0.999886155128479,0.8406879845903904,0.6452328187995013,-0.13694480061531067,0.9999859929084778,1.0138154488007105,0.6330160892000706,-0.002409643027931452,0.9999833106994629,0.8879741950188381,1.051405557076566,-0.03302547335624695,0.9999793767929077,0.9936100707246602,1.04961822025124,0.03288239240646362,0.9999813437461853,0.8619442958178086,1.3031446554865465,0.1637251377105713,0.9789822697639465,0.9800461676795669,1.3233933939359406,0.14499184489250183,0.8756726980209351,0.8761572147075051,1.5448189217998447,0.2676207721233368,0.9776293635368347,0.9691698295186859,1.61587712337277,0.2155211716890335,0.9008455872535706,0.811726201478422,1.0562700350635328,-0.14335627853870392,0.8695825934410095,1.0638695519845014,1.001983292358707,-0.04153723269701004,0.9009525775909424,0.006549477577209473,0.9407921328717492,1.0505118886639029,170.73087718536877,179.29328712156715,1.0,0.0008821980114761213,0.0013374231217367853,-0.0180189149050224,-0.03935102781818336,95.6710829934488,0.9613164057401478,86,2.8666666666666667
0.8863586434169461,0.5629703030155242,0.09376565366983414,0.9998881220817566,0.8493166640390061,0.6579094399914057,-0.12381713092327118,0.999987006187439,1.0221938242597386,0.6479127741049838,0.005671370308846235,0.9999799728393555,0.8972004121400391,1.062890461839345,-0.030866418033838272,0.999980628490448,1.0007651492872671,1.0627919105212467,0.03074341081082821,0.9999819397926331,0.8713256905306567,1.3180635351470298,0.17214754223823547,0.9797022938728333,0.9887651497367601,1.3391098040357046,0.1438564509153366,0.8829706907272339,0.8824119833907879,1.5629703030155242,0.282718688249588,0.9785991907119751,0.9778387639754366,1.6332481806493981,0.21311387419700623,0.9078618288040161,0.8246826552039984,1.0747170695040755,-0.1282995045185089,0.8788038492202759,1.064393566093492,1.0136022169888763,-0.026620924472808838,0.8439234495162964,0.005302399396896362,0.9489827807136532,1.0628411861802958,171.61809817535644,179.64070121273008,1.0,-0.014219733338763845,0.007915763547027754,-0.11294739861297265,0.04906137330919931,96.68865303467759,0.9405834873128935,87,2.9
0.886766865010914,0.5542183872710476,0.11109676212072372,0.9998927116394043,0.8446444425234648,0.6544602517703424,-0.11565659940242767,0.9999880790710449,1.0166939958938503,0.644163061941042,0.004679144825786352,0.9999788999557495,0.8927528659903153,1.0582309917797605,-0.02830938622355461,0.9999818205833435,0.9950254954123691,1.0578126382140765,0.02819584310054779,0.9999825358390808,0.8669145848609687,1.312532255775622,0.1768779307603836,0.9809965491294861,0.9830228522140588,1.3329963542516454,0.14188459515571594,0.8918904662132263,0.8765033358133354,1.5542183872710476,0.28499871492385864,0.9799680709838867,0.9725570796527967,1.6250894494943469,0.2183508425951004,0.9150876998901367,0.8226450949358418,1.0733726845874678,-0.12731684744358063,0.8890268802642822,1.0576224165045793,1.0109587162975722,-0.0249128770083189,0.8199409246444702,0.005488365888595581,0.9438891807013422,1.0580218149969185,171.9263881159066,179.55456733012392,1.0,-0.0037825356646050035,0.0024540848011646403,0.0783515989718876,-0.040983227207539996,96.56026696168695,0.9530910471427703,88,2.933333333333333
0.887818769026448,0.5548101716968666,0.11528979241847992,0.9998936653137207,0.8471971569736991,0.6571634059411986,-0.11110490560531616,0.9999889731407166,1.0192408888121693,0.6442550936740846,0.007443492766469717,0.9999743700027466,0.8959623847961147,1.0591733160385224,-0.025551602244377136,0.9999830722808838,0.9965913382020912,1.0604566218450546,0.02543560229241848,0.9999831318855286,0.870586566939791,1.3149610572132275,0.1676311194896698,0.9818534851074219,0.9852294689169001,1.3385888563286175,0.1438208520412445,0.898455798625946,0.8791276663122068,1.5548101716968667,0.2722342610359192,0.9810224771499634,0.9753897435313233,1.628834379755823,0.21455498039722443,0.9212256073951721,0.8300546875258669,1.084706208101269,-0.12699268758296967,0.8961251974105835,1.0491388612866404,1.0189866743944858,-0.03200496360659599,0.750171422958374,0.0068551599979400635,0.946276861499103,1.0598149689417884,172.29496371981156,179.6023962398904,1.0,-0.007947944190466677,-0.015631497933066903,-0.03159908011730502,-0.1377209018396973,97.6470342904201,0.9549694069039805,89,2.966666666666667
0.8913399220168893,0.5557107570053708,0.13924461603164673,0.9998944997787476,0.8423439965605501,0.6680528620482513,-0.045336704701185226,0.9999896883964539,1.01542084077202,0.6520029947438055,-0.040616147220134735,0.9999712705612183,0.8968525134741843,1.0668472007083387,0.011483928188681602,0.9999842643737793,0.9971163203593872,1.0648802919869593,-0.011642580851912498,0.9999839663505554,0.8747814179146779,1.3158981133192675,0.21626046299934387,0.9823974370956421,0.9858649642895284,1.340578514527749,0.13112473487854004,0.9061334729194641,0.8808812955530908,1.5557107570053708,0.32628268003463745,0.9819172620773315,0.9765244511663451,1.6295589325728164,0.20982606709003448,0.927574634552002,0.8338010443626903,1.0933776601257907,-0.041604019701480865,0.8980386853218079,1.0391410453660317,1.020997643833009,-0.11758947372436523,0.6861910223960876,0.008514404296875,0.9469844169167857,1.065863746347649,173.4785693939775,179.51431998918406,1.0,-0.002444353503700306,0.03913471717165587,0.04390995295126083,0.4364059072843978,96.65929858625063,0.9736071440274549,90,3.0
0.899636645478131,0.573833901771389,0.13731804490089417,0.9998890161514282,0.8534446088694627,0.6834071531170354,-0.04126504436135292,0.9999901056289673,1.0260698438610119,0.6626526194734474,-0.04774146154522896,0.9999669790267944,0.912713007085899,1.0859596086036771,0.01738438382744789,0.9999851584434509,1.0138669163335774,1.0834678550994523,-0.01755204237997532,0.9999845027923584,0.8956120811806135,1.3273397270468485,0.21514718234539032,0.9814186096191406,1.0018215167379143,1.3646776193162624,0.1195070743560791,0.9115983843803406,0.8966962574541406,1.573833901771389,0.323154479265213,0.9816710948944092,0.993109010357633,1.6574337922563247,0.18218621611595154,0.9325467348098755,0.8506922712429789,1.1149637245638975,-0.03422493115067482,0.8971330523490906,1.050035809596972,1.0345784098709883,-0.13780072331428528,0.6263728141784668,0.010821431875228882,0.9632899617097382,1.0847137318515647,175.69556078094345,179.25191501505412,1.0,-0.0015275510387475384,0.001817458650436957,0.006820360747724554,-0.2701286201225881,96.96447143913254,0.9691094143819073,91,3.033333333333333
0.8936910353353891,0.5747569468295298,0.14081701636314392,0.9998917579650879,0.8514780354117308,0.6878849385117604,-0.041499536484479904,0.999990701675415,1.0225618184163405,0.6580679686106866,-0.03973209112882614,0.9999645948410034,0.9103148689608138,1.084879197005667,0.016156163066625595,0.9999862313270569,1.0100300062540866,1.0820290282572453,-0.016314100474119186,0.9999852776527405,0.896202205529051,1.327573041569605,0.20804424583911896,0.9815225005149841,0.9985198147995566,1.3590430933569588,0.10678782314062119,0.9177122116088867,0.8960313644180791,1.57475694682953,0.31092920899391174,0.9823046922683716,0.9911212298687133,1.6501180899210082,0.1642257422208786,0.9377535581588745,0.847853029137945,1.1131511168994577,-0.05028890445828438,0.8999976515769958,1.0492946837295367,1.0235066976624516,-0.14019639790058136,0.5749821066856384,0.015562623739242554,0.9601724376074502,1.083454112631456,176.7115942811136,179.0767144593136,1.0,-0.016132190466972562,-0.0010804924797271091,-0.11086802133257893,-0.02198260189964143,96.7929529029712,0.9693476653360701,92,3.066666666666667
0.8906837912600545,0.5791944401581448,0.09113261848688126,0.9998992085456848,0.854877236150966,0.7003885809288346,-0.085411436855793,0.9999911785125732,1.028691951298103,0.6773445116951397,-0.04051642864942551,0.99996417760849,0.9146529515843432,1.0939555333513704,0.008322199806571007,0.9999871253967285,1.011754994038776,1.0915034624459032,-0.008493209257721901,0.9999860525131226,0.9054854793624477,1.3399616055194314,0.20555448532104492,0.9816216826438904,1.0035030408124148,1.3635308713904841,0.11768849939107895,0.9225755929946899,0.9051110143906647,1.5791944401581448,0.3237861096858978,0.9829766154289246,1.0001297422523117,1.6600718391500533,0.17295250296592712,0.9421302080154419,0.8543877907120232,1.123679541019195,-0.10523781925439835,0.9042239189147949,1.0601237129856886,1.036718210668665,-0.12399478256702423,0.5412943959236145,0.011909961700439453,0.9632039728115596,1.0927294978986368,177.95553080822347,178.91420439774885,1.0,-0.04566938493683881,-0.010087566785031626,-0.20796963266124477,-0.06368666744971746,97.18963615947803,0.9840961521418968,93,3.1
0.8694678729298035,0.5790499225829336,0.03733649477362633,0.9999078512191772,0.8516942264789621,0.7058911593447195,-0.1292523741722107,0.9999914169311523,1.02608520701762,0.6946647880942814,-0.03839179500937462,0.999965488910675,0.9073848233857734,1.0916313094214887,-0.005263883154839277,0.9999879598617554,1.00283972486427,1.0913966806977267,0.005115407053381205,0.9999868869781494,0.9082853904398976,1.341449929154389,0.18380458652973175,0.9820612072944641,1.0031700330528008,1.3566873756210343,0.12089096009731293,0.9274494051933289,0.9094788963148135,1.5790499225829338,0.299991250038147,0.9838919639587402,1.0029364455807714,1.6500144676143522,0.18575473129749298,0.9465621113777161,0.8566442793687654,1.123191649438771,-0.13346025347709656,0.9080817103385925,1.066616740574329,1.0440264371501033,-0.11464884132146835,0.5480280518531799,0.005783706903457642,0.9551122741250218,1.0915139950596076,179.91873953048216,179.88303540744243,1.0,-0.08273821345365764,-0.03485437704745111,-0.2735734795854897,-0.1832659144133584,98.07438584569141,0.993403830799253,94,3.1333333333333333
0.8911380225763521,0.5856811517049121,0.07012706995010376,0.9999139308929443,0.8540584648954936,0.7167421870416965,-0.11550869792699814,0.9999919533729553,1.038255159064552,0.7086179375790828,-0.06117555499076843,0.9999681711196899,0.9132060999764001,1.1043491566583783,-0.0026388224214315414,0.9999884963035583,1.0094449549851916,1.1037737800688916,0.0025295503437519073,0.9999875426292419,0.9183194971614149,1.3501356424816864,0.19730935990810394,0.9809168577194214,1.0140848883826263,1.3645814744795752,0.12660428881645203,0.9291115403175354,0.921735129038075,1.585681151704912,0.3068658709526062,0.983998715877533,1.0161117751950102,1.6599202032723797,0.21732454001903534,0.9492617845535278,0.8631259498651135,1.1358379268814618,-0.15349753201007843,0.9153311252593994,1.0823997528775715,1.0657833364305682,-0.13704530894756317,0.5897853970527649,0.0041314661502838135,0.9613255274807958,1.104061468363635,179.63896225090969,179.3739897841398,1.0,-0.04862502940400922,-0.013424980841923432,0.27232105538890244,0.16933470402391304,98.33368281038214,1.0083144971328453,95,3.1666666666666665
0.8880986097910478,0.5792399816173214,0.1157873123884201,0.9999195337295532,0.8408811393449913,0.7134320253054035,-0.057850003242492676,0.9999924302101135,1.0238205101408264,0.7032531195046645,-0.06452767550945282,0.9999708533287048,0.9008691804958409,1.0950572820509037,0.012459540739655495,0.999988853931427,0.9985077870488325,1.0910196455438008,-0.01255080383270979,0.9999880194664001,0.9083568514544909,1.3407358218420775,0.2014937847852707,0.9775056838989258,1.0045960763054278,1.3488866146459246,0.10798825323581696,0.9298644661903381,0.9210808903504356,1.5792399816173213,0.3058464825153351,0.982069730758667,1.0126832001173927,1.6507196948814604,0.18627625703811646,0.9500452280044556,0.8468109532276316,1.1242725193186884,-0.10572247207164764,0.9224951267242432,1.0736927335613604,1.0605251030394915,-0.15861256420612335,0.6290693283081055,0.005221962928771973,0.9496884837723366,1.0930384637973523,178.69189562267525,179.81773368686424,1.0,-0.024082230599306254,-0.010232592256477312,0.17945447162630243,0.022880771665943354,96.5652841775797,0.9909049369427215,96,3.2
0.8878812231700065,0.5734038708354847,0.11247358471155167,0.9999194145202637,0.8325892466330869,0.7145940323334504,-0.06741160154342651,0.9999927878379822,1.0172554911662122,0.7034335434763729,-0.08029454946517944,0.9999731779098511,0.884801372100204,1.0930353415287224,0.01647764816880226,0.9999894499778748,0.9882212683184294,1.0874535317817047,-0.016574162989854813,0.9999886751174927,0.9032303303529283,1.325151085119352,0.20385511219501495,0.9734364748001099,1.0032223530261606,1.3326933692993275,0.09058592468500137,0.9319000244140625,0.9221645966006152,1.5734038708354847,0.30238285660743713,0.9814838767051697,1.0091974635347465,1.6091140030724302,0.15935705602169037,0.9524428844451904,0.8203699067870238,1.1123658652506603,-0.11637832224369049,0.9286064505577087,1.0714792827780297,1.0582737922901224,-0.1622113585472107,0.6645103693008423,0.005737125873565674,0.9365113202093167,1.0902444366552135,179.82200339963006,177.7379468679789,1.0,-0.08772804443519326,-0.004561008994375154,-0.49633444405063865,0.044034263199454166,94.76590533780282,1.0343886943993268,97,3.2333333333333334
0.8907528071011775,0.5745056980548825,0.12071088701486588,0.9999150633811951,0.8303872274901661,0.7172041304188245,-0.0590643472969532,0.9999930262565613,1.018395503647585,0.7071399121492448,-0.06780770421028137,0.999975323677063,0.8843047508404838,1.09427130557805,0.01369795948266983,0.9999895691871643,0.9876394410953403,1.087508671773063,-0.013816075399518013,0.9999889731407166,0.9019913669615819,1.324840919569178,0.19649863243103027,0.9698418974876404,1.0033165560577357,1.3351855940777484,0.08688659220933914,0.9324581027030945,0.9245371354990111,1.5745056980548824,0.27441853284835815,0.9802152514457703,1.0096929459714084,1.603114903785753,0.14670929312705994,0.953407883644104,0.815763636843698,1.1085949420967833,-0.06913776695728302,0.9336985349655151,1.0727322896353344,1.0650886530121482,-0.09928524494171143,0.6970598101615906,0.005168706178665161,0.9359720959679121,1.0908899886755565,179.22642369573398,177.74151398752937,1.0,-0.010953693794443832,-0.002946278407554339,0.5918699418268598,0.012468028067222836,94.39333994777795,1.0390165519354366,98,3.2666666666666666
0.9060839105482589,0.5804726086507744,0.11448071151971817,0.9999139904975891,0.8377793635837593,0.7238291890182864,-0.06519938260316849,0.9999934434890747,1.0304232789485077,0.7124184862831857,-0.07524677366018295,0.9999773502349854,0.8893831084982933,1.1029531101712724,0.011509640142321587,0.9999898672103882,0.994644178605151,1.0899206564321349,-0.011632688343524933,0.9999893307685852,0.909011770531123,1.338700088848037,0.19375714659690857,0.9668383002281189,1.0148829410536904,1.3362159115854941,0.09234529733657837,0.9313890337944031,0.9347322825741954,1.5804726086507743,0.27481159567832947,0.9793102741241455,1.0180212877337895,1.5828103195636383,0.1648378223180771,0.9529439806938171,0.8127990464665081,1.117578737545739,-0.07897108793258667,0.9395527243614197,1.084164810555811,1.0798534421088526,-0.10862141847610474,0.7267069220542908,0.005795210599899292,0.9420136435517221,1.0964368833017035,178.68709419541537,176.03155162285861,1.0,-0.03521218126606985,-0.052844340235009606,-0.19061439059335514,-0.39381604734386916,90.69315805244769,1.063302879389312,99,3.3
0.9121558976578473,0.5766484729839345,0.1275634467601776,0.9999167919158936,0.8419189584773202,0.7275425038676391,-0.03843272477388382,0.9999938607215881,1.0325360076987782,0.706713125190547,-0.06795483082532883,0.9999793171882629,0.8879979928556908,1.1043953649046707,0.01783275045454502,0.9999902248382568,0.9956276808730322,1.0885722118949996,-0.017994362860918045,0.9999898076057434,0.9146355335652716,1.3480395555791276,0.16404297947883606,0.9643893837928772,1.0217639079969085,1.3374169994680927,0.028522800654172897,0.9343603253364563,0.9430553125833135,1.583915275641558,0.21624870598316193,0.977397084236145,1.0210485557172133,1.5766484729839345,0.07028039544820786,0.9530349373817444,0.8085231932541429,1.1209512342602712,-0.026088368147611618,0.9448907375335693,1.086652832900157,1.0872416755544305,-0.10438325256109238,0.7534242868423462,0.010510474443435669,0.9418128368643615,1.096483788399835,179.36911228105018,173.83286758427252,1.0,-0.04591751897006279,-0.051405006769643144,-0.07614846661021359,0.01295556865001094,88.60772387806738,1.0725275824543872,100,3.3333333333333335
0.9145111330411273,0.5753345677303184,0.12161694467067719,0.9999231100082397,0.8411122973154618,0.7271962341402055,-0.021058889105916023,0.9999942779541016,1.0281835169470734,0.7004694066507453,-0.0888596773147583,0.999981164932251,0.8870572333767324,1.0928155218900277,0.03110857866704464,0.9999906420707703,0.9940485318901112,1.0753334727421033,-0.03126783296465874,0.9999903440475464,0.9137113773241199,1.3449612400806645,0.1319502890110016,0.9651190638542175,1.025824853142844,1.3284664559830421,-0.02861717902123928,0.9396195411682129,0.9440555131798405,1.5902882003063719,0.14531195163726807,0.977861762046814,1.0226946073724432,1.5753345677303185,-0.024567749351263046,0.9559526443481445,0.8033291666565553,1.1190841116085384,-0.0010649219620972872,0.9497824907302856,1.0866750647330399,1.0891442927527346,-0.15919451415538788,0.7778133153915405,0.01345735788345337,0.9405528826334218,1.0840744973160654,178.9832660657594,172.11850433497847,1.0,-0.024529693229229845,-0.11022315976500029,0.16035827010086887,-0.438143735678843,87.88248739551292,1.0176440199329608,101,3.3666666666666667
0.924009459759935,0.5800117367961193,0.1337389200925827,0.9999284744262695,0.8461781841601883,0.7297137548349325,0.0031725254375487566,0.9999945163726807,1.0342541738064914,0.7065374264282446,-0.07847309112548828,0.9999828338623047,0.8897414001329106,1.0958422575555105,0.034045711159706116,0.9999909996986389,0.9973112164592624,1.0807262605956112,-0.03422849625349045,0.9999908208847046,0.9165035480059336,1.35632606695695,0.07782073318958282,0.9665626287460327,1.033745583281043,1.3300487308866598,-0.05672205239534378,0.9447441101074219,0.9504570014243992,1.6014978092287309,0.04333541542291641,0.9786526560783386,1.0282861315754799,1.5800117367961193,-0.07497914135456085,0.9585733413696289,0.8042885373385841,1.1176985390746095,0.026752736419439316,0.9537909030914307,1.0923610287116456,1.099564253416344,-0.14551836252212524,0.7998420000076294,0.011589884757995605,0.9435263082960864,1.0882842590755608,177.98134370405532,170.4348148386566,1.0,-0.025676528237149766,-0.023849942831893508,-0.007179284798484119,0.6395751315637906,88.7863678195589,1.0081010430769668,102,3.4
0.9189572950512044,0.5768935667393831,0.13734662532806396,0.9999342560768127,0.8421978677897364,0.7252824084919564,0.012647325173020363,0.9999947547912598,1.025014064347955,0.706161591876179,-0.07730790972709656,0.9999843835830688,0.8845495559589189,1.0826085248230926,0.03445739671587944,0.9999911785125732,0.9880511859891419,1.0678946063721912,-0.03463424742221832,0.9999911785125732,0.9116102325753944,1.348005689386542,0.06663735210895538,0.9674248099327087,1.0278979890456612,1.3198897940628629,-0.06027030199766159,0.9488824009895325,0.9460617662663896,1.5946124228386878,0.03305910900235176,0.9786577820777893,1.0202784400138745,1.576893566739383,-0.07685738801956177,0.9599748849868774,0.7976253964107511,1.1017758620883789,0.025419335812330246,0.9573545455932617,1.0819490575775708,1.093802637596377,-0.14959391951560974,0.819707989692688,0.009615689516067505,0.9363003709740304,1.0752515655976418,177.86904432454708,169.31630165190867,1.0,-0.0156545517800333,-0.05595104106737277,0.07967624815487702,-0.26000203625182833,88.66836288683619,0.9727088833574759,103,3.433333333333333
0.9124279736584335,0.5729635556936523,0.15350954234600067,0.9999402165412903,0.835980877912942,0.7209813030901409,0.03222755342721939,0.9999950528144836,1.0139715287224116,0.7107413883962816,-0.05967327207326889,0.9999858140945435,0.8800447716003993,1.075079349246436,0.036396291106939316,0.9999914765357971,0.9800302655547916,1.05909339274633,-0.036574363708496094,0.9999915957450867,0.9057035829344171,1.3380537712334817,0.0885186418890953,0.96952223777771,1.019553972935191,1.3108996308167258,-0.023332364857196808,0.9533331990242004,0.9398527562810736,1.5848122585206834,0.06671340763568878,0.9798710942268372,1.010545394948424,1.5729635556936523,-0.02396618388593197,0.9627599120140076,0.7894382452922292,1.084935574620364,0.05956106260418892,0.9606203436851501,1.0709692833748654,1.0929379685592495,-0.13098149001598358,0.8376337885856628,0.0051857829093933105,0.9300375185775954,1.067086370996383,177.69361746657432,169.1107944578343,1.0,0.002063351894051342,-0.0048829956272319515,0.1312634959624941,0.37777489709747175,88.00968447385249,0.9623277974285666,104,3.466666666666667
0.9156123325138599,0.5765462699161227,0.13288506865501404,0.9999455809593201,0.8398541057821136,0.7239891526678611,0.017687279731035233,0.9999952912330627,1.0168199601596286,0.718194291634899,-0.0942273885011673,0.9999871253967285,0.8854326631592752,1.077640027404956,0.04498881474137306,0.9999916553497314,0.9849887362037777,1.062831469981107,-0.04514475166797638,0.9999919533729553,0.9115522361615521,1.337155835753941,0.10261482000350952,0.9699574708938599,1.0223189171673799,1.310739472255437,-0.02928565815091133,0.9567278027534485,0.9436995756817834,1.5899468749739598,0.0877564549446106,0.9802895784378052,1.0148053070301228,1.5765462699161228,-0.024685215204954147,0.9645721316337585,0.7948474404065426,1.0832356688515419,0.030357923358678818,0.9636349081993103,1.0721558449141415,1.0967567157714482,-0.2035474330186844,0.8537657856941223,0.002922266721725464,0.9352106996815264,1.0702357486930314,178.4999318928027,169.8175337420258,1.0,0.009839216580373443,-0.011144481903194179,0.06254009441218364,-0.05024997855668805,88.883324434099,0.9595620627439172,105,3.5
0.9207121299286048,0.5816381172485816,0.10785461962223053,0.999950647354126,0.8412850276255462,0.7269282242744023,0.0018556704744696617,0.9999955892562866,1.0170287356138046,0.7272852770709566,-0.09891369193792343,0.999988317489624,0.8884621311426673,1.0820836485453933,0.04029368981719017,0.9999916553497314,0.9873218718734191,1.0677818747942756,-0.040442608296871185,0.9999920129776001,0.914531959985924,1.341289291649655,0.10068410634994507,0.9710845351219177,1.0216412252483764,1.3166697640064013,-0.01478933822363615,0.959117591381073,0.9457327127283133,1.5948955604283876,0.09570667892694473,0.9806832075119019,1.0167398479804337,1.5816381172485816,0.006587711162865162,0.9652422070503235,0.7983538853373121,1.0776731078304183,0.009604517370462418,0.9666761755943298,1.0685584009625324,1.0987778951568858,-0.19344528019428253,0.8682780265808105,0.00017967820167541504,0.9378920015080432,1.0749327616698345,178.72950015426656,171.0892133260953,1.0,0.005398390040420284,0.018538045778868004,-0.033861176733925843,0.2254551931300895,89.33487536549245,0.9581316258560126,106,3.533333333333333
0.9346286667984905,0.5931859590290248,0.10214923322200775,0.9999549388885498,0.8486320292016694,0.733246603969807,0.004992170725017786,0.999995768070221,1.024362659966913,0.7355241743188629,-0.11114010959863663,0.99998939037323,0.8946275811902263,1.0897987121226356,0.04342298582196236,0.9999916553497314,0.9942282026114844,1.077236792934241,-0.043580882251262665,0.9999921321868896,0.9231400682203391,1.3518305472867398,0.10721949487924576,0.9724287390708923,1.0244835084473147,1.328498678331587,-0.007177009247243404,0.9615300893783569,0.9527280232177011,1.6079708699092354,0.10634137690067291,0.9813104271888733,1.0235358082219317,1.5931859590290247,0.02973923645913601,0.9661591649055481,0.8056207666124161,1.083715846212256,0.027120336890220642,0.968122124671936,1.0711930566404182,1.1063048489408907,-0.2033577412366867,0.8812800645828247,0.0011379420757293701,0.9444278919008553,1.0835177525284383,179.62080045696206,172.9287321735454,1.0,-0.0015538703438031452,0.006145047319027956,-0.05064537305962905,-0.0907445307418278,90.16225835816259,0.9451217145446921,107,3.566666666666667
0.9364267054867513,0.5938470102147176,0.11283163726329803,0.9999585747718811,0.8520167511781787,0.7302435584293272,0.02347920648753643,0.9999958872795105,1.022851318209066,0.7343132399725878,-0.09727884083986282,0.9999902844429016,0.8948215348918684,1.0899306788176584,0.041820429265499115,0.9999913573265076,0.9946137847948918,1.0800933742600944,-0.04197553172707558,0.9999918937683105,0.9235195361050756,1.355526215779873,0.12355867773294449,0.9729557037353516,1.0190083826245937,1.3304878096769666,0.04303165152668953,0.9616641998291016,0.9521894549237023,1.6199180852648276,0.15193215012550354,0.9809243679046631,1.020367188935608,1.5938470102147175,0.11329296976327896,0.9637459516525269,0.8079048542237531,1.0722572533367072,0.0517742820084095,0.9697783589363098,1.0654343642891153,1.1082266868128534,-0.18138034641742706,0.8928337097167969,0.002034217119216919,0.9447176598433802,1.0850120265388765,179.97815700095722,174.73115374749483,1.0,0.005567723587111015,0.01563346750792286,0.056667744447207624,0.07552936028184391,91.1566961300823,0.9383222734197023,108,3.6
