nose_x,nose_y,nose_z,nose_visibility,left_shoulder_x,left_shoulder_y,left_shoulder_z,left_shoulder_visibility,right_shoulder_x,right_shoulder_y,right_shoulder_z,right_shoulder_visibility,left_hip_x,left_hip_y,left_hip_z,left_hip_visibility,right_hip_x,right_hip_y,right_hip_z,right_hip_visibility,left_knee_x,left_knee_y,left_knee_z,left_knee_visibility,right_knee_x,right_knee_y,right_knee_z,right_knee_visibility,left_ankle_x,left_ankle_y,left_ankle_z,left_ankle_visibility,right_ankle_x,right_ankle_y,right_ankle_z,right_ankle_visibility,left_wrist_x,left_wrist_y,left_wrist_z,left_wrist_visibility,right_wrist_x,right_wrist_y,right_wrist_z,right_wrist_visibility,trunk_lateral_inclination,center_mass_x,center_mass_y,left_knee_angle,right_knee_angle,person_height,center_mass_velocity_x,center_mass_velocity_y,center_mass_acceleration_x,center_mass_acceleration_y,body_orientation,torso_leg_ratio,frame,timestamp
0.822219454169191,0.5519988314435117,-0.4289880692958832,0.9999333620071411,0.9163161996015908,0.6843514077425941,-0.16739562153816223,0.9999685883522034,0.7429343750572335,0.7014593010045027,-0.20337292551994324,0.9999974966049194,0.896706080991203,1.0384973385151435,0.02070273458957672,0.9999625086784363,0.795839224236211,1.0458853890505069,-0.020931031554937363,0.9999900460243225,0.9356109356589908,1.3108442590993972,0.06698598712682724,0.1522718369960785,0.8173092093777778,1.3267156578448231,-0.002035439945757389,0.8340400457382202,0.9541487759925267,1.5519988314435118,0.25440236926078796,0.2643093168735504,0.8415460029223993,1.5563831586052754,0.19060969352722168,0.846220850944519,0.9651456632210568,1.0549545837361962,-0.1886155903339386,0.18285305798053741,0.7272170550550626,1.0747544023478217,-0.29417330026626587,0.9981365203857422,0.009103208780288696,0.846272652613707,1.0421913637828253,176.2660289612863,178.34773966333537,1.0,-1.0061245056797288,0.09552340737603404,-6.3806113916507465,0.596563819977912,97.35858313972996,0.9537298840660687,0,0.0
0.8321824811499928,0.5708879685580787,-0.5125254392623901,0.9999398589134216,0.9277886672973223,0.7084393366408711,-0.20939591526985168,0.9999714493751526,0.7456012167729231,0.7356568033882608,-0.24819329380989075,0.9999973773956299,0.9080846543372396,1.060360933931123,0.01848706416785717,0.9999658465385437,0.8013929582734477,1.0694180693777307,-0.018666032701730728,0.9999906420707703,0.9489280484365524,1.3387871144607995,0.053765613585710526,0.23540320992469788,0.8301775088002556,1.34954224823653,-0.0198286734521389,0.8486523628234863,0.9694676715731586,1.5708879685580786,0.2801817059516907,0.3368004560470581,0.851180310817919,1.5823666798668357,0.18850179016590118,0.8605191111564636,0.9705827339615515,1.076404489110261,-0.2141909897327423,0.262961745262146,0.7356693913257324,1.0974582722746844,-0.35028624534606934,0.997549295425415,0.014176398515701294,0.8547388063053436,1.0648895016544269,176.7117676654344,179.2877128139012,1.0,-0.07496287056091745,0.0014483783667503718,7.28068164808015,-0.7345547136473569,98.05687900815275,0.960692543169613,1,0.03333333333333333
0.8308235621225154,0.5729298132248143,-0.49512553215026855,0.9999456405639648,0.9272052264447712,0.7140330646993817,-0.20080295205116272,0.9999740123748779,0.7534608103995496,0.7330510035237477,-0.24562470614910126,0.9999971985816956,0.9051951636838318,1.0613400872834562,0.01911470666527748,0.9999686479568481,0.7994331255202177,1.0689412597772014,-0.019294191151857376,0.9999909400939941,0.9500635617261317,1.3358191706840132,0.03095749393105507,0.3102952837944031,0.826492039418638,1.345195248459531,-0.01902967132627964,0.8611065149307251,0.9697039718503436,1.5729298132248144,0.23532602190971375,0.40213796496391296,0.8532871175935753,1.5841114988326443,0.18550711870193481,0.8730156421661377,0.9733328300253531,1.0756364779065077,-0.222573921084404,0.3356850743293762,0.738630905679989,1.097694312919593,-0.3477775454521179,0.997338593006134,0.009894728660583496,0.8523141446020248,1.0651406735303288,175.45124591112742,179.19511245169699,1.0,-0.025849226778021032,-0.007073626785189471,0.3778606118826135,-0.06546715713910327,97.73699410572299,0.9533613385320732,2,0.06666666666666667
0.8330607046668732,0.5730938831801352,-0.49471530318260193,0.9999507665634155,0.926933912679279,0.7149438334513368,-0.21530410647392273,0.9999763369560242,0.7472905914397235,0.7354270893975589,-0.2506215572357178,0.999997079372406,0.9074275235860763,1.0589810943453364,0.013988095335662365,0.9999712705612183,0.7996594233522586,1.0684917485269054,-0.014192318543791771,0.9999912977218628,0.9446891053183394,1.3288846203618596,0.01883615553379059,0.3776370882987976,0.82783995453629,1.3408324842701225,-0.018080901354551315,0.8718029856681824,0.9686067259560944,1.573093883180135,0.19572779536247253,0.46097639203071594,0.8578587376599279,1.5855099783696633,0.14613443613052368,0.8845527768135071,0.9730976198606173,1.0760782415044106,-0.21853820979595184,0.4009476900100708,0.737309470845926,1.097565644363613,-0.3244038224220276,0.9971215724945068,0.010651499032974243,0.8535434734691674,1.063736421436121,177.7333604623391,178.91317009204826,1.0,0.005999189564988009,-0.015108449936662785,0.24494140278220117,-0.061739570839051544,98.28845920427503,0.9461644037369366,3,0.1
0.8325010884114826,0.5751222494483651,-0.503698468208313,0.9999552965164185,0.9290453238693214,0.7126087127877004,-0.22591213881969452,0.9999783635139465,0.7488384588540876,0.7343714351261149,-0.24947157502174377,0.9999968409538269,0.9088777145246267,1.0599725196537941,0.010838672518730164,0.9999735355377197,0.8012533383067433,1.0685733367899373,-0.01103338785469532,0.9999915361404419,0.9451860545417924,1.330427498887494,0.018219465389847755,0.4384574890136719,0.8303368863727096,1.343871768634095,-0.006474600173532963,0.8817139267921448,0.9691405154856759,1.5751222494483652,0.19920410215854645,0.5140812993049622,0.8574892605955688,1.5874533534862756,0.16716423630714417,0.8949757814407349,0.9749535994509209,1.0759202075201562,-0.22635145485401154,0.4595222473144531,0.7373315013102529,1.0985719020200768,-0.3304229974746704,0.996718168258667,0.011305630207061768,0.855065526415685,1.0642729282218657,177.94498003655397,179.6699894388541,1.0,0.005138742536433971,-0.003934332723775519,-0.006584428415668868,0.08503509816706623,97.89189782107415,0.9411538598480561,4,0.13333333333333333
0.8335055852161993,0.5794252193915487,-0.5062267780303955,0.9999593496322632,0.9331065585329057,0.7148697855802343,-0.22810998558998108,0.9999802112579346,0.751912203189392,0.7361162189758754,-0.25080806016921997,0.9999966621398926,0.9109260552579894,1.0636068651775328,0.011456779204308987,0.9999756217002869,0.8033723020469443,1.071855147884129,-0.011640013195574284,0.9999918341636658,0.9478426596082261,1.3344807963190437,0.028311124071478844,0.4931428134441376,0.8336018021295435,1.3493092564183045,-0.006115061230957508,0.8909809589385986,0.9714318683199853,1.5794252193915486,0.21274232864379883,0.561949610710144,0.8592799715829018,1.5946057262940325,0.16394193470478058,0.9045619964599609,0.9791514474369191,1.0799540669323082,-0.22763362526893616,0.5122291445732117,0.7412773264527012,1.1024630666109518,-0.33318576216697693,0.9964269399642944,0.01099666953086853,0.8571491786524669,1.067731006530831,177.74001053455632,179.75805227701383,1.0,-0.00870555753852174,-0.0038982935500329794,-0.11123155716529223,0.0004061369731194743,98.02466677571489,0.9355826100264725,5,0.16666666666666666
0.8342284794922487,0.5795111241873325,-0.5044758319854736,0.9999631643295288,0.9328814515097039,0.7149992248865695,-0.22038809955120087,0.9999819993972778,0.7492703485696323,0.7369765257199791,-0.2548956274986267,0.9999966025352478,0.9097119208761447,1.061981615909737,0.014928174205124378,0.9999774694442749,0.8023129753182354,1.0713690943940792,-0.015120349824428558,0.9999920129776001,0.9484422637779218,1.3319649352845047,0.018609818071126938,0.5425413250923157,0.8312574320080458,1.3479689408911104,-0.015155112370848656,0.8992859125137329,0.9714395022096634,1.5795111241873325,0.19562575221061707,0.6049121022224426,0.8587898755276628,1.5955379255546869,0.1433676779270172,0.9130703210830688,0.9791763603816356,1.0788918105711427,-0.2172921597957611,0.560309886932373,0.7387005990392047,1.1021567264965202,-0.3352542221546173,0.9962573647499084,0.011377990245819092,0.8560124480971901,1.0666753551519081,177.143944059988,179.6280491824876,1.0,-0.006613343308712885,-0.0056126179703954735,0.01522679693419357,-0.01249805346979425,98.81560613487693,0.9302879853477078,6,0.2
0.8342433276457489,0.5793917874198617,-0.4888544976711273,0.9999664425849915,0.9331072120221292,0.7166744503841279,-0.21001946926116943,0.9999834895133972,0.752171772343828,0.7377632763250411,-0.24083244800567627,0.9999964237213135,0.9104465742333422,1.061134180731585,0.013460683636367321,0.9999791383743286,0.8033220253482374,1.0713115976622358,-0.013659067451953888,0.9999921917915344,0.9482684731801505,1.3319776036246977,0.012915551662445068,0.5872193574905396,0.8322706015613888,1.3480001220824736,-0.01856091618537903,0.9072268009185791,0.9716730654390852,1.5793917874198617,0.18666286766529083,0.6437846422195435,0.859675179999666,1.5946196180776502,0.14320574700832367,0.9209113717079163,0.9784031497278194,1.078660271541366,-0.21197733283042908,0.6035478115081787,0.7387856594555468,1.1025795681159738,-0.31970518827438354,0.9960894584655762,0.010914027690887451,0.8568842997907898,1.0662228891969103,177.45426308286923,179.63210323527406,1.0,0.004067347099019643,-0.0061232168384232075,0.07769312880950295,-0.0036984372171788484,99.19096082119381,0.9299069248601212,7,0.23333333333333334
0.8342768074812553,0.5795147279874499,-0.4923228621482849,0.9999694228172302,0.9328340112314376,0.7165455199007917,-0.21775202453136444,0.999984860420227,0.7528497765713466,0.7371982878576089,-0.24175015091896057,0.9999962449073792,0.9093275958777579,1.0598091179381537,0.011693159118294716,0.9999805688858032,0.8017708523097317,1.0707321558541127,-0.011883048340678215,0.9999922513961792,0.9485042065368889,1.3318175813758324,0.013987707905471325,0.6273564100265503,0.8316684754501885,1.347599498202872,-0.01281544379889965,0.9139555096626282,0.9717824590304057,1.57951472798745,0.1844916045665741,0.6787465214729309,0.8591902463255218,1.5937096351322455,0.1557040810585022,0.9277632832527161,0.9777180318017815,1.077474587095157,-0.22472569346427917,0.6423640847206116,0.7382948394844924,1.101729381234871,-0.3285563588142395,0.9958650469779968,0.01069343090057373,0.8555492240937448,1.0652706368961333,177.17302465064571,179.78251536837863,1.0,-0.007191401457936889,-0.003456598605293534,-0.08719338062026787,0.020632658039812155,99.7163048613338,0.9265286921494172,8,0.26666666666666666
0.8353150206439811,0.5803722147282974,-0.5040961503982544,0.9999722242355347,0.9330830452720865,0.7164685382823325,-0.22440139949321747,0.9999861121177673,0.7518554452725706,0.738664658091142,-0.24721305072307587,0.9999961853027344,0.9097470150480048,1.0609873686490572,0.010968738235533237,0.9999818801879883,0.8020650494198457,1.0717881884254568,-0.01115406397730112,0.999992311000824,0.9493067538294379,1.333088025211404,0.01756780967116356,0.6633430123329163,0.8332957244166137,1.34846670031584,-0.010340197011828423,0.919768214225769,0.9731226795946814,1.5803722147282973,0.1836211085319519,0.7101976871490479,0.8601783475350943,1.595367941721338,0.15588147938251495,0.9339035749435425,0.9780880940890369,1.0786297258918054,-0.22591093182563782,0.6771439909934998,0.7376652119364765,1.1032293580794819,-0.3339034616947174,0.995674729347229,0.011476695537567139,0.8559060322339253,1.0663877785372569,177.22911604526803,179.77376691473134,1.0,-0.0065353162986523826,-0.002800817190350306,0.005282114615645232,0.005238823117718145,99.60279748427587,0.9265563914156667,9,0.3
0.8338027075735046,0.5797156621125071,-0.498896062374115,0.9999747276306152,0.9322556699634672,0.7153793190141511,-0.2242569625377655,0.9999872446060181,0.7532650671031357,0.7378043074786987,-0.24178937077522278,0.9999960660934448,0.9090884277574338,1.0599394945154128,0.008742420002818108,0.999983012676239,0.8019962997873608,1.07046441071819,-0.008934329263865948,0.9999923706054688,0.9477705582548549,1.3321147857118054,0.008748122490942478,0.6959216594696045,0.8322953969499878,1.3475556213801094,-0.008464549668133259,0.9252834320068359,0.9719019817368726,1.579715662112507,0.1701975017786026,0.7385612726211548,0.858816601077886,1.5947294571487818,0.15918876230716705,0.9394310712814331,0.9757619315273515,1.0776257485231655,-0.2238125056028366,0.7084549069404602,0.737248221801311,1.1020496395577826,-0.3218750059604645,0.9955673813819885,0.011606007814407349,0.8555423637723972,1.0652019526168015,177.47769540031453,179.88394921445382,1.0,0.0036540738816636968,-0.00145577434608376,0.08350371487807774,0.0110078184153313,99.45956652674165,0.9248899635793018,10,0.3333333333333333
0.831673409510934,0.5784074039450313,-0.5038546919822693,0.9999769926071167,0.9310272757998288,0.7143636821251106,-0.22614917159080505,0.9999882578849792,0.7522723984438484,0.7361927211799139,-0.24489545822143555,0.9999960064888,0.9073905696061441,1.0583457906961693,0.00905509665608406,0.999984085559845,0.7999805552958773,1.0687209785633642,-0.00924244336783886,0.9999924302101135,0.9462841199185968,1.3310668555525993,0.007330796215683222,0.7253463864326477,0.831201501499342,1.3459587375324498,-0.007775516714900732,0.9304162263870239,0.9714418852158405,1.5784074039450313,0.1693791002035141,0.7641121745109558,0.8583957256168157,1.5927657646644278,0.1591561883687973,0.9444509744644165,0.9751012864857869,1.0765262438785856,-0.2264539897441864,0.7367156147956848,0.7349017769180431,1.1000110742767562,-0.3261983096599579,0.9954745769500732,0.011308372020721436,0.8536855624510107,1.0635333846297668,177.6913667638988,179.86246777229096,1.0,-0.00839974812930706,-0.005262649554005352,-0.09732901175838694,-0.030758873625640157,99.4482209257746,0.9238845502017555,11,0.36666666666666664
0.8310541912828171,0.5793040453101822,-0.4953206479549408,0.9999790191650391,0.9305418391366019,0.7149214603320012,-0.22103027999401093,0.9999891519546509,0.7516391480471677,0.73651665941841,-0.24303731322288513,0.9999959468841553,0.9076585920281612,1.0586413324264665,0.009883129969239235,0.9999851584434509,0.8007762255339674,1.0694727264625388,-0.010070648975670338,0.9999926090240479,0.9482646614269659,1.3307404264001428,0.013397331349551678,0.7518246173858643,0.8318164960188705,1.3464239496677375,-0.010068049654364586,0.93520188331604,0.971754482260885,1.5793040453101823,0.17763426899909973,0.7871565222740173,0.8584630218586464,1.5945120276730265,0.15860839188098907,0.9491927623748779,0.9755483314789541,1.0770633034755823,-0.22290630638599396,0.7620845437049866,0.7366896618904167,1.1008317129823935,-0.32386544346809387,0.9953019022941589,0.011178910732269287,0.8542174087810643,1.0640570294445026,176.91078474975873,179.7355594484741,1.0,-0.0007122045355657433,-0.0018416082854689987,0.05284743395654621,0.023525484585878113,99.59542667421994,0.9219573229885034,12,0.4
0.8305566260908973,0.5802103860660515,-0.49073687195777893,0.9999807476997375,0.9309873432099315,0.7167312222997181,-0.21558518707752228,0.999989926815033,0.7531649175005563,0.7372032307556641,-0.2361913025379181,0.9999958276748657,0.9080014406580165,1.0591229069866097,0.009549623355269432,0.9999860525131226,0.801415844508004,1.0697923700304657,-0.009745395742356777,0.9999927282333374,0.9497505142265555,1.331511986485508,0.0036261938512325287,0.7757631540298462,0.8323723666678551,1.347194377263592,-0.011246786452829838,0.9396998882293701,0.9720640098664224,1.5802103860660515,0.16574124991893768,0.8079370260238647,0.8587926477136696,1.5957787314710108,0.15710462629795074,0.9535281658172607,0.9752326280817378,1.0775442298772266,-0.2137773036956787,0.7849891781806946,0.736623327312928,1.100870655785663,-0.30672067403793335,0.9952394366264343,0.010592490434646606,0.8547086425830102,1.0644576385085376,176.41300172546843,179.69924445709228,1.0,0.0006527457197143941,-0.0007433282424046919,0.01005675034979874,0.008096368098140955,99.55709122603193,0.9199332376749076,13,0.43333333333333335
0.8321354238918383,0.5803915315189924,-0.48954644799232483,0.9999822974205017,0.9306823089086624,0.7172021954228687,-0.2114056646823883,0.9999906420707703,0.7519189095519514,0.7371046674166635,-0.23453490436077118,0.999995768070221,0.9079502388944168,1.059319532285888,0.011622974649071693,0.9999868273735046,0.8010120924311925,1.069873794063657,-0.0118204141035676,0.9999927878379822,0.9505169170983142,1.3315393400366027,0.005592462606728077,0.7968202233314514,0.8326839224310958,1.3464708747909357,-0.018177637830376625,0.9426035284996033,0.9710695105095569,1.5803915315189925,0.16404716670513153,0.8263779282569885,0.8584341458401217,1.5960181805863893,0.13996009528636932,0.9569815397262573,0.9752407724813542,1.0776664944531422,-0.20954672992229462,0.8052072525024414,0.7358041941444022,1.1009990842419095,-0.3108263909816742,0.9950475692749023,0.010295897722244263,0.8544811656628047,1.0645966631747725,175.8340157918666,179.35915115628862,1.0,-0.0030883918292243574,-0.000465345681428713,-0.029950861704430683,0.0022265076947903502,99.43799789113108,0.9196554423798166,14,0.4666666666666667
0.8325147477039078,0.580548555195356,-0.49225059151649475,0.9999838471412659,0.9308345978913032,0.7185158187979012,-0.2133912742137909,0.9999913573265076,0.7519146078752771,0.7370115740248704,-0.23818597197532654,0.9999958276748657,0.9078941539777398,1.0591321189314107,0.011728370562195778,0.9999876022338867,0.8008790528427684,1.0695231246912051,-0.011921968311071396,0.9999929666519165,0.9500947043175157,1.3302944771147123,0.010802173055708408,0.8160988092422485,0.8320010903338232,1.3437729571059518,-0.018451042473316193,0.9462234973907471,0.9706722206409847,1.580548555195356,0.1618196815252304,0.8432843089103699,0.8587207206802421,1.5952656424279952,0.13014866411685944,0.9605398774147034,0.9755090216656036,1.0773932519235077,-0.2098246067762375,0.8238992094993591,0.7350201364403469,1.1004874992662654,-0.3111189603805542,0.9950302839279175,0.009569019079208374,0.8543866034102541,1.0643276218113078,175.8547695020101,179.59032873416604,1.0,-0.00014747477616300518,-0.0013274908211777746,0.022240626911670076,-0.006520866235208416,99.39898978167679,0.9188488018464737,15,0.5
0.8337481031341728,0.5815178269366762,-0.4938143193721771,0.9999851584434509,0.931393828248417,0.7199201313584989,-0.21289284527301788,0.9999919533729553,0.753328599693735,0.7374223027043414,-0.24002878367900848,0.999995768070221,0.9084409592766752,1.059132764182332,0.012105165049433708,0.999988317489624,0.8012254055820446,1.0692865363878372,-0.012297305278480053,0.9999931454658508,0.9508715064673543,1.3314323851261514,0.009879695251584053,0.8336766958236694,0.8330186923051653,1.3446800441934437,-0.019094159826636314,0.9497725963592529,0.9704529827980997,1.5815178269366763,0.1695215404033661,0.8585435152053833,0.8592533336714504,1.5959024816451395,0.1371120661497116,0.9637853503227234,0.9754701028586842,1.0777122227607763,-0.2128181755542755,0.8406041264533997,0.7355728981458695,1.1006185814181209,-0.31409287452697754,0.99504554271698,0.009050369262695312,0.8548331824293599,1.0642096502850846,175.62030013392473,179.3762135970273,1.0,8.681813621929593e-05,-0.00488314686568089,0.0017348765043642268,-0.02631525089926868,99.28104627015433,0.9151901663015204,16,0.5333333333333333
0.8352238590029416,0.5826354345684249,-0.4731833338737488,0.9999865293502808,0.9322476273557202,0.7221882859383275,-0.1964779496192932,0.9999925494194031,0.7549061069331569,0.7380344121033485,-0.22306211292743683,0.9999958276748657,0.9093712389542107,1.0601140262984696,0.012379711493849754,0.9999889135360718,0.8022297148050338,1.0702249172804281,-0.012576678767800331,0.9999932646751404,0.9519889299963721,1.3315445203695486,0.004751815460622311,0.8494698405265808,0.8334835420111933,1.3457967981467078,-0.029627179726958275,0.953188955783844,0.9702305302757642,1.582635434568425,0.1452486366033554,0.8722903728485107,0.8597750890651986,1.5970148556315102,0.11280588805675507,0.9667584896087646,0.9756816544410475,1.078781129698093,-0.19901256263256073,0.8560526967048645,0.7359558155160151,1.1010301663598363,-0.28968673944473267,0.9952267408370972,0.008186370134353638,0.8558004768796222,1.0651694717894489,175.23196164987374,179.50409372551533,1.0,0.0012549269118657972,-0.0002678329381606865,0.008746686155079734,0.03459563902723205,99.2638224955728,0.9147428483070901,17,0.5666666666666667
0.8368399013105774,0.5842144503968318,-0.4709990918636322,0.9999876618385315,0.9331969755692403,0.7256216130944104,-0.19008854031562805,0.9999930262565613,0.7556897473220031,0.7386647363624144,-0.22810706496238708,0.9999958276748657,0.9105454456845551,1.0611816446173752,0.013761108741164207,0.9999895095825195,0.8039253921084494,1.0711770436688222,-0.013965614140033722,0.9999933838844299,0.954982132059234,1.3323866589121898,0.007048267871141434,0.8635240793228149,0.8345834270691912,1.3470900617201542,-0.038891326636075974,0.9560015797615051,0.970370653524091,1.5842144503968318,0.15634724497795105,0.8845691084861755,0.8601684658562038,1.598401978777432,0.11052020639181137,0.96932053565979,0.9764351518012759,1.0799129561510201,-0.19128426909446716,0.8696888089179993,0.7372234753699121,1.1018739395529595,-0.3011170029640198,0.9952492117881775,0.00673183798789978,0.8572354188965022,1.0661793441430987,174.19166640536957,179.47261772244096,1.0,0.004694820723902466,-8.73660247493128e-05,0.026276797255871377,0.0013810025591627483,99.21751809850383,0.9130622670218709,18,0.6
0.837165086540228,0.5841132540897124,-0.47174057364463806,0.9999886751174927,0.9331298374207458,0.7269205369400624,-0.19100558757781982,0.9999934434890747,0.7559025381292133,0.7384996306565353,-0.22833065688610077,0.9999958872795105,0.910508026537302,1.0619418493917006,0.016306400299072266,0.9999900460243225,0.804526602371535,1.0714767653110677,-0.016506070271134377,0.9999935626983643,0.9569964576052941,1.3322391405688778,0.020740488544106483,0.8761233687400818,0.8348409998613158,1.3469739644324032,-0.038352128118276596,0.9587469696998596,0.9696625654549714,1.5841132540897125,0.18661461770534515,0.8956156969070435,0.860278874235115,1.5973570781669801,0.11717027425765991,0.9716914892196655,0.9763585540396775,1.0818857036423144,-0.18713325262069702,0.8818642497062683,0.7374832288505687,1.102677136767706,-0.3054039478302002,0.9953333735466003,0.005976825952529907,0.8575173144544185,1.0667093073513843,173.12000904449602,179.52181361829213,1.0,0.0027622529569464867,0.004779225324350411,-0.01447465892079268,0.036458983410684806,99.00388226897442,0.9162640155356648,19,0.6333333333333333
0.840596941176947,0.5854733821874053,-0.4723840653896332,0.9999896883964539,0.935137294677074,0.7293960781545578,-0.18916203081607819,0.9999939203262329,0.7580175132908977,0.7403544837270579,-0.24739937484264374,0.9999961256980896,0.9127563399542163,1.0636095986650809,0.02210448496043682,0.9999906420707703,0.8069260497545484,1.0732220341488632,-0.02229369804263115,0.9999938607215881,0.9616264581511382,1.329492470974392,0.02414928749203682,0.8868809938430786,0.8368049309613911,1.3462847250649392,-0.0662073940038681,0.9612270593643188,0.9706170268716683,1.5854733821874054,0.1850697249174118,0.9053588509559631,0.8623930009323951,1.5994692030437219,0.06945163011550903,0.9738054871559143,0.978605364844798,1.0848250450069417,-0.17931146919727325,0.8929570317268372,0.7397295504455275,1.107079520315539,-0.31524235010147095,0.9955182671546936,0.0056445300579071045,0.8598411948543824,1.0684158164069721,171.59661649824858,179.5264611350197,1.0,0.0036077261221352146,-0.003823336991111444,0.005892523335934048,-0.060442606810465614,99.02101597047812,0.9169318406551843,20,0.6666666666666666
0.8455697762135318,0.5858254191918031,-0.46624237298965454,0.9999905824661255,0.9364873098233628,0.7307019901966875,-0.18631359934806824,0.9999943375587463,0.7597280006049268,0.740219629911897,-0.24827781319618225,0.9999963045120239,0.9151390304112976,1.0643562180930457,0.023009898141026497,0.9999911785125732,0.8095363294544791,1.073949357870236,-0.023200396448373795,0.9999940991401672,0.9649361847884861,1.328520628973415,0.023473676294088364,0.8970316648483276,0.8377283073528781,1.346491496487076,-0.0649932250380516,0.9636002779006958,0.9707770178042926,1.585825419191803,0.16887560486793518,0.914358377456665,0.8639260761755096,1.5989975166616883,0.06932755559682846,0.9758189916610718,0.9800407132926254,1.0864895476127767,-0.17803874611854553,0.9031078219413757,0.7407057484091286,1.1086856394539701,-0.31898656487464905,0.9957168698310852,0.004899024963378906,0.8623376799328883,1.0691527879816407,170.62494589488696,179.9824120307259,1.0,0.014063711105228686,-1.0273293761238426e-05,0.0772840956492813,0.028210036321957597,98.85158454689342,0.91917331554008,21,0.7
0.8543497482386009,0.5885361307856258,-0.4882628917694092,0.9999914169311523,0.9409010475321798,0.7350028619826326,-0.18729974329471588,0.9999947547912598,0.7644907648706756,0.7423846248708618,-0.2817739248275757,0.9999964833259583,0.9227340310676359,1.0686826968718297,0.029375454410910606,0.9999917149543762,0.8175691413121376,1.0782212428915796,-0.02956676483154297,0.9999943375587463,0.9716543888387331,1.3314002540882142,0.03807936608791351,0.9056171178817749,0.84274929497501,1.349995346369703,-0.07918442785739899,0.9654104709625244,0.9719373295607904,1.5885361307856258,0.20234060287475586,0.922214925289154,0.868269570842214,1.6049284271660322,0.05907371640205383,0.9775885939598083,0.9865483326042646,1.09299686810681,-0.1765134483575821,0.9121992588043213,0.7446219739768993,1.115273330975494,-0.370015025138855,0.9959421753883362,0.0037818849086761475,0.8701515861898867,1.0734519698817047,169.51486710712305,179.576807550191,1.0,0.028276598041323823,-0.00536656871242699,0.10612613962099827,-0.04018101743536201,98.29895646722602,0.9229773652549526,22,0.7333333333333333
0.8643108433170361,0.5917973726729875,-0.4894021451473236,0.9999921917915344,0.9458059391723274,0.7385308243872309,-0.1852768063545227,0.9999951124191284,0.7705785673681781,0.7440628756067333,-0.27881917357444763,0.9999966621398926,0.9289745506362356,1.0728733227464005,0.031062105670571327,0.9999921917915344,0.8241942986334233,1.0821735726060395,-0.03125967085361481,0.9999945163726807,0.9773395075574609,1.3348342946742788,0.03369492292404175,0.9136940240859985,0.8483832919198806,1.3551743405374843,-0.09106804430484772,0.9675045609474182,0.9743572364728114,1.5917973726729875,0.19417038559913635,0.9294154644012451,0.871905318955064,1.6102121852484594,0.05097878724336624,0.9792429804801941,0.9942554427572052,1.097820256130232,-0.16543781757354736,0.9204275012016296,0.7485336237173316,1.121599662607979,-0.3585951626300812,0.9961597919464111,0.002821683883666992,0.8765844246348294,1.07752344767622,168.87453539224344,179.7939625692635,1.0,0.01966044236743312,-0.0053629769333283,-0.0669990975244513,0.00021034228815512156,97.95419354608755,0.9245216896122308,23,0.7666666666666667
0.8698715819434583,0.594510879387779,-0.4566444754600525,0.999992847442627,0.9495448920523658,0.7410317514828603,-0.15463127195835114,0.9999954104423523,0.7757216453882887,0.7457856012467208,-0.2663637697696686,0.9999967813491821,0.9339318143299286,1.0760094385466552,0.0329531729221344,0.9999925494194031,0.829811322833505,1.0851405479392326,-0.03314776346087456,0.999994695186615,0.9805905467788709,1.3355802547216762,0.03301580995321274,0.9201602935791016,0.8512874506758346,1.357639200630299,-0.10556969791650772,0.9693796038627625,0.9739773638034174,1.5945108793877791,0.1644221544265747,0.9357645511627197,0.8732241483706529,1.6143080575286264,0.006139905657619238,0.9807488322257996,0.9997307726298087,1.1010521550965315,-0.13539905846118927,0.927267849445343,0.7517983263129493,1.1251124320221402,-0.3443082571029663,0.9963177442550659,0.0024175047874450684,0.8818715685817168,1.0805749932429438,168.34667637961084,179.62125011653092,1.0,0.019685031904460037,-0.0013281728695553462,-0.0002544136296389316,0.0299925198168102,97.68046099299731,0.9252445399990611,24,0.8
0.8861457370184748,0.5976870299589515,-0.4264949858188629,0.9999933838844299,0.9583180112957085,0.7472524573171809,-0.1350611299276352,0.9999956488609314,0.7861416144971407,0.74820611428807,-0.2564087510108948,0.9999969005584717,0.9427639738749933,1.080520851123976,0.03555203974246979,0.9999927878379822,0.8395668996872773,1.087736441321798,-0.03575107455253601,0.9999947547912598,0.9866002744421345,1.3378678319660304,0.026508474722504616,0.9259186387062073,0.8576650628095572,1.359060065135837,-0.11174990981817245,0.9710493683815002,0.9782303193776171,1.5976870299589514,0.14192180335521698,0.9414896368980408,0.8771383812625516,1.621550068021602,-0.016628649085760117,0.9821444153785706,1.0084491663672932,1.106459990930453,-0.11936883628368378,0.9338706135749817,0.7604341014964753,1.1314068987449868,-0.3323993980884552,0.9965174794197083,0.0004825890064239502,0.8911654367811354,1.084128646222887,168.487943311687,179.57333703230816,1.0,0.037855565927401864,-0.013594773168294598,0.138371420046421,-0.0938636867113239,96.67176369166752,0.9235100802715003,25,0.8333333333333334
0.8977919031037522,0.5992555975505653,-0.42377638816833496,0.9999938607215881,0.9629071707012071,0.749872278975647,-0.12200365215539932,0.999995768070221,0.7936231254575429,0.7464920757491752,-0.2626875638961792,0.9999970197677612,0.9469589354112552,1.0825935585641542,0.043845392763614655,0.999993085861206,0.8445827076621107,1.0890786057473134,-0.04404052719473839,0.9999949336051941,0.9885871077450844,1.340882914181563,0.0532197467982769,0.9306506514549255,0.8625581914809177,1.3624146399541814,-0.10781792551279068,0.972550094127655,0.979158560849471,1.5992555975505653,0.20168864727020264,0.9464752078056335,0.879425333583946,1.6249918339393579,0.013207455165684223,0.9833434224128723,1.0122525432815968,1.1087107892619328,-0.10653439909219742,0.9384142160415649,0.7683221762470467,1.1336596610177494,-0.34791427850723267,0.9966925978660583,0.0017070174217224121,0.895770821536683,1.0858360821557338,168.75452947204207,179.91291019216143,1.0,0.022627446953229716,-0.004210775178652343,-0.12471173614304636,0.07668820081696248,96.36881438966182,0.92268716905478,26,0.8666666666666667
0.9080246601393307,0.6007153747303074,-0.3969283699989319,0.9999943375587463,0.967511907877906,0.7516030125711108,-0.09463934600353241,0.9999958872795105,0.799828284038194,0.7429936722993407,-0.26213911175727844,0.9999971389770508,0.9507643667197548,1.0838265509077492,0.0514846071600914,0.9999933242797852,0.8491228319233164,1.0884636508422394,-0.0516681969165802,0.9999950528144836,0.9907961309193725,1.3445990361310376,0.06866317242383957,0.9336339831352234,0.8668815038603558,1.3661611900040371,-0.11416898667812347,0.9738098978996277,0.9800497757429761,1.6007153747303076,0.21200010180473328,0.9507538080215454,0.8819004100657614,1.6275745194333906,0.007663374301046133,0.9843267202377319,1.0160574831456022,1.111219476127311,-0.08375825732946396,0.9421653151512146,0.7781749781510219,1.1360395603290583,-0.3482900559902191,0.9968458414077759,0.004337668418884277,0.8999435993215357,1.0861451008749943,168.86987155856232,179.62911867162754,1.0,0.015358877463823362,-0.016284152945525186,-0.053804062307880714,-0.08865642599914142,95.49800600083671,0.9179147545777432,27,0.9
0.9157474966484367,0.6014407487316064,-0.36459797620773315,0.9999944567680359,0.9721253703244995,0.7524958292775182,-0.07347505539655685,0.9999958276748657,0.8070999242677588,0.7420130205436587,-0.25245168805122375,0.9999971985816956,0.953062121168506,1.0855142927576498,0.05304915830492973,0.9999935030937195,0.8521789100456633,1.0899914151172831,-0.05321713536977768,0.9999951720237732,0.9920156563052214,1.3472669758740747,0.08425821363925934,0.9361664056777954,0.8696289546640719,1.3705807311259037,-0.10159343481063843,0.974677562713623,0.9809462277395128,1.6014407487316065,0.24953171610832214,0.9543902277946472,0.8832024159449715,1.6298841105986874,0.031195759773254395,0.9851042628288269,1.0193522944689402,1.112178130571008,-0.07052655518054962,0.9438380599021912,0.7857813516730215,1.1378029452532776,-0.3451324999332428,0.9969679117202759,0.0052745044231414795,0.9026205156070846,1.0877528539374666,169.0417823228859,179.43778149665252,1.0,0.011542112038581503,0.001178735225324636,-0.030148771483732836,0.13737073500210714,95.81733083530025,0.9201045153878474,28,0.9333333333333333
0.9225589535909311,0.5974941263971796,-0.2922130823135376,0.9999943375587463,0.9705728171073487,0.7506455247096018,-0.026842277497053146,0.9999956488609314,0.8115156468218148,0.7387055404733728,-0.2182452231645584,0.9999972581863403,0.9526578189385385,1.0826766129314795,0.05532791465520859,0.9999937415122986,0.8540580957764,1.0863090981157975,-0.055481262505054474,0.9999953508377075,0.9894110610958083,1.3440765896420763,0.08137703686952591,0.9385938048362732,0.8687072602971272,1.3672997047822975,-0.09693218022584915,0.9755405187606812,0.9777086382239366,1.5974941263971796,0.22291460633277893,0.9578668475151062,0.8811248486292189,1.6237602247835052,0.029934030026197433,0.9858875870704651,1.0185678931296438,1.1097015370237997,-0.04032709822058678,0.9440659284591675,0.7888310474329282,1.1341424126320967,-0.3163406550884247,0.9971256256103516,0.006022989749908447,0.9033579573574693,1.0844928555236384,169.35263802342962,179.78768893991682,1.0,0.022919319122194016,-0.003763053390185317,0.08628587954280433,-0.03736005881212629,95.1983078707959,0.9251982960977811,29,0.9666666666666667
0.9269623868900646,0.5981891534100676,-0.25743231177330017,0.999994158744812,0.9742473701371092,0.7509790979956272,0.004658799152821302,0.9999954104423523,0.8185361503739417,0.7390297164871732,-0.19224831461906433,0.9999973177909851,0.9575036358559352,1.0830770914949461,0.05807159096002579,0.9999939203262329,0.861326941414663,1.0836443110292397,-0.05823775380849838,0.9999955296516418,0.9898440749202665,1.3452326486740565,0.07622961699962616,0.9403753876686096,0.8709014605607458,1.3647550257093022,-0.10581986606121063,0.9765182733535767,0.977223144732247,1.5981891534100676,0.215933158993721,0.9608765244483948,0.8816425155039612,1.6236352979368482,0.0036285154055804014,0.9866403341293335,1.0213727563913866,1.1100111528742946,-0.013302880339324474,0.9438236951828003,0.7981768348866258,1.128051169396721,-0.29749494791030884,0.9972621202468872,0.006024688482284546,0.9094152886352991,1.083360701262093,170.11099306457038,179.5748532938575,1.0,0.04232991882591293,-0.012693615168395333,0.14660251786829512,-0.0674757662700715,93.22420602891775,0.9196027159485403,30,1.0
0.9326188729895649,0.5976672764421564,-0.20828881859779358,0.9999933838844299,0.9753636720516548,0.7505387105035477,0.04972818121314049,0.9999946355819702,0.823964678904909,0.738490559015348,-0.14982075989246368,0.9999973177909851,0.9613112073347927,1.08303795209959,0.05850369483232498,0.9999939799308777,0.8658910220036102,1.0832462584173979,-0.0586872398853302,0.9999955892562866,0.9919466508969844,1.3492080549441883,0.06399814784526825,0.9423015713691711,0.8729820620848532,1.36427274894333,-0.1039183959364891,0.9771134257316589,0.9769187620129858,1.5976672764421564,0.17816253006458282,0.9633611440658569,0.8811512025613525,1.623341059650576,0.007555829826742411,0.9871095418930054,1.0237983764986047,1.108203434809309,0.01511229295283556,0.9423518180847168,0.8107551281252224,1.1242973723333645,-0.2635890245437622,0.9974077343940735,0.006077855825424194,0.9136011146692015,1.083142105258494,169.9730251453907,179.6393210636549,1.0,0.0368372382861637,0.0029999149165166406,-0.04295812937456622,0.12321005590975408,92.5451387446194,0.9208804714598646,31,1.0333333333333334
0.9361291753530371,0.5947846862541019,-0.1589117795228958,0.9999916553497314,0.9715659159574053,0.7446646643487573,0.09174983203411102,0.9999935030937195,0.8307361117824953,0.7339572819873877,-0.11982373148202896,0.9999972581863403,0.9621887869294264,1.0776614649225684,0.05881986767053604,0.9999940395355225,0.8687146001029322,1.077773923819872,-0.05902045965194702,0.9999956488609314,0.9888175229567764,1.345209306909928,0.03340483084321022,0.9449797868728638,0.87357883012483,1.3603293173338669,-0.10097738355398178,0.9772714376449585,0.9756983977197811,1.594784686254102,0.13700315356254578,0.9657296538352966,0.8789924012524035,1.6180141018746899,0.011497851461172104,0.9873951077461243,1.0200367016382434,1.1023748669555309,0.05832973122596741,0.9346081614494324,0.8197441083166416,1.1170338547795295,-0.24776439368724823,0.9974830746650696,0.005419671535491943,0.9154516935161793,1.0777176943712203,171.30710617849692,179.7827358976944,1.0,0.03558836046989121,-0.012958426423364804,-0.008146068306567413,-0.11545251195938223,91.68194498941082,0.9140686998187478,32,1.0666666666666667
0.9438796799224197,0.5944981774455168,-0.1443704217672348,0.9999911785125732,0.9705521447122089,0.7404773624581139,0.10796155035495758,0.9999927878379822,0.838136507550751,0.7299528863266781,-0.14019875228405,0.9999973177909851,0.9651943729568162,1.0767511248819805,0.06903301924467087,0.9999940991401672,0.8740831840404896,1.0753123822194945,-0.0692208781838417,0.999995768070221,0.9884285664268075,1.3444476449194878,0.03866972401738167,0.9426160454750061,0.8791602097327852,1.3542189731025736,-0.12010526657104492,0.9767482876777649,0.9750727977307292,1.594498177445517,0.13718444108963013,0.9663552045822144,0.8786238441144392,1.6167552027906311,-0.037882249802351,0.9873517155647278,1.0193421739019142,1.0942402335411812,0.0741734430193901,0.926590621471405,0.8287470199049606,1.1129161136530206,-0.29757028818130493,0.9976525902748108,0.00533023476600647,0.9196387784986529,1.0760317535507375,171.98216330381922,178.84008580603205,1.0,0.03624772922193687,-0.008054549565686209,0.005217174255532509,0.03754576996667048,90.00811695460266,0.9103124781875178,33,1.1
0.9464778410563881,0.5915914911730944,-0.1292247176170349,0.9999887347221375,0.9674803988154019,0.7375850951035919,0.11425033956766129,0.9999917149543762,0.8381516810523378,0.7252651550550837,-0.13855847716331482,0.9999973177909851,0.9636414430057503,1.0737789016531423,0.0694022998213768,0.9999940395355225,0.8732154895102783,1.072255122836554,-0.06957503408193588,0.9999957084655762,0.9858635400748138,1.341425893011297,0.03538745269179344,0.9396045207977295,0.8774120118051499,1.3505178788815837,-0.1181807890534401,0.9747653603553772,0.9725672293924227,1.5915914911730944,0.12965331971645355,0.9653867483139038,0.8757598727802498,1.6139546788733234,-0.03461752086877823,0.9865277409553528,1.0165544189497682,1.0904576328887483,0.07387257367372513,0.9138503074645996,0.8279280368555715,1.109034898430292,-0.29409629106521606,0.9977551102638245,0.006258577108383179,0.9184284662580142,1.0730170122448481,172.21134303361293,178.77665455755752,1.0,0.011772404642797829,0.001886411742869344,-0.18119161925008787,0.07374387355395244,89.68881821402078,0.9102527137158047,34,1.1333333333333333
0.9568326977116565,0.590848242976399,-0.10905151069164276,0.9999850988388062,0.9659445118621194,0.7267360298658803,0.11958372592926025,0.9999914169311523,0.8427865971448989,0.7223056985439071,-0.15187524259090424,0.9999974370002747,0.9683403812370902,1.0718051940732698,0.08153405040502548,0.9999942183494568,0.8836444421114817,1.0699743130651862,-0.08167781680822372,0.9999958872795105,0.9869442225721405,1.3395119611271131,0.04528848081827164,0.9353787899017334,0.8850925323699551,1.347034789434038,-0.1183696985244751,0.975053071975708,0.97126269041555,1.590848242976399,0.13059309124946594,0.9653660655021667,0.87453860357419,1.6117352372183684,-0.05083305761218071,0.9867902994155884,1.0148478755347734,1.0829820512499049,0.09373380988836288,0.8849593997001648,0.8372963560828052,1.1086558631486163,-0.29604214429855347,0.9978904128074646,0.0022537410259246826,0.9259924116742859,1.0708897535692279,172.45450862259332,177.41729634372106,1.0,0.0666496187925398,-0.00485824729512949,0.41417219247717857,-0.0508688774371647,88.36381679335085,0.9068993245682059,35,1.1666666666666667
0.9639685463388465,0.5889305645395029,-0.10765795409679413,0.9999845027923584,0.9618001521257951,0.7175182163688617,0.12149296700954437,0.9999912977218628,0.8494362338597067,0.7154786769798812,-0.18716727197170258,0.999997615814209,0.9679823799497688,1.0686261166882651,0.09030500054359436,0.9999943375587463,0.8858072894914627,1.065695399579043,-0.09044573456048965,0.9999960660934448,0.9844328652932043,1.3337275691262906,0.05542631819844246,0.9292552471160889,0.8913680819240981,1.3326204456741402,-0.1176026463508606,0.9756213426589966,0.9648261376928865,1.5889305645395029,0.11804670095443726,0.964840292930603,0.8729609425023607,1.6066768995076064,-0.06916631758213043,0.9871528148651123,1.0117068638032547,1.0714688667235746,0.09395457804203033,0.8578423857688904,0.8474342527898004,1.1058239226282272,-0.31373700499534607,0.9980504512786865,0.0010406076908111572,0.9268948347206157,1.0671607581336542,172.0558586536064,174.9640132978409,1.0,0.026791503918755278,-0.004117705167424625,-0.29169585597006875,0.005340762018145559,86.94870503989534,0.9038257394186339,36,1.2
0.9678147041503087,0.5874786476751174,-0.11941207945346832,0.999984622001648,0.9591244382933616,0.7134056387908838,0.11502440273761749,0.9999911785125732,0.8626558915636052,0.713746436957787,-0.21968166530132294,0.9999977946281433,0.9751652585605802,1.0648612501646744,0.09564358741044998,0.9999945759773254,0.90416789340994,1.060876434532171,-0.09576953202486038,0.9999963045120239,0.98254343108183,1.3298207835141553,0.07894869148731232,0.923432469367981,0.9049225553791195,1.3267695066455643,-0.11485990136861801,0.9763716459274292,0.9625381883020286,1.5874786476751173,0.13259001076221466,0.9641504287719727,0.8721654947129088,1.6031655016465696,-0.06405650079250336,0.9876722097396851,1.0146820558199312,1.0570871597866787,0.09406711906194687,0.8167335391044617,0.8721852469062035,1.100505393951086,-0.3530197739601135,0.9982038140296936,0.00017431378364562988,0.93966657598526,1.0628688423484227,173.9652404484439,173.07850249939517,1.0,0.10687271998324109,-0.01164610278798863,0.568278390665065,-0.05345173344652314,84.17434453860717,0.8936059707427696,37,1.2333333333333334
0.9743071613132448,0.5812873685914057,-0.18984435498714447,0.9999849200248718,0.9503715918890105,0.7072068174898543,0.06923628598451614,0.9999907612800598,0.8697596787476898,0.7096543679288031,-0.3131266236305237,0.9999979138374329,0.971347238413985,1.0597743692726929,0.10512097179889679,0.999994695186615,0.9130428500628164,1.0562739891712432,-0.10522954165935516,0.999996542930603,0.9783973209941511,1.3210290829687685,0.1254112273454666,0.9074776768684387,0.9098695063358075,1.3210450982347985,-0.10877297073602676,0.9766282439231873,0.9560544581713456,1.5812873685914057,0.21308140456676483,0.9612127542495728,0.8718096327995434,1.5965138247432031,-0.04633691534399986,0.9878420233726501,0.9992944578997823,1.0558150009310323,0.061131589114665985,0.746687650680542,0.887024947896711,1.0960904936804399,-0.4264046549797058,0.9982883930206299,0.0012570619583129883,0.9421950442384007,1.058024179221968,173.5474777708617,172.82025629421278,1.0,0.05105560149348093,-0.0037651493690026958,-0.44213962148779573,0.06253987756118126,83.15955629833489,0.8987772328883087,38,1.2666666666666666
0.9851587530444974,0.5936116913379461,-0.20711667835712433,0.9999845027923584,0.9570506346946362,0.7143638173619087,0.04576820507645607,0.9999903440475464,0.8851138001251805,0.7152226420959908,-0.3204435706138611,0.9999980330467224,0.9813590120720255,1.0682371514153153,0.10463173687458038,0.999994695186615,0.9236998024515979,1.0645746025187086,-0.10474612563848495,0.9999966621398926,0.9841200464581725,1.329868404963172,0.14327362179756165,0.8908356428146362,0.9160535371900759,1.3313310853559857,-0.09807427227497101,0.9759487509727478,0.9527453415073924,1.5936116913379461,0.24264304339885712,0.9588542580604553,0.8855844987691017,1.6076801363827244,-0.025034120306372643,0.9877151846885681,1.0071379060477554,1.0669549376662013,0.053401071578264236,0.6884846091270447,0.9107084847918842,1.1008983390928468,-0.4532913565635681,0.9983665943145752,0.00043767690658569336,0.9525294072618117,1.066405876967012,172.6113889692057,175.3500980773711,1.0,0.023673945051176776,0.0009940656492065756,-0.22056208044862893,0.038019436529363994,82.43581299983992,0.8853614594902278,39,1.3
0.9835024765376025,0.5993287757389498,-0.15678352117538452,0.9999760389328003,0.958419407996833,0.7164842301534411,0.08194158226251602,0.999987006187439,0.8922338966495005,0.716257072684534,-0.28261417150497437,0.9999980926513672,0.9840855081850476,1.0700147456176001,0.10590176284313202,0.999993622303009,0.9317999374570309,1.066274348130094,-0.10603400319814682,0.9999964237213135,0.9824323358861953,1.3328704294734328,0.12429672479629517,0.8490161299705505,0.929290605788387,1.335978487092607,-0.1016235500574112,0.9706714153289795,0.9506056361287542,1.5993287757389498,0.2066686898469925,0.9427271485328674,0.8915773125965522,1.6108955942343346,-0.04622701555490494,0.9849141836166382,0.998777132697675,1.0831319035901303,0.07168824225664139,0.6254323124885559,0.9294460262375953,1.1029956208209526,-0.4103633463382721,0.9984102845191956,0.00011560320854187012,0.9579427228210393,1.068144546873847,173.5490091822442,172.7219505491353,1.0,0.03045516800871831,0.0018578401649645211,0.05033739154620122,0.006432908851523369,81.75579995858956,0.8723216996103648,40,1.3333333333333333
0.9931819837532531,0.5983690641809407,-0.1983809769153595,0.9999755620956421,0.9746516224072278,0.7112028824590431,0.05516956374049187,0.9999869465827942,0.8990494497376325,0.7117109699919395,-0.30089354515075684,0.9999982118606567,0.9928122846823283,1.0691910126495245,0.10168372094631195,0.9999935626983643,0.9292736068626634,1.065561548487894,-0.10180678218603134,0.9999964833259583,0.9934498663658985,1.3321744981955372,0.12019213289022446,0.8352217674255371,0.925285678549642,1.3397935290959546,-0.09755498915910721,0.9693979620933533,0.9534550157040184,1.5983690641809407,0.21357901394367218,0.9403654336929321,0.8902437889766129,1.609779061211294,-0.00887392833828926,0.9842994809150696,1.0238138748330488,1.0553309839478162,0.018855644389986992,0.5921956300735474,0.9427613033091812,1.1024171168680321,-0.426763117313385,0.9984970688819885,0.0002587735652923584,0.9610429457724958,1.0673762805687093,171.31650339089387,173.43796908818325,1.0,0.029537300540492094,0.000491116343139015,-0.00686594773538808,-0.01048373526619448,83.82658294687077,0.8735956500752406,41,1.3666666666666667
0.981537341025418,0.5925172422397968,-0.17812135815620422,0.9999745488166809,0.9672407355538448,0.7098575260309836,0.07146257162094116,0.9999860525131226,0.9032625398478639,0.7126789145475692,-0.2914910316467285,0.9999982714653015,0.985098898730862,1.067486755081951,0.10845472663640976,0.9999933838844299,0.9272618625886833,1.0634022105609053,-0.10855357348918915,0.9999964833259583,0.9890171602643829,1.3306524380047815,0.13547775149345398,0.8109183311462402,0.9315829464086023,1.3388113821521217,-0.09220409393310547,0.9696884155273438,0.9505226486524432,1.5925172422397968,0.21200299263000488,0.9366531372070312,0.8893561630002396,1.6036394285182554,-0.013933368027210236,0.9844913482666016,1.0177251134654004,1.0537115039141802,0.041038550436496735,0.5476413369178772,0.950778253356969,1.098417139881307,-0.42843979597091675,0.9985548853874207,0.0014421641826629639,0.9561803806597726,1.0654444828214282,170.78431920896475,170.04158293537358,1.0,-0.011022309651286914,0.015192738822781656,-0.31994296807940864,0.11628923901905798,83.10170481667316,0.8871240388811118,42,1.4
1.000921084318803,0.6077926782656066,-0.1245022639632225,0.9999727010726929,0.9752866019170351,0.7217318151188865,0.1097952127456665,0.9999858736991882,0.9183796380262835,0.7219762877446927,-0.26375511288642883,0.9999983310699463,0.9922753596493722,1.0803953498516299,0.10794119536876678,0.9999933838844299,0.9360023292301608,1.073590263290484,-0.1080724224448204,0.999996542930603,0.9982925768091725,1.3412389882094495,0.11448398977518082,0.7872256636619568,0.9548714599666215,1.3462006110697182,-0.11729725450277328,0.9692941904067993,0.9603249125376077,1.6077926782656065,0.13896380364894867,0.9324702620506287,0.8998315063816892,1.6156532413932596,-0.07692860811948776,0.984078049659729,1.0313530697443962,1.0729890007333,0.07413157820701599,0.5189452171325684,0.9720173912869439,1.1081778712891948,-0.42834311723709106,0.9986222982406616,0.00012376904487609863,0.9641388444397665,1.0769928065710568,170.57189140698253,164.49575287700256,1.0,-0.009823175210964522,0.009839151564699828,0.010123039554734242,-0.042649822837654644,80.39282176625358,0.878360916206843,43,1.4333333333333333
1.0104193395220924,0.6228219915618431,-0.07306409627199173,0.9999536871910095,0.9918025525790386,0.7409721317843132,0.14784343540668488,0.9999845027923584,0.9294341775396914,0.7346224832968412,-0.20467504858970642,0.9999983310699463,1.0045055976248416,1.100877899333599,0.1068122610449791,0.9999935030937195,0.9480056901664958,1.0859496305681235,-0.10692620277404785,0.9999966621398926,1.0184473503429514,1.354235590764682,0.06897442042827606,0.7652557492256165,0.9795695037203173,1.343402714091146,-0.25029510259628296,0.9716547727584839,0.9747435352768132,1.6248621319729066,0.09562305361032486,0.9311457872390747,0.9141905948765537,1.6228219915618431,-0.2310226708650589,0.9847657084465027,1.0586840213849456,1.079237609071093,0.06535713374614716,0.49498450756073,0.9999384245501735,1.1173231254127711,-0.394202321767807,0.99869704246521,0.003180772066116333,0.9762556438956687,1.0934137649508613,167.6767412915138,159.8411728076703,1.0,0.014389025489792323,0.03848454457433955,0.1888407562916069,0.22164277598354867,73.17822627734286,0.8879304412608638,44,1.4666666666666666
1.0255168595953965,0.6316707883177278,-0.11001894623041153,0.9999558925628662,0.9956889482607902,0.7490684805046085,0.1247653216123581,0.9999848008155823,0.9342941374560146,0.7411666626534328,-0.2111678570508957,0.9999983906745911,1.0102047551909383,1.1092487310094672,0.1096658706665039,0.999993622303009,0.9553702639497912,1.0944034795096858,-0.10979735851287842,0.9999967813491821,1.0333854334945456,1.3544104781103252,0.0493977926671505,0.7426741123199463,0.9868905020890979,1.352185469386034,-0.25612369179725647,0.9733336567878723,0.9838395458792295,1.635492345325475,0.07419116795063019,0.9238899946212769,0.9222946880477391,1.631670788317728,-0.2499772608280182,0.984842836856842,1.0644693073266196,1.0804712087608774,0.08490116894245148,0.4879401922225952,1.0095256201853922,1.1239602879129902,-0.4206577241420746,0.9987971186637878,0.003931492567062378,0.9827875095703648,1.1018261052595766,164.60184197001405,160.01485192926285,1.0,-0.0010187251979733932,0.007619145762015189,-0.12386790642835863,-0.24866334144400057,72.54367865711971,0.886414212537006,45,1.5
1.0334906095495808,0.6342083951922016,-0.12998642027378082,0.9999591708183289,0.9970540903394315,0.7492453013283356,0.10896363109350204,0.9999855756759644,0.9416917993137179,0.7416350496897861,-0.2599845826625824,0.9999985098838806,1.0139225384416066,1.1113381708771455,0.11348511278629303,0.9999938011169434,0.9657806600662163,1.0972128610183849,-0.11359085142612457,0.9999969601631165,1.0320876926740539,1.3560176388955736,0.10128335654735565,0.7008875608444214,0.9927857609990907,1.353674049652085,-0.2074524611234665,0.9747280478477478,0.9840740823544453,1.6377838372779456,0.13777290284633636,0.9028814435005188,0.9224198236242307,1.6342083951922015,-0.21065476536750793,0.9846888184547424,1.0633130523955228,1.0825377966700773,0.0948231965303421,0.46683114767074585,1.0187336694236107,1.1246444832059055,-0.43194690346717834,0.998857855796814,0.0037839412689208984,0.9898515992539114,1.104275515947765,166.08366839835188,159.90806603092122,1.0,0.0484676214860481,0.013032324930929316,0.3736726756955505,0.04083672586776884,70.98053129793927,0.8857507596168908,46,1.5333333333333334
1.0367244331245438,0.6321543770226992,-0.1323825716972351,0.9999602437019348,0.9976031362268054,0.7461394215485132,0.10874281823635101,0.9999859929084778,0.945283348424366,0.7382111039336283,-0.26554763317108154,0.9999986290931702,1.0117529655103699,1.1077261985304492,0.12088283151388168,0.9999940395355225,0.9671490182027841,1.0947325386756743,-0.12093418836593628,0.9999971389770508,1.026453252106582,1.3541767195563654,0.17881962656974792,0.6505021452903748,1.0053112709166312,1.3512912838504367,-0.23112669587135315,0.976608395576477,0.9813569695661322,1.6321543770226992,0.28503715991973877,0.8697903752326965,0.9238902416193994,1.634020257068045,-0.23811647295951843,0.9847270250320435,1.058427564178305,1.0805447777161976,0.09443702548742294,0.4373292028903961,1.0232236237760763,1.1203434089023911,-0.42959707975387573,0.9988548159599304,0.00395551323890686,0.9894509918565769,1.1012293686030619,167.37165732076616,155.47399819825822,1.0,0.022238427536927372,0.005273163438205847,-0.1959037183931183,-0.057985846345787816,71.51754188745969,0.8843022122948371,47,1.5666666666666667
1.0559575895630962,0.6356963937491604,-0.1537788212299347,0.9999628067016602,1.0254879401581345,0.7502158497012617,0.08998524397611618,0.9999865889549255,0.953362444033363,0.7392569162078949,-0.2746020257472992,0.9999987483024597,1.0261726675380145,1.1115375844510085,0.11690683662891388,0.9999940991401672,0.9707847654029808,1.0997074030725493,-0.11697687208652496,0.9999972581863403,1.0602643977592614,1.3570552504533593,0.16491469740867615,0.6020881533622742,1.011319691592269,1.356056440038361,-0.212183877825737,0.9761705994606018,0.9974918893838136,1.6356963937491604,0.22283299267292023,0.8254451751708984,0.9414323216967626,1.6391259024794345,-0.20828747749328613,0.9818150997161865,1.0803874018310766,1.0737346174508178,-0.005692646838724613,0.4214138388633728,1.0315222649640914,1.1238927554429177,-0.43879762291908264,0.9989229440689087,0.005450934171676636,0.9984787164704976,1.105622493761779,159.39895877230913,157.14607964301686,1.0,0.045375441681320454,0.007865197035197967,0.17394979447460554,0.019423740081325948,77.83490020469125,0.8889308368409605,48,1.6
1.1044434898324085,0.661033930990331,-0.17776206135749817,0.9999613761901855,1.0704791971549854,0.7776213451140798,0.06178898364305496,0.9999870657920837,0.9962075089086884,0.7656251067880744,-0.29760581254959106,0.9999988079071045,1.0673056575094741,1.1519075347925642,0.11791781336069107,0.999994158744812,1.0105633054616718,1.1403128506920364,-0.11793720722198486,0.9999973773956299,1.1025489839615652,1.3948778505969757,0.2032119482755661,0.5494218468666077,1.067941881440913,1.4012894221185486,-0.22693300247192383,0.9764885902404785,1.047609929119435,1.661033930990331,0.3500928282737732,0.7643007636070251,1.0044830798606421,1.700604698538586,-0.2343902885913849,0.9801611304283142,1.1244002937068134,1.1161885315417335,-0.02657053805887699,0.4013327956199646,1.0814765514823832,1.1654420805715477,-0.45681554079055786,0.9988398551940918,0.005754202604293823,1.038934481485573,1.1461101927423003,160.0836948949098,155.62996453359665,1.0,0.027562612534417975,-0.0029314847495790232,-0.1512962022546825,-0.08606889667076797,78.93700947198518,0.915143744824104,49,1.6333333333333333
1.0949883903819106,0.6555528959482192,-0.10898865759372711,0.9999597072601318,1.052183224203705,0.7714335375442667,0.11489305645227432,0.9999869465827942,1.0026491828826245,0.7567556323837794,-0.26192739605903625,0.9999988675117493,1.0597759847991712,1.1419238622864374,0.12174069881439209,0.999993085861206,1.015575615222111,1.1328108459966786,-0.12175313383340836,0.9999971985816956,1.085567249186512,1.3866455258745296,0.2350756675004959,0.4984579384326935,1.0760806808276562,1.4006911330515686,-0.21391241252422333,0.9741728901863098,1.036651679731319,1.6555528959482193,0.39113229513168335,0.6992061734199524,1.0170213703632973,1.6928469963562007,-0.17086254060268402,0.9708681702613831,1.11621148083768,1.1221722657710635,0.10757330805063248,0.382451593875885,1.0809219205810525,1.1584313825216395,-0.446157306432724,0.9988511204719543,0.007086992263793945,1.0376758000106412,1.1373673541415579,163.67413885654796,155.84406274890927,1.0,0.043395360789785856,-0.009574895504964808,0.12508677072056776,-0.052043996194641014,77.1762301634386,0.9036531248210596,50,1.6666666666666667
1.1071658865395482,0.6597309340363658,-0.12583795189857483,0.9999606013298035,1.0481354093629711,0.7720771529477041,0.10631485283374786,0.9999869465827942,1.022159843348115,0.7591109616687932,-0.2812274098396301,0.999998927116394,1.067012250642019,1.146754336354389,0.12479765713214874,0.9999927878379822,1.0357866854372422,1.1418656948374022,-0.12483970075845718,0.9999971985816956,1.0914671732196264,1.4014005149113162,0.26603859663009644,0.4612678587436676,1.092808664508283,1.4193361686939006,-0.13777872920036316,0.9749844670295715,1.0504755414632225,1.6597309340363657,0.4336637854576111,0.6710425615310669,1.0381755469219105,1.7087123154234358,-0.07131478935480118,0.9710100889205933,1.1073646675322468,1.1402140054980703,0.1246284618973732,0.3665870130062103,1.0963808648805209,1.1698933162975738,-0.4361184239387512,0.9989120364189148,0.006201237440109253,1.0513994680396306,1.1443100155958956,165.4979602745484,157.69564493709868,1.0,0.028786006614943373,-0.029740431668406318,-0.11369421120277123,-0.15190818173793352,78.21784716730944,0.903358307883112,51,1.7
1.1149230025550723,0.6580391454226134,-0.129530131816864,0.9999622106552124,1.0458520671075053,0.767287548580277,0.10490157455205917,0.9999870657920837,1.0274580982474084,0.756983459531626,-0.29293426871299744,0.9999989867210388,1.0616127625450187,1.14079573669381,0.12598641216754913,0.9999924898147583,1.0380906699116768,1.1394225798203423,-0.1260559856891632,0.9999971985816956,1.087134493100932,1.3998195834118767,0.2346574366092682,0.42470040917396545,1.1035301305034058,1.4211328793056575,-0.1351044476032257,0.973317563533783,1.0469154051503338,1.6580391454226133,0.37727609276771545,0.6334047913551331,1.0592685911517483,1.7136063347374721,-0.08643301576375961,0.9681038856506348,1.1052717104923444,1.1424775925708182,0.11515645682811737,0.3551526367664337,1.0976372270343682,1.1712597619372014,-0.45201292634010315,0.9989545345306396,0.0049360692501068115,1.0498517162283476,1.1401091582570761,165.51979228074632,158.31692378095156,1.0,0.0011808972031976549,-0.017365321621407137,-0.20425730710457143,0.09136401971463703,84.24277600350587,0.8913677971227234,52,1.7333333333333334
1.0968767023510322,0.6502995770938891,-0.06620883196592331,0.999963641166687,1.0278488960128398,0.7523935258059677,0.14750784635543823,0.9999865889549255,1.0214100689968664,0.7407222270018242,-0.24540290236473083,0.999998927116394,1.0298075340916575,1.1211973960728547,0.12740656733512878,0.9999924302101135,1.0267600028151753,1.1192533108119305,-0.1275167316198349,0.9999971985816956,1.0508805035715245,1.3965083387340798,0.2135423719882965,0.4071037471294403,1.092841046968853,1.401337795300675,-0.1389918029308319,0.9742404222488403,1.0274156133758985,1.650299577093889,0.3245597779750824,0.6282917857170105,1.0565700439048733,1.6914915115797933,-0.1083192229270935,0.9692921042442322,1.0860166314250004,1.1234857349671379,0.11488012224435806,0.33947262167930603,1.0831633007772121,1.1505507966414297,-0.4339655935764313,0.9988285899162292,0.005688518285751343,1.0282837684534163,1.1202253534423927,170.34057254492956,159.69028420891087,1.0,-0.025489946454863324,-0.0024420487012898214,-0.1900994047846401,0.10432498902280009,57.16104458745418,0.8621433168684205,53,1.7666666666666666
1.0965608885266145,0.6484864200001464,-0.05871246010065079,0.9999642968177795,1.0122515295650838,0.7446497558308949,0.12831240892410278,0.9999865293502808,1.0329306149742408,0.7383941580009615,-0.25184789299964905,0.9999987483024597,1.0048415890393574,1.118939639835317,0.12799939513206482,0.9999924898147583,1.0323646697920963,1.116943334708132,-0.12812624871730804,0.9999971985816956,1.0259912582335384,1.3975995529057466,0.2631915211677551,0.43385928869247437,1.0925380164341305,1.3994117245098925,-0.13665662705898285,0.9765390157699585,1.0250067723065133,1.6484864200001463,0.3735576272010803,0.6532384753227234,1.0817568705354637,1.7022953848256406,-0.14421404898166656,0.9720208644866943,1.0641602217899877,1.137232066810329,0.11231555044651031,0.33737802505493164,1.0858970072506389,1.1490300348743279,-0.3860143721103668,0.9980292916297913,0.003055661916732788,1.018603129415727,1.1179414872717244,175.43486992196665,165.93563963931635,1.0,-0.05930210754948728,0.0014441505266000094,-0.27074039085901885,0.031023062933192087,84.71732983308965,0.8520211259605056,54,1.8
1.0949473783423456,0.6460356121609768,-0.054196666926145554,0.9999650120735168,1.008519494260492,0.7386381761271129,0.12230090796947479,0.9999864101409912,1.0362829331918535,0.7344053365034531,-0.24888333678245544,0.999998152256012,0.9975570416336657,1.1184013596651916,0.1274155080318451,0.9999923706054688,1.0344134543613723,1.1144111436602417,-0.12746942043304443,0.9999970197677612,1.0271030040634896,1.3925034166452572,0.2569414973258972,0.46973565220832825,1.0940567854802838,1.3968713714771308,-0.07158760726451874,0.9784234762191772,1.0214405701351,1.6460356121609767,0.3610401749610901,0.6806609034538269,1.0911682874512207,1.697130443639415,-0.061338894069194794,0.9744675159454346,1.0624425023069006,1.1395419643087887,0.10318133980035782,0.342119038105011,1.084449498258613,1.145189682719452,-0.36179548501968384,0.9946454763412476,0.0020745396614074707,1.015985247997519,1.1164062516627167,172.56829594513403,167.5255988540324,1.0,0.0057422892867838035,0.016084901228544342,0.4741312903825714,0.10708289722846724,82.16753425323024,0.8568402173183558,55,1.8333333333333333
1.0913546575574122,0.6462696831954265,-0.007330088410526514,0.9999658465385437,1.0043963386457277,0.7362614417321005,0.1198047399520874,0.9999869465827942,1.0392901035209978,0.7335788022609255,-0.22460536658763885,0.9999975562095642,0.9937936760172444,1.119306214432931,0.11970696598291397,0.9999924302101135,1.0362353277577323,1.114542967152924,-0.11983778327703476,0.9999968409538269,1.0280193948536263,1.3893377177577821,0.25094395875930786,0.506369948387146,1.0939286103754906,1.3964523168918632,-0.06745155900716782,0.9801400899887085,1.0204228786134208,1.6462696831954264,0.3499828279018402,0.7063190340995789,1.0932982521022174,1.6957976074590653,-0.06131641939282417,0.9766390323638916,1.062974189594505,1.1416148186349224,0.10137145221233368,0.37428295612335205,1.0847606358825703,1.14552376936984,-0.3344067931175232,0.9881159067153931,0.0013152360916137695,1.0150145018874883,1.1169245907929275,171.0829133277181,168.31336296283237,1.0,-0.004881045500855072,0.007187039879574789,-0.08410123385246744,-0.07041012814653372,82.01092281226146,0.8580445926490146,56,1.8666666666666667
1.0784957426827304,0.6371115883252971,-0.007476187311112881,0.999968409538269,0.9932683393447798,0.7231055217971251,0.06790401041507721,0.9999879598617554,1.0332682984246597,0.725723807723095,-0.21687403321266174,0.9999971389770508,0.9817941571123201,1.108286793717221,0.10165663063526154,0.9999927282333374,1.0290772356436872,1.1033612147787588,-0.10181635618209839,0.9999967813491821,1.0146705852094706,1.3750233936716554,0.24016627669334412,0.5510581731796265,1.0859086631625403,1.3823638614680622,-0.015143928118050098,0.9818194508552551,1.009797119247609,1.6371115883252971,0.3404151499271393,0.7335554957389832,1.093468655368461,1.6797874223826559,0.022808242589235306,0.9787172079086304,1.0554772122470069,1.1340953542304364,0.06832106411457062,0.41792693734169006,1.0753611411225423,1.1350450620788313,-0.289410263299942,0.9808481335639954,0.001296699047088623,1.0054356963780038,1.1058240042479899,171.90820993309248,169.9426969427454,1.0,0.004862879883532993,0.0008728739470343211,0.0775231290387658,-0.04991285988053203,82.34654539719386,0.855410611237215,57,1.9
1.0791018793909137,0.6365859141671524,0.06297998875379562,0.9999663829803467,0.9865859231859487,0.7230384734039601,0.1364782154560089,0.9999865293502808,1.0410064832520047,0.7258740431282453,-0.17855775356292725,0.9999971985816956,0.9799179662301389,1.1135286696415467,0.10458453744649887,0.9999926686286926,1.03384976765476,1.1060216639907898,-0.10474365949630737,0.9999968409538269,1.0062615098631662,1.3738898988938808,0.23994167149066925,0.5863240361213684,1.0895939864108384,1.3849120706429097,-0.030611103400588036,0.9832850098609924,1.0062488234228486,1.6365859141671524,0.3358445465564728,0.7566260099411011,1.1072496633132978,1.6819687383262953,-0.002157897222787142,0.9805261492729187,1.0088264555691098,1.1270623958216277,0.1574794352054596,0.38762032985687256,1.0841198174763953,1.1406437412468822,-0.23792986571788788,0.9823461771011353,0.0014055073261260986,1.0068838669424494,1.1097751668161682,174.21966573145625,172.0981520713564,1.0,0.018478104666243177,0.039221646549337505,0.10913629534463812,0.3073066669026501,81.09738405517054,0.8675269357113696,58,1.9333333333333333
1.0790392376615607,0.6359898598721032,0.06923199445009232,0.9999679923057556,0.9837480141929107,0.7190223406526869,0.15263566374778748,0.9999854564666748,1.0490182684038551,0.7253902011046861,-0.16648676991462708,0.9999973773956299,0.9750568450609653,1.1125901701512693,0.10549187660217285,0.9999927878379822,1.0333679276218752,1.104255698294546,-0.10565990209579468,0.9999970197677612,0.9992265851399807,1.3727047338420701,0.2201230823993683,0.6220129728317261,1.0915575877146657,1.3841923447249358,-0.05755065754055977,0.9847992658615112,1.0044471504652084,1.6359898598721032,0.28382012248039246,0.778239905834198,1.109901332378776,1.6818402094738845,-0.04192439466714859,0.9822719693183899,0.9949951833551365,1.104082666771447,0.1808740347623825,0.36157888174057007,1.090977211147604,1.1399546248862829,-0.22050301730632782,0.9839803576469421,0.0031587183475494385,1.0042123863414203,1.1084229342229077,175.8272867551066,171.7839294620527,1.0,-0.014277878135238507,-0.0038916710207867297,-0.24358043168184332,-0.3205169507544678,80.6006818433152,0.8649024615382832,59,1.9666666666666666
1.0788295853537397,0.629011625291996,0.06019735336303711,0.9999690651893616,0.9801866788584859,0.7141029156056243,0.15896950662136078,0.9999842047691345,1.0520319858215075,0.7222231193831743,-0.1695074439048767,0.9999973773956299,0.9708739089326608,1.1082826616827581,0.10672120749950409,0.9999927878379822,1.0402401807528114,1.0994361762091098,-0.10688229650259018,0.999997079372406,0.9896083641238972,1.367633949718794,0.22058920562267303,0.6494945883750916,1.0929556835983667,1.378878606228163,-0.03629657253623009,0.9859465956687927,0.9995988494329464,1.629011625291996,0.29692623019218445,0.795253336429596,1.1030358251918968,1.674342297287081,-0.006432802882045507,0.9836313724517822,1.0048251708433695,1.0993050710886414,0.1827012002468109,0.3327576220035553,1.090053786593401,1.1348060888280256,-0.22181615233421326,0.9848090410232544,0.004046112298965454,1.005557044842736,1.1038594189459339,178.0572855846311,171.27093011666307,1.0,0.04468490881044094,0.003141736382941775,0.44974988551922057,0.053573647512039135,81.3787329418642,0.8740109009979781,60,2.0
1.0763396941332277,0.6279684438057991,0.07548161596059799,0.9999597072601318,0.9790414685045873,0.7132682548306347,0.1441592574119568,0.9999802708625793,1.0626316919743648,0.7219056772894384,-0.17205984890460968,0.9999974370002747,0.9755947550506129,1.1073660290932748,0.1044662818312645,0.9999927878379822,1.0470049661609906,1.0996902981697754,-0.10464054346084595,0.9999971985816956,0.9888945206760096,1.3660488061888993,0.22057242691516876,0.6763277649879456,1.0943939757334025,1.3786748680354797,-0.028717970475554466,0.987025797367096,0.9986680043571514,1.627968443805799,0.2932765483856201,0.8127769231796265,1.1029659871585298,1.6726450758484244,0.006013903766870499,0.9849463701248169,1.0008302721069133,1.088598617885766,0.1590433120727539,0.3027467727661133,1.1072715265770405,1.133391137969791,-0.23181264102458954,0.9861025810241699,0.004309207201004028,1.0112998606058017,1.103528163631525,179.19380973838582,172.0298536243744,1.0,0.05635555007775774,0.008424502728896879,0.09444108172647078,0.04257748225326875,83.3638676037578,0.8755578061635281,61,2.033333333333333
1.071800396825822,0.623573330437455,0.07047776877880096,0.9999547004699707,0.9757963159236512,0.7107125944390326,0.13815638422966003,0.9999755024909973,1.0668995514841793,0.71972774219253,-0.17701737582683563,0.9999975562095642,0.9733617300872348,1.104481550266529,0.10396550595760345,0.999992847442627,1.047178048766257,1.0976614711133164,-0.10415361076593399,0.9999973177909851,0.987201575395894,1.3613128521388598,0.21216949820518494,0.69325190782547,1.0947561859806387,1.3756589998527056,-0.010344984009861946,0.9874589443206787,0.9953846939734177,1.623573330437455,0.26730677485466003,0.8259440660476685,1.0951880671715164,1.666483769090381,0.03169696778059006,0.9856757521629333,0.9925576999581931,0.9889709546503316,0.2000821828842163,0.275567889213562,1.1216866633492666,1.134836117937025,-0.2508668601512909,0.9871090054512024,0.004512697458267212,1.010269889426746,1.1010715106899227,178.70266850491635,170.3732411367682,1.0,0.017666440903850732,0.00922092614056394,-0.2905222662011982,0.006221553947130509,84.36703967455017,0.8832500012011416,62,2.066666666666667
1.0654596002295942,0.6131506251323156,0.08712856471538544,0.9999499320983887,0.9697484354030335,0.7062032121791594,0.13925772905349731,0.9999740123748779,1.0657289460237769,0.714823519090297,-0.16256311535835266,0.9999975562095642,0.974497635509282,1.0969835813165063,0.10202889144420624,0.9999929666519165,1.048716412990342,1.0908653644069466,-0.1021990031003952,0.9999974370002747,0.9821012743733262,1.3520678822344043,0.21315684914588928,0.716360330581665,1.0890778447772484,1.3688738537654523,-0.020333198830485344,0.9884064197540283,0.9898003311723595,1.6131506251323156,0.2816709876060486,0.8404794335365295,1.0872568638394935,1.654445189934011,0.019736211746931076,0.986763060092926,0.9788824265998718,0.9928775300163009,0.18314115703105927,0.2537524104118347,1.1216690405868521,1.1265100523740414,-0.22536221146583557,0.9880151748657227,0.004345566034317017,1.0116070242498119,1.0939244728617263,179.98171671764203,171.3741313352335,1.0,0.06568983661197204,0.004553269464095166,0.37514005624338587,-0.03586349920620123,85.98377209296551,0.8949845218843703,63,2.1
1.0702405750291144,0.6084871382745648,0.10016373544931412,0.9999437928199768,0.967117099458449,0.7089265276274125,0.1420125514268875,0.9999728202819824,1.0704327544468755,0.7125765806978176,-0.15961948037147522,0.9999976754188538,0.9770475876914388,1.0938054265926207,0.10163748264312744,0.9999929070472717,1.0549583026666662,1.0887225757465449,-0.10181020200252533,0.9999974966049194,0.9816570051313673,1.348253097935162,0.21370823681354523,0.7288885712623596,1.0888454290921321,1.3670851481564776,-0.014044204726815224,0.9889172911643982,0.9880261022093854,1.608487138274565,0.2807953953742981,0.8515089750289917,1.0853879680946796,1.6498167958326542,0.032673418521881104,0.9874565005302429,0.9755014276395858,1.0456510416743425,0.17683079838752747,0.23222289979457855,1.128858009180399,1.1232516757485196,-0.21392591297626495,0.9889493584632874,0.0018452703952789307,1.0160029451790527,1.0912640011695827,179.6358161096509,172.35849404609968,1.0,0.055722624002789704,0.003458460310274413,-0.07492594770465795,-0.008287962119373982,87.74533986610629,0.9025163859605319,64,2.1333333333333333
1.0813709582530582,0.6075824107387005,0.08225182443857193,0.9999343156814575,0.9688816499181344,0.7096520554952581,0.1370164453983307,0.9999722242355347,1.0762454401525117,0.7116297447145304,-0.17200925946235657,0.9999977350234985,0.9824976330596389,1.0911547634612166,0.10230783373117447,0.9999925494194031,1.0602994885853347,1.0869386076740304,-0.1024736538529396,0.9999974370002747,0.9860766342493987,1.3463474938890252,0.21937432885169983,0.7274230122566223,1.0890769112295875,1.367922135395293,-0.010485345497727394,0.9885047674179077,0.9874834532176572,1.6075824107387005,0.28395408391952515,0.8569551706314087,1.0813681301209446,1.6487006235383197,0.035836026072502136,0.9872477054595947,0.9705139535030335,1.08288424461151,0.17320483922958374,0.21372286975383759,1.1346761815243667,1.1196569145797457,-0.2264234572649002,0.9896716475486755,0.0010003447532653809,1.0213985608224867,1.0890466855676235,179.50504653639706,172.5796786062847,1.0,0.04932681987534513,-0.013608411659649407,-0.052906524916586914,-0.141819630211836,88.94216330023404,0.8997334935868391,65,2.1666666666666665
1.0895384073901588,0.6079671864912788,0.08586040884256363,0.9999255537986755,0.969254839475081,0.712304111012217,0.14051342010498047,0.9999714493751526,1.0771625009149766,0.7109395728788779,-0.17440222203731537,0.9999977350234985,0.9846371146592756,1.0907749961308717,0.10260416567325592,0.9999921917915344,1.0607582218535205,1.0868563618076426,-0.10278277099132538,0.9999973773956299,0.9919543347380066,1.346353053334564,0.2196851521730423,0.7278777360916138,1.0885551242641436,1.37024369791779,-0.010109364055097103,0.9882279634475708,0.9876761337430071,1.6079671864912788,0.2794678211212158,0.8620972633361816,1.0817467549711963,1.6489426995353391,0.03089061938226223,0.9872147440910339,0.969796104892806,1.0955104791790211,0.17672793567180634,0.1975138932466507,1.1385053648573291,1.1203728554921526,-0.23271401226520538,0.9903738498687744,0.0006900131702423096,1.0226976682563982,1.0888156789692571,177.42318539279464,172.99848435921254,1.0,0.007275912153804586,-0.0038050378879738393,-0.30095223231158014,0.07016548829550981,89.3804790255229,0.899396845986213,66,2.2
1.081207777190434,0.5979302213432297,0.1025032177567482,0.9999229311943054,0.9670368844495358,0.7096049586353975,0.13921496272087097,0.9999725222587585,1.0780028672182416,0.7063031554915273,-0.16263160109519958,0.9999977946281433,0.9831020064965847,1.0829510346405091,0.1021442636847496,0.9999918341636658,1.0618725837814178,1.0796213051867354,-0.10230964422225952,0.9999971985816956,0.9889303503194576,1.3393745103747998,0.21930690109729767,0.7280738949775696,1.0833237367135604,1.3628721876025098,-0.004150287248194218,0.987273097038269,0.9807902700755187,1.5979302213432298,0.2829325199127197,0.863690197467804,1.075570175333317,1.6384922204735917,0.05435256287455559,0.9859199523925781,0.9634703960916748,1.0897814470594152,0.17221461236476898,0.19071488082408905,1.1378627075863021,1.112857595081035,-0.2239520251750946,0.990781307220459,0.0016807615756988525,1.0224872951390014,1.0812861699136223,176.8946863387732,174.05776143768773,1.0,0.04934939716649156,-0.0024455917269296133,0.31703043574491335,0.010042435976473824,90.04340137335166,0.9067942784897214,67,2.2333333333333334
1.0824526486120853,0.5992069075836474,0.13167205452919006,0.9999198913574219,0.9754502241736711,0.7142970836940239,0.14307573437690735,0.999973714351654,1.0889837290287894,0.7070667260610808,-0.14041420817375183,0.9999978542327881,0.9938877709296302,1.0835850182376445,0.1006636768579483,0.9999914169311523,1.0737273896020196,1.0806786692846,-0.10080250352621078,0.9999970197677612,0.9951753271180959,1.339971973822465,0.21486981213092804,0.7212492823600769,1.0837466513722729,1.3660145998440048,-0.013285426422953606,0.9859241247177124,0.9814662235097914,1.5992069075836473,0.27257344126701355,0.860856294631958,1.0763585285477344,1.6404411728939474,0.035066910088062286,0.983862578868866,0.9649778856217598,1.0911118009594023,0.1460430920124054,0.19596679508686066,1.1493747440784283,1.1124139697678057,-0.2287350445985794,0.991313636302948,0.0036768317222595215,1.0338075802658249,1.0821318437611223,176.6851182309689,176.44680041337986,1.0,0.07278507707618591,-0.0017893616971784323,0.16555034523087214,0.004663153504755273,90.77346986220427,0.9026481660744816,68,2.2666666666666666
1.08503205166027,0.601140426070535,0.1398647129535675,0.9999087452888489,0.9770360182473338,0.7225273014016147,0.12634341418743134,0.9999749660491943,1.1012173049669873,0.7090647762970884,-0.1324891895055771,0.9999977946281433,0.9997703907109393,1.0860464186498868,0.0931229218840599,0.9999901056289673,1.082004802010276,1.0838974494817,-0.09324891865253448,0.9999963641166687,0.9995294506643259,1.3408298329805242,0.20422236621379852,0.7186092734336853,1.0852019543149727,1.3688474500188836,-0.005257062613964081,0.9833080768585205,0.982354253140748,1.6011404260705349,0.252855122089386,0.8568940162658691,1.077860915009749,1.6433891223435906,0.040529053658246994,0.9795995950698853,0.9669295108875958,1.0975983901635404,0.11917934566736221,0.2095482498407364,1.1593435041265974,1.1121196072418922,-0.20623736083507538,0.9912493228912354,0.0068340003490448,1.0408875963606077,1.0849719340657935,176.27929953333765,177.82548427034538,1.0,0.039926934894465214,0.00707205778573025,-0.2505720542137367,0.06733699473489752,92.08167328779201,0.904053832248163,69,2.3
1.0802136883156974,0.5963030815889983,0.14490549266338348,0.9999120831489563,0.9697479824142077,0.7264357549671713,0.06888274848461151,0.9999769330024719,1.1078433186566463,0.7078919650935466,-0.10097768157720566,0.9999977946281433,1.0009224554248037,1.0844833090257293,0.06767477095127106,0.9999896287918091,1.0865372566829126,1.081882352445192,-0.0677950456738472,0.9999960064888,0.9982047427114077,1.337276731708928,0.2018406093120575,0.733457624912262,1.0830363293089746,1.3649706540427953,0.03183802589774132,0.9808714985847473,0.9797866676909666,1.5963030815889983,0.2629736065864563,0.8616011142730713,1.0756446238426562,1.639030087950041,0.09510592371225357,0.9752517938613892,0.9649730430348818,1.1023142072656744,0.09296734631061554,0.24382103979587555,1.1614155293385795,1.1092876049019307,-0.13188482820987701,0.9909468293190002,0.009438306093215942,1.0437298560538582,1.0831828307354605,176.54877487417266,179.16357554168746,1.0,0.044528152473119274,0.008548964808580889,0.037504857286215144,0.01191764403114496,93.23598167594665,0.9130754140171051,70,2.3333333333333335
1.0823613410730621,0.5971666981984466,0.12071146816015244,0.9999169111251831,0.9681794050272458,0.7301816904319026,0.04344934597611427,0.9999788403511047,1.1125083397114635,0.7090015331534547,-0.12322179973125458,0.9999977946281433,1.0090753520871354,1.0870724174930306,0.06659405678510666,0.9999894499778748,1.0953628245412594,1.0836340570643384,-0.06673693656921387,0.9999957084655762,1.0024075671115704,1.3381026102513225,0.20402726531028748,0.7472186088562012,1.087089291731383,1.3655823074079605,0.021535973995923996,0.9797819256782532,0.980754989750365,1.5971666981984465,0.2678884267807007,0.8668799996376038,1.0786157288877058,1.6400482392288895,0.07586906850337982,0.9729000926017761,0.9657664475339794,1.1070899514672297,0.06453230232000351,0.28314822912216187,1.1654648556780962,1.1101574301988049,-0.14534583687782288,0.990770161151886,0.010773271322250366,1.0522190883141973,1.0853532372786845,176.74383761946737,179.91248789442812,1.0,0.059419462699522745,0.011233437270340728,0.11289126713647424,0.020348499645457582,94.25508525649926,0.9164076980660086,71,2.3666666666666667
1.0792900443092508,0.5903417558532055,0.1356462985277176,0.9999233484268188,0.9656009015807648,0.728134541792595,0.03172442317008972,0.9999806880950928,1.1228393271063348,0.7092119719554187,-0.08853939175605774,0.9999978542327881,1.0087284086142088,1.087455286420872,0.052608173340559006,0.9999897480010986,1.0944415904570195,1.0846763359072216,-0.05274028703570366,0.9999957084655762,1.0014796637273486,1.332873837785953,0.20544898509979248,0.7656238079071045,1.089681766796229,1.3622182319003342,0.051498252898454666,0.9791979789733887,0.9818531795994966,1.5903417558532054,0.284952312707901,0.8752251863479614,1.0772297959560377,1.6357156162885638,0.12711818516254425,0.971578061580658,0.9640602744219477,1.105325462601682,0.06994952261447906,0.3362007141113281,1.169789352348001,1.1061515960056854,-0.07946499437093735,0.9910244345664978,0.009648174047470093,1.0515849995356141,1.0860658111640467,177.33264973971956,178.37572202148777,1.0,0.013320000652998518,0.02332742925763419,-0.32242059558977454,0.08503856738900678,94.98722587839458,0.9413603715884848,72,2.4
1.0654065400469812,0.568383353892156,0.15303584933280945,0.9999279975891113,0.9568347394982206,0.7193985774030857,0.04197830706834793,0.9999822378158569,1.1214774648922237,0.7038382552043151,-0.07218043506145477,0.9999979138374329,0.9954788319089192,1.075960422305601,0.050120554864406586,0.9999901652336121,1.080590449926322,1.072924264696658,-0.050253499299287796,0.9999958276748657,0.9908337732325921,1.3154675748045053,0.20635786652565002,0.7802603840827942,1.0798191255267156,1.3469393677857076,0.06089847534894943,0.9781677722930908,0.9774851552427657,1.5683833538921559,0.29537826776504517,0.8813678622245789,1.0659314707581509,1.6177720495324157,0.14187613129615784,0.969738245010376,0.95554530617422,1.0890528186090944,0.08831923454999924,0.3661525845527649,1.161554074713943,1.0934480148918448,-0.07399732619524002,0.9908629655838013,0.008021444082260132,1.0380346409176204,1.0744423435011294,178.08986337640997,177.2258612160967,1.0,-0.01601134246871804,0.0018390710661766573,-0.22617362894410856,-0.16454810930363833,94.14253377029642,0.976689841116744,73,2.433333333333333
1.062323528546053,0.5665557207558679,0.18693464994430542,0.9999243021011353,0.9613718093605488,0.7176878877586761,0.062032550573349,0.9999831318855286,1.1280538485038667,0.7042088183349717,-0.04030797630548477,0.9999979734420776,0.99487839195143,1.0748106828901327,0.046012572944164276,0.9999901652336121,1.0824815005495636,1.072440102421752,-0.04617047309875488,0.9999958276748657,0.9914410097930291,1.315382791149455,0.19905686378479004,0.7875196933746338,1.0810214718705942,1.346303848460496,0.0671009048819542,0.9739843010902405,0.9783051465721796,1.5665557207558678,0.28017622232437134,0.8810170292854309,1.0661292718691022,1.6176531392149027,0.14212581515312195,0.962922990322113,0.9614885630797677,1.0785569795448524,0.14201059937477112,0.35145241022109985,1.1651457938214904,1.0934430498315166,-0.029033293947577477,0.9900795221328735,0.006946653127670288,1.0386799462504968,1.0736253926559425,177.8248751620219,177.1640964031116,1.0,0.0028074124519175464,-0.008591488058595513,0.1457457139629396,-0.08076677102959934,93.80993911646502,0.9785603043382116,74,2.466666666666667
1.0518532862409153,0.5622432559037787,0.17635121941566467,0.9999258518218994,0.9604942757092848,0.7118698892729933,0.053485117852687836,0.9999841451644897,1.126940507452847,0.7013809384451196,-0.04604324698448181,0.9999980330467224,0.9927208957504566,1.0698815088611613,0.04375293850898743,0.9999901056289673,1.0846521366425048,1.0680836630161614,-0.04390783980488777,0.999995768070221,0.9878372105708083,1.3116937909233264,0.1907864362001419,0.7975060343742371,1.0770885587392016,1.3405393848561065,0.06956768780946732,0.9711729288101196,0.97512096753988,1.5622432559037787,0.27224957942962646,0.8834884762763977,1.0630601313025327,1.6112625763245,0.1451234072446823,0.9579927921295166,0.9602642892141517,1.068828052062768,0.13853180408477783,0.3615679144859314,1.1607368299613021,1.0876693198533869,-0.040037959814071655,0.9895483255386353,0.005427241325378418,1.0386865161964807,1.0689825859386615,178.25153485707128,178.6238466652322,1.0,0.03130293460262215,-0.0028069145967285036,0.2155844670949373,0.043487853467140604,94.02329204564982,0.9783214394194056,75,2.5
1.0463136442747543,0.5599907904910617,0.16268834471702576,0.9999311566352844,0.9570478608601083,0.7053443509063512,0.03979712352156639,0.9999853372573853,1.1222851039630162,0.6975913719802352,-0.06048303842544556,0.9999980926513672,0.9885003160254794,1.0640803887700592,0.04391040280461311,0.9999901056289673,1.0813572121379678,1.0624412840814417,-0.0440271720290184,0.9999957084655762,0.9821544854450402,1.3082212855491429,0.19265800714492798,0.8111537098884583,1.0720170881189486,1.333234531808811,0.062445513904094696,0.9709382057189941,0.9694702716352567,1.5599907904910617,0.2737618386745453,0.8898775577545166,1.0571569874685716,1.602565692654351,0.14167951047420502,0.9568148851394653,0.9521861154908856,1.0628605126607547,0.09608709812164307,0.40178897976875305,1.1547687308184162,1.0809820947920616,-0.07843364775180817,0.989990770816803,0.004033297300338745,1.0349287640817235,1.0632608364257503,178.60478697421627,178.81740634831928,1.0,0.01416057025352273,0.00025957139364887245,-0.13102075622624995,0.02355351021586098,93.99936146105358,0.9709312218905628,76,2.533333333333333
1.0476263480113004,0.5600947124560998,0.16262570023536682,0.9999344944953918,0.9578571672916647,0.7026726316537348,0.04333505779504776,0.9999862909317017,1.1210371965826909,0.696380129376135,-0.06308843940496445,0.999998152256012,0.987429525404605,1.0622170590652018,0.04607301205396652,0.9999899864196777,1.0794384937076693,1.060731570891159,-0.046207718551158905,0.9999955892562866,0.9803570960719798,1.3077013020102486,0.18847396969795227,0.8221970200538635,1.070763192431241,1.331266036585066,0.05397574231028557,0.9702238440513611,0.9676791913013364,1.5600947124560998,0.2595939636230469,0.8944131135940552,1.0556415085942423,1.6002804625469693,0.12530335783958435,0.9545079469680786,0.9505260017062978,1.0615531428703489,0.10141821205615997,0.42497503757476807,1.1525651499943768,1.0783510349049679,-0.061115097254514694,0.9902212023735046,0.0032782554626464844,1.0334340095561372,1.0614743149781805,178.7746496804085,178.61939814529168,1.0,1.3394917858700839e-06,-0.0019565510018942356,-0.11035700972496651,-0.017294514001741517,93.77700465455743,0.9661161430868469,77,2.566666666666667
1.0520470332592333,0.5611039234887527,0.15990552306175232,0.9999381303787231,0.9593136289233101,0.7004671589195217,0.039182521402835846,0.9999872446060181,1.122119441605135,0.6960949242678751,-0.0675138384103775,0.999998152256012,0.9880296495378875,1.0618052479967977,0.04644753783941269,0.9999896883964539,1.0807425250713005,1.06037257775141,-0.04657512903213501,0.9999953508377075,0.9789553469953753,1.3071931723147083,0.18911585211753845,0.8330345749855042,1.0700195137990436,1.3306862424142787,0.05394340306520462,0.9696418642997742,0.9631570896562569,1.5611039234887527,0.26096582412719727,0.8986979722976685,1.0551571182479038,1.5996768000228734,0.12704510986804962,0.9522554874420166,0.9471641232014067,1.0612067676428332,0.08540765941143036,0.4615482687950134,1.1516882366816534,1.0779406580367545,-0.08462550491094589,0.9903931021690369,0.0022786855697631836,1.034386087304594,1.061088912874104,178.5574615076785,179.10914383079628,1.0,0.010493326105138347,7.318836778508989e-05,0.08238403095218796,0.01593198402040661,93.65851466138915,0.9622649704892143,78,2.6
1.036764933616459,0.5510991655869067,0.16080233454704285,0.9999433755874634,0.9518288076443489,0.6922535461336878,0.03435466066002846,0.999988317489624,1.1141409813126364,0.6904602993785551,-0.059111107140779495,0.9999982118606567,0.9812705464963873,1.0528896895430564,0.04313147813081741,0.9999898672103882,1.0732522551866202,1.0519741483850569,-0.04323967918753624,0.9999953508377075,0.9649975114751795,1.296707943164748,0.18717990815639496,0.8439229726791382,1.0611031261249273,1.3197895639426085,0.05931248143315315,0.9696046710014343,0.948625094291096,1.5510991655869066,0.26044028997421265,0.9038093090057373,1.0466672997174302,1.5867061154859305,0.1326570212841034,0.9515628814697266,0.9263452243637414,1.0516138313196532,0.06697850674390793,0.5092070698738098,1.1418519276112125,1.070066240026756,-0.0874146968126297,0.990898072719574,0.0009421408176422119,1.0272614008415037,1.0524319189640567,179.86403275785818,179.50162452741475,1.0,0.008655783689682672,-0.0011325678721987593,-0.013019371444906957,-0.00894843892402155,94.0969070182034,0.9692682197367939,79,2.6333333333333333
1.0306440605850797,0.5518684380405952,0.1445559561252594,0.9999484419822693,0.9526340414776313,0.6911388789604477,0.016756413504481316,0.9999892711639404,1.1151525306570305,0.6910087827965646,-0.06618504226207733,0.9999982714653015,0.9822580505089842,1.0525061192592442,0.04225257784128189,0.9999900460243225,1.0752033589785113,1.0526145327291467,-0.0423579141497612,0.9999953508377075,0.9629545497245191,1.297505803384396,0.1793331801891327,0.8546185493469238,1.0618259314462464,1.3203849052804,0.055129654705524445,0.9696974754333496,0.9442327922138922,1.5518684380405952,0.24643054604530334,0.9093459844589233,1.0472194016745737,1.5873589212961914,0.12596222758293152,0.9515652060508728,0.9213704348066951,1.051387246841067,0.04441487416625023,0.5533846020698547,1.142469205891767,1.0718016735066485,-0.09384998679161072,0.9914780855178833,6.830692291259766e-05,1.0287307047437477,1.0525603259941956,179.7045072122105,179.7284261674895,1.0,0.0062060639398988674,-0.004096433176995745,-0.01864202422267556,-0.022498678193316624,94.75332044770592,0.966393039332388,80,2.6666666666666665
1.0316061413877937,0.5530419796313327,0.14250630140304565,0.999953031539917,0.9529985816118501,0.6908091628896946,0.01615515910089016,0.9999901652336121,1.1152321936051541,0.6923566090241751,-0.0704653188586235,0.9999983310699463,0.9826209109153403,1.0528116406666708,0.04207081347703934,0.9999902248382568,1.0756407030251942,1.053744130048641,-0.042168013751506805,0.9999953508377075,0.9604118040340844,1.2984573821792054,0.18272294104099274,0.8652171492576599,1.0625285935576663,1.3214534473875699,0.06031598523259163,0.9700117111206055,0.9420340492681128,1.5530419796313326,0.2527112364768982,0.9148269891738892,1.0479392473170197,1.5885045235618869,0.13642749190330505,0.9518252611160278,0.9148003719505649,1.0531579159634843,0.043621357530355453,0.5933639407157898,1.1433282077470008,1.0729445726629967,-0.09756944328546524,0.9920154809951782,0.0008118748664855957,1.0291308069702672,1.0532778853576559,178.96273131349838,179.67700961828123,1.0,-0.002990036353803974,-0.0005953732776180149,-0.07355873965586188,0.02801507814963524,95.25238804878325,0.964559134883324,81,2.7
1.0238855230918031,0.5525530393379525,0.14278651773929596,0.999957263469696,0.9524704281897627,0.690658779904313,0.00864339154213667,0.9999909400939941,1.1139398505675044,0.6931096340780355,-0.061888713389635086,0.9999983906745911,0.9815360393263132,1.051845223613616,0.034440089017152786,0.9999901652336121,1.0748500721215195,1.0532458090456085,-0.0345558226108551,0.999995231628418,0.9558791174631167,1.2977143965113682,0.1582372933626175,0.8751768469810486,1.061947403100104,1.3207931692219819,0.05960403010249138,0.9696748852729797,0.9399080830324367,1.5525530393379525,0.21901872754096985,0.9196159839630127,1.0473993244054622,1.587755267738189,0.1339567005634308,0.9511771202087402,0.9099759916673457,1.0544523292511314,0.04242140054702759,0.6297637820243835,1.1438944825689057,1.0724842705251088,-0.08411435782909393,0.9925736784934998,0.0012864470481872559,1.0281930557239163,1.0525455163296122,177.62873957651428,179.641748438676,1.0,-0.0034940116584799325,-0.0018556835953569349,-0.0038233469294526594,-0.00953711183725046,95.460735211288,0.9638550501385762,82,2.7333333333333334
1.0186653414441025,0.5497756478481105,0.14484283328056335,0.9999610185623169,0.9481973100356493,0.6867896398577648,0.006199157331138849,0.9999915957450867,1.109017478068669,0.6907886007114026,-0.05377758666872978,0.9999984502792358,0.9742296790490736,1.0444638742576364,0.029724841937422752,0.9999900460243225,1.0696122338848215,1.0479873606332575,-0.029847919940948486,0.9999950528144836,0.9490825632314625,1.2921816674341537,0.1364142894744873,0.8847653865814209,1.057418037896051,1.314790054837868,0.04901139810681343,0.9696921110153198,0.933100401722224,1.5497756478481104,0.18230858445167542,0.9240438938140869,1.0431019027742325,1.5807814459795129,0.10733421891927719,0.9506762027740479,0.8982691541727409,1.0490482171261837,0.0395478680729866,0.6625977754592896,1.13916889209641,1.0664842789536961,-0.08088376373052597,0.993055522441864,0.002107977867126465,1.0219209564669476,1.046225617445447,177.75377461806204,179.53608849542067,1.0,-0.014564511270923728,-0.014143037151759245,-0.08432597193429525,-0.09352976707109507,96.27835805986666,0.9544466765306036,83,2.7666666666666666
1.0136456078975125,0.5475594559674936,0.1559692770242691,0.9999643564224243,0.9432004856343762,0.6806946660523642,0.00714250560849905,0.9999921917915344,1.1038878606431481,0.687968207988555,-0.0364300012588501,0.9999985098838806,0.9657339522053972,1.036659216363632,0.02231515944004059,0.9999896287918091,1.0643829650472796,1.0418029024273672,-0.02244519628584385,0.9999946355819702,0.9413905555323888,1.2864422886831197,0.10585488379001617,0.8949556350708008,1.0524803757757497,1.3079427636195382,0.04051885008811951,0.9706496000289917,0.9260294476899418,1.5475594559674934,0.1267707347869873,0.9297752380371094,1.0383839454776707,1.5728773178368831,0.08247871696949005,0.9521957635879517,0.8902803174406478,1.0428136089951083,0.03713422268629074,0.6936984062194824,1.1334094964886108,1.0587850237822745,-0.08331699669361115,0.9935439825057983,0.0038519203662872314,1.0150584586263383,1.0392310593954996,177.80037740773687,179.51505924556022,1.0,-0.01602619284334627,-0.016173833596535656,-0.011461231645094534,-0.015712611400708395,96.60690881675377,0.9418602971764731,84,2.8
0.9964407630338259,0.539689292761028,0.13449592888355255,0.9999672174453735,0.92628922886676,0.6700400909344819,-0.029964691027998924,0.9999927282333374,1.0879308521540125,0.6792546586056468,-0.03373626619577408,0.9999984502792358,0.9484361717013641,1.0224896060848472,0.009303193539381027,0.9999884366989136,1.0493047808736204,1.0273524725406116,-0.009414377622306347,0.9999934434890747,0.9228653705162908,1.271325599663462,0.09864327311515808,0.902999997138977,1.0369785579136956,1.2889439058705827,0.06021403148770332,0.9681209325790405,0.9079023716003184,1.539689292761028,0.13005989789962769,0.9342188239097595,1.0237253243344282,1.5502967621318937,0.11934565007686615,0.9504469633102417,0.8712635918188262,1.033104621149047,-0.016625113785266876,0.7229697108268738,1.11712946734174,1.0439807393958318,-0.07959331572055817,0.9938419461250305,0.00494953989982605,0.9988704762874923,1.0249210393127293,177.32408823432732,179.79480030294513,1.0,-0.015340025665852275,0.00261234835862102,0.003726812974016493,0.15018922324950948,96.3556665866199,0.9311381318692259,85,2.8333333333333335
0.9890863187515633,0.5382751740728519,0.14073649048805237,0.9999692440032959,0.9157023659034681,0.666189633073064,-0.022056329995393753,0.9999931454658508,1.0809179611450703,0.6772477980709681,-0.022846663370728493,0.9999983310699463,0.940288766689142,1.0170259120764251,0.005353892222046852,0.9999869465827942,1.0416293044599745,1.0217161447653245,-0.00549768703058362,0.9999919533729553,0.9137338782560839,1.2659947482722358,0.07582709193229675,0.9112895131111145,1.0293003555105682,1.2811954979327074,0.058796994388103485,0.9674138426780701,0.8998863879978414,1.5382751740728517,0.08501690626144409,0.9389991164207458,1.0179483131039533,1.540685884605204,0.10796984285116196,0.9504762291908264,0.8643065337217568,1.0310273197310076,0.00042131153168156743,0.7489440441131592,1.1103909910106724,1.0383118604773558,-0.07655065506696701,0.9940723180770874,0.005973786115646362,0.9909590355745582,1.0193710284208748,176.82328787812128,179.78463083135932,1.0,-0.0164257562448427,0.0020493612405171665,-0.00863520260504955,-0.004035269774969036,96.65856743712581,0.9232429614448716,86,2.8666666666666667
0.9882941428017269,0.5403719183876652,0.15584546327590942,0.9999712705612183,0.9090564969432665,0.667961856255635,-0.008455519564449787,0.9999935626983643,1.077756609609701,0.6774036278327135,-0.02445579506456852,0.9999982714653015,0.9370719569140253,1.017184941091739,0.009621570818126202,0.999985933303833,1.0399525635916629,1.0218506907162945,-0.009767410345375538,0.9999909996986389,0.91119784322993,1.2684566860887183,0.09010182321071625,0.9190566539764404,1.0283130132159095,1.2807805978955693,0.057442616671323776,0.9680117964744568,0.8985550849720275,1.5423873810062838,0.10392143577337265,0.9437859058380127,1.0185109672146413,1.5403719183876652,0.10654500871896744,0.9519439935684204,0.8632304286752625,1.032210662843157,0.01713738776743412,0.772632896900177,1.109231939720589,1.0384430628500416,-0.07979732751846313,0.9944489598274231,0.005100935697555542,0.9885122602528441,1.0195178159040168,176.7633280572577,179.58857772293106,1.0,-0.01736393590991306,0.0015812117688115339,-0.006856177375405187,-0.0034160927304094004,97.18322170699022,0.9166326290810535,87,2.9
0.9901774539714161,0.542018558668475,0.15466968715190887,0.9999732375144958,0.9074342476809396,0.6691932421272121,-0.008372227661311626,0.9999939799308777,1.07773561756211,0.6781863353406102,-0.03324393555521965,0.9999982118606567,0.9367708323323458,1.0184331929575983,0.012295307591557503,0.9999846816062927,1.040227384611952,1.0230497200051383,-0.012432146817445755,0.9999898672103882,0.9112827342263965,1.2707296655381601,0.09199468791484833,0.9258160591125488,1.0285350766477581,1.2817319686103554,0.053805746138095856,0.9680512547492981,0.8989565319008801,1.5456208989194193,0.10555656254291534,0.9478350877761841,1.019977226635404,1.542018558668475,0.10101599991321564,0.9525538682937622,0.8633849958894618,1.033986965788813,0.01424978207796812,0.7941069602966309,1.1096045212716898,1.0396856087202833,-0.09386833757162094,0.9947781562805176,0.004852980375289917,0.988499108472149,1.0207414564813682,176.7987399656717,179.2951456885108,1.0,-0.008276735910426483,0.0004080474722844123,0.06583976008350156,-0.008494495462983406,97.3566496958063,0.9137991494730286,88,2.933333333333333
0.9850285446756981,0.5406745763493784,0.17925365269184113,0.9999751448631287,0.90429049205752,0.6670391908624369,0.012336952611804008,0.9999943375587463,1.0748573869881486,0.6762883015004676,-0.009950939565896988,0.9999982118606567,0.9325025227054528,1.0166997968922742,0.012592682614922523,0.9999841451644897,1.0393495696639192,1.02171000083989,-0.0127402413636446,0.9999895095825195,0.9100890449080751,1.2714684910419263,0.09381214529275894,0.9325546026229858,1.0266434999733465,1.2807073927658421,0.056846510618925095,0.9695807695388794,0.8971917650152985,1.5477701579423861,0.11235396564006805,0.952113926410675,1.0186641023345966,1.5406745763493783,0.10849648714065552,0.9547310471534729,0.8618480628833792,1.033404891383224,0.042294107377529144,0.8133369088172913,1.1059456826171108,1.0390829238639052,-0.0780724510550499,0.9951453804969788,0.004995077848434448,0.9859260461846859,1.019204898866082,177.644829904669,178.9494735131484,1.0,-0.01222649499030908,-0.004985122665013379,-0.02697775916766239,-0.03677357890694485,97.29757334241796,0.9101611229972185,89,2.966666666666667
0.9801720203906693,0.541564306114026,0.18456318974494934,0.9999750852584839,0.8986601955417152,0.6664378030751648,0.02035653218626976,0.9999945163726807,1.0681470745352675,0.6697612668386594,-0.01454963255673647,0.999998152256012,0.9300744703906003,1.0177392197380355,0.014531025663018227,0.999983012676239,1.0385305245779897,1.0222775102181105,-0.014675533398985863,0.9999886751174927,0.9082046079158091,1.2754324459002635,0.09763601422309875,0.9381470084190369,1.0247113599439022,1.2822539612864399,0.07228124886751175,0.9699103832244873,0.8982131799477948,1.5515282925368108,0.1251039355993271,0.9555113911628723,1.019231664340761,1.541564306114026,0.1397441178560257,0.9554853439331055,0.859895617220812,1.0366186715697032,0.06163095682859421,0.8291426301002502,1.1052723380113714,1.0395622604213686,-0.08011464774608612,0.9953375458717346,0.0017938613891601562,0.984302497484295,1.020008364978073,177.22158625933793,178.16786382813666,1.0,-0.015338625874700956,0.0016184594595321155,-0.021864511788001636,0.046516528995989063,97.50606027493451,0.9076204158956014,90,3.0
0.9580851765317715,0.5320714059619074,0.1821601390838623,0.999976396560669,0.8786320275740548,0.6622046077812332,-0.002497346606105566,0.9999948143959045,1.053154882430098,0.6642133598994554,-0.02113019861280918,0.999998152256012,0.9203490314465133,1.0116666383231305,0.011841678991913795,0.9999823570251465,1.0284195333410502,1.0157537030829904,-0.011983571574091911,0.9999881982803345,0.9005664135680325,1.2693314344992768,0.10037456452846527,0.9429864287376404,1.014066147230224,1.2741838844505349,0.0787101611495018,0.9698805212974548,0.8920343326166991,1.542328401375192,0.14686954021453857,0.9584817886352539,1.0116929703824677,1.5320714059619074,0.15092384815216064,0.9560344815254211,0.8514471386651731,1.032972236683521,0.059388525784015656,0.8444814682006836,1.0945438327299817,1.032111946361595,-0.0625338926911354,0.9955800771713257,0.0010912716388702393,0.9743842823937817,1.0137101707030605,177.3997446038699,177.3482621650444,1.0,-0.027985996315897734,0.002168897528289299,-0.09982938049506661,0.0043927754127137866,98.97327362598561,0.9197266385330104,91,3.033333333333333
0.9515044609115799,0.5312556002261004,0.1745363026857376,0.9999775290489197,0.8711728030845792,0.6618693326534166,-0.006372292526066303,0.9999950528144836,1.0476652323326692,0.6653079297255465,-0.0020672250539064407,0.9999980926513672,0.9151016001961686,1.0109952327805503,0.0029752603732049465,0.9999809265136719,1.0214992217450245,1.0149624610454508,-0.0031337100081145763,0.9999869465827942,0.8967223605183601,1.2680994510798511,0.07634202390909195,0.9477602243423462,1.0088208443505946,1.2729726379770996,0.07373397052288055,0.9703097343444824,0.8894534760420101,1.5409301595580307,0.07647410780191422,0.9614999890327454,1.0110127752446887,1.5312556002261004,0.11206568777561188,0.9569520950317383,0.8451108412373555,1.0319509122382864,0.03484601899981499,0.8587746024131775,1.0907748511891955,1.0312798033445914,-0.014251744374632835,0.9958534240722656,0.0018693506717681885,0.9683004109705966,1.0129788469130006,177.43727462489366,176.7005703871772,1.0,-0.04163554976505078,-0.00018794037182132502,-0.105307285623687,-0.01814555949789627,99.30694617367837,0.920883416076052,92,3.066666666666667
0.9454920549472691,0.5257606527624151,0.19766861200332642,0.9999793171882629,0.8638486730012284,0.6589386563909589,0.019535280764102936,0.9999954104423523,1.0358640145246536,0.6609949658375066,0.00978984497487545,0.999998152256012,0.9051908128990345,1.0045443025291312,0.005775152239948511,0.999981164932251,1.0138490222774952,1.008620138265376,-0.005922767333686352,0.9999871253967285,0.89103753824848,1.26213915122811,0.08752116560935974,0.9525103569030762,1.0001384007207317,1.2669239086371873,0.06167279928922653,0.9721046686172485,0.8848633161904176,1.5347783110789777,0.09678489714860916,0.9646132588386536,1.0061343827338771,1.525760652762415,0.09799350053071976,0.9592757821083069,0.8389080554240312,1.0271419312488963,0.06502702087163925,0.8718189597129822,1.0806426508671547,1.0232744606355824,-0.015367959626019001,0.9961573481559753,0.0011229217052459717,0.9595199175882648,1.0065822203972536,178.15241247484164,175.6345971985169,1.0,-0.03550634385641877,-0.014836960563545967,0.047530941558105846,-0.11717588249526109,98.96963114925765,0.9182048015173583,93,3.1
0.9515649325975604,0.5358112684461069,0.19029024243354797,0.9999803304672241,0.8637402954210869,0.6648089283471486,0.00451007392257452,0.9999956488609314,1.0378896570108318,0.6685831486404652,0.017544051632285118,0.999998152256012,0.9034603600328825,1.0109281319809003,-0.0021259726490825415,0.9999805688858032,1.0108348816926784,1.0144498955162922,0.0019764588214457035,0.9999864101409912,0.8934573719597482,1.269978860522117,0.06308302283287048,0.9566494822502136,1.0001819424057004,1.2738791169823767,0.0526997335255146,0.973257303237915,0.8908103927830647,1.5442702448270391,0.057424433529376984,0.9671775698661804,1.0123226027220846,1.535811268446107,0.07368582487106323,0.9606674313545227,0.8394389847383108,1.0332898586357482,0.01659260503947735,0.8839399814605713,1.0798704095582314,1.0293919087197203,0.00395177723839879,0.996385931968689,0.0020481646060943604,0.9571476208627805,1.0126890137485962,178.34157984516492,174.99480203561765,1.0,-0.06571822390779315,-0.0017598630880141595,-0.23438922490832523,0.1029396025555334,98.42509423102555,0.9042959574072899,94,3.1333333333333333
0.957280315130486,0.54370363923113,0.2075824737548828,0.9999812245368958,0.866034805580305,0.6685662410071574,0.01810937374830246,0.9999958872795105,1.0382620813927665,0.6747427340273581,0.027407247573137283,0.999998152256012,0.9038945572492554,1.016701405458949,-0.0005473817000165582,0.9999802708625793,1.0101863700630456,1.01993362912622,0.0003963074123021215,0.999985933303833,0.8969512353731607,1.27678445934755,0.052560966461896896,0.9606678485870361,1.0008928571921671,1.2785566983094254,0.04504222422838211,0.9749573469161987,0.895958858872508,1.5528093798218472,0.02482392080128193,0.9698951840400696,1.0160717055947137,1.5437036392311299,0.053787607699632645,0.9628049731254578,0.8370873338263645,1.03688416421923,0.023267991840839386,0.8947600722312927,1.0781844563321479,1.0352397208621464,0.0034999835770577192,0.9966262578964233,0.0033330321311950684,0.9570404636561505,1.0183175172925845,178.6767545584601,174.66555400053306,1.0,-0.042978336866967025,-0.0006037513696549989,0.18058880785951503,0.009111640114662142,97.94830239393316,0.8955962816255425,95,3.1666666666666665
0.9211826404111583,0.5402166788693532,0.1827910840511322,0.9999790191650391,0.8557272640215217,0.6682477448027733,-0.024828270077705383,0.9999960064888,1.025427160724147,0.6704259036588466,0.025974774733185768,0.9999979138374329,0.8977582841431216,1.0178919442674372,-0.010058985091745853,0.9999790191650391,1.0016272027275144,1.019303610661349,0.009900214150547981,0.999984622001648,0.8944966481478364,1.2733701134173714,0.06305765360593796,0.9629747271537781,0.9972537745765926,1.2757404059424002,0.06705616414546967,0.9727017283439636,0.8954807191572612,1.545794902689899,0.060358427464962006,0.9711499214172363,1.0139266276787842,1.5402166788693532,0.06607599556446075,0.9612438082695007,0.8270443179682513,1.038723958671115,0.0013270010240375996,0.9039773941040039,1.0679140360516945,1.034859096916561,0.013701723888516426,0.9964281320571899,0.0011760890483856201,0.949692743435318,1.018597777464393,179.06158984492842,175.41572717342385,1.0,-0.050876762482534775,0.006545466160608011,-0.05936872867699867,0.053564822358729815,97.63333155042491,0.9138043725425135,96,3.2
0.9239964683040425,0.5533362558063545,0.16076809167861938,0.9999783635139465,0.8563493863837003,0.6752247674520344,-0.027424266561865807,0.9999961853027344,1.0249564009984231,0.6797092839237492,0.006492218468338251,0.9999976754188538,0.8925243745333153,1.030900334628916,-0.005109427496790886,0.9999791383743286,0.9937739740206591,1.0295194466333908,0.004957107361406088,0.9999841451644897,0.9002571579471541,1.2849236871970675,0.07261810451745987,0.965414822101593,0.9975008233030892,1.2873511851470942,0.06626661121845245,0.9723564386367798,0.9037972637654801,1.5579681397716627,0.07740670442581177,0.9726711511611938,1.0200017120471478,1.5533362558063544,0.0752827376127243,0.9615958333015442,0.8221166862052052,1.0488063205171696,-0.024513347074389458,0.9128463268280029,1.06084846138256,1.0449612876287662,-0.048807427287101746,0.9959337711334229,0.0023996829986572266,0.9431491742769873,1.0302098906311534,178.99920031441897,175.99273022009632,1.0,-0.11445666270082691,0.0181047183832753,-0.4772497482800633,0.0869522377345294,95.02608157344135,0.9077168167357244,97,3.2333333333333334
0.9206960250433428,0.5588978624613032,0.15850897133350372,0.9999769330024719,0.8570582350573798,0.6793130924070376,-0.018391400575637817,0.9999961256980896,1.0271119972502216,0.6847492183744034,-0.010643708519637585,0.9999975562095642,0.8951480341126888,1.0384551123585921,-0.00204086909070611,0.9999791383743286,0.9968308749312346,1.0349074732608394,0.001866411417722702,0.999984085559845,0.9021995149852009,1.2904562948303777,0.0747770145535469,0.9672472476959229,1.002340835466099,1.2936072409336605,0.06523732841014862,0.971847653388977,0.9078605567070455,1.5646021421533571,0.08032359927892685,0.9737770557403564,1.0228180696679485,1.5588978624613032,0.08198589086532593,0.9620723724365234,0.8254000980545431,1.0556380942738777,0.010431576520204544,0.9189395308494568,1.0661966611672966,1.0516641164840985,-0.05717913433909416,0.9953809976577759,0.0028963685035705566,0.9459894545219617,1.0366812928097158,179.58014651540344,176.80634851745967,1.0,-0.008982676068654232,0.01462997311728275,0.7688098480149208,-0.025777442813587563,94.0558339311426,0.9105974034939286,98,3.2666666666666666
0.9113542439645747,0.5585917699877181,0.1536073237657547,0.9999743700027466,0.8540865740299168,0.6787707370503832,-0.021856138482689857,0.9999961256980896,1.0241670985792894,0.6832910091595311,-0.017018228769302368,0.9999973773956299,0.8897588179402285,1.0407585849451622,0.0003213627787772566,0.9999799132347107,0.9901999422127483,1.0357426738715194,-0.0005000050878152251,0.999984622001648,0.8980209404665439,1.291825789057511,0.09679664671421051,0.968837320804596,1.002226067868414,1.2946693917486183,0.07947465777397156,0.9717176556587219,0.9078540594984928,1.5657927440357597,0.1309039294719696,0.9750784635543823,1.0227282911112523,1.558591769987718,0.12756969034671783,0.9633877277374268,0.8203332808418479,1.0593836455364662,0.029565703123807907,0.9233828783035278,1.0580293092689241,1.0544952803814518,-0.051942646503448486,0.9935938715934753,0.002408146858215332,0.9399793800764884,1.0382506294083407,179.82925377391717,178.21727765767426,1.0,-0.04366386186495612,0.010431498821262502,-0.24783142912011935,-0.030014133440781177,92.76915656740967,0.9160386447720721,99,3.3
0.9039365032515954,0.55801553249394,0.13634763658046722,0.9999735951423645,0.8495916268840464,0.6781062456508664,-0.037370506674051285,0.9999961853027344,1.0182720250136401,0.6872949834039945,-0.02283484861254692,0.9999971985816956,0.8869698266701582,1.0444154677803432,0.0009630498243495822,0.9999802112579346,0.9869362783091917,1.037390507005409,-0.0011326405219733715,0.9999847412109375,0.8965621293324278,1.2931232237395967,0.09700635075569153,0.9691964387893677,1.000547950968262,1.297846286970677,0.08406002819538116,0.9693806171417236,0.9078516534777097,1.5659355637632277,0.13045331835746765,0.9755362868309021,1.0212109889818501,1.55801553249394,0.1371575891971588,0.9631165862083435,0.8175035174871881,1.0591476568145326,-0.0031308275647461414,0.9284391403198242,1.0533115734237235,1.0556939154282574,-0.05730276182293892,0.9921667575836182,0.0048951804637908936,0.936953052489675,1.0409029873928761,179.83905884976298,178.45062533502661,1.0,-0.02175388954163603,0.018895667495511515,0.15687608154721805,0.060601217239522824,91.80654821675553,0.9275803017026877,100,3.3333333333333335
0.8885958951148535,0.5659604405533432,0.13992281258106232,0.9999711513519287,0.8491669963643449,0.6823836934021954,-0.04122849553823471,0.9999960660934448,1.0126123564127707,0.6918638562512873,0.002755792113021016,0.9999967813491821,0.8858069171154098,1.0532470093505149,-0.006227766163647175,0.9999799132347107,0.9878936362479733,1.0439904259619006,0.0060692764818668365,0.9999843835830688,0.8991870932049055,1.304149061073134,0.09681697189807892,0.9696452021598816,1.0029159261358709,1.3059471461530214,0.09931588917970657,0.9667282104492188,0.9128289275711666,1.5751837260701076,0.12769243121147156,0.9759467840194702,1.0267819507985696,1.5659604405533432,0.1540006399154663,0.9625973701477051,0.8188021495576164,1.0614968945797252,-0.026114409789443016,0.9316879510879517,1.0487782324612178,1.060446661702734,-0.04406032711267471,0.9894582629203796,0.005023092031478882,0.9368502766816916,1.0486187176562078,179.82881039245814,178.03776182520397,1.0,-0.04025274317161693,0.01586018743589391,-0.14220657580641052,-0.02428077346853663,90.4612466833943,0.9274750507306719,101,3.3666666666666667
0.8878165957054838,0.5600359191056531,0.14545324444770813,0.9999571442604065,0.8419170266865366,0.6800772024181315,-0.03667003661394119,0.9999960064888,1.0073630578490573,0.6895501741433009,-0.0014154681703075767,0.999994695186615,0.8781353460919752,1.0505191333374857,-0.004257481545209885,0.999980628490448,0.9784360343284568,1.0405885108983157,0.004115500021725893,0.9999843835830688,0.8932402864715187,1.3012295347352294,0.11377938836812973,0.9691033363342285,0.9957658759189666,1.3019499575791482,0.10399528592824936,0.9634020328521729,0.9099007795535812,1.570771733208976,0.16360661387443542,0.97597736120224,1.0225427315866509,1.560035919105653,0.15670880675315857,0.9624378085136414,0.8111133717375708,1.0580041304616812,-0.009539347141981125,0.9309199452400208,1.0263592346743495,1.047025222704566,-0.045441485941410065,0.9344398379325867,0.005035609006881714,0.928285690210216,1.0455538221179008,179.9108489954162,177.8701620990756,1.0,-0.04569098793517064,0.0027701900915316955,-0.046036292045461766,-0.1077884017256384,89.92975099473915,0.934707555582431,102,3.4
0.8524645220935851,0.5591313568521982,0.12349097430706024,0.9999527931213379,0.8354988898927713,0.6799348363554865,-0.07152315229177475,0.9999959468841553,0.9956490520314613,0.6891890263974394,0.022528810426592827,0.9999908208847046,0.8732720077882602,1.052786530232037,-0.01354890875518322,0.9999809265136719,0.9723768341282681,1.0410784779274262,0.013420666567981243,0.9999836683273315,0.8904726885606427,1.304486850307118,0.11549420654773712,0.9663910269737244,0.9921982364353301,1.301204462841174,0.12785395979881287,0.9548958539962769,0.9093786060975354,1.56985584714839,0.18511903285980225,0.9749960899353027,1.021073183031118,1.559131356852198,0.18608549237251282,0.9603656530380249,0.8056099006156368,1.0572980060092871,-0.042351242154836655,0.931562602519989,1.0115681437746447,1.0443868636143971,-0.02113388478755951,0.8566893339157104,0.004922240972518921,0.9228244209582642,1.0469325040797317,179.83430880127693,177.96980146592824,1.0,-0.036090211651644256,0.01471482509001843,0.07039083674672031,0.08783653152062824,89.04723999727608,0.9490703493874074,103,3.433333333333333
0.8382390289091873,0.5595155474265049,0.10193469375371933,0.9999438524246216,0.8283752027252603,0.6823786258502204,-0.08876538276672363,0.9999957084655762,0.9904616674575867,0.6920095799028265,0.02979172207415104,0.999977171421051,0.870013312027955,1.0587673103627875,-0.017184821888804436,0.9999816417694092,0.9704963744372934,1.0435236386531386,0.017048688605427742,0.9999831914901733,0.8904533814508905,1.3130751222157937,0.1325874626636505,0.9589466452598572,0.9923539288378447,1.3028657746016559,0.14856231212615967,0.9425296187400818,0.9103708770595033,1.572415238555367,0.22722181677818298,0.9731406569480896,1.0215897879146938,1.5595155474265048,0.22149789333343506,0.9579331874847412,0.8014543204007487,1.0586178593009135,-0.07207400351762772,0.9223340153694153,0.9889593028040643,1.0153438106531343,0.027209153398871422,0.7726939916610718,0.005116283893585205,0.9202548432326242,1.051145474507963,179.7964457470399,178.3188008339283,1.0,-0.02744780094497447,0.02151351647293101,0.06416929414858585,0.05008429278459639,87.68647525788943,0.9643525113489364,104,3.466666666666667
0.8344940929568431,0.5565286761602797,0.08771002292633057,0.9999464154243469,0.8230323807671076,0.6828425570673508,-0.0927421972155571,0.9999956488609314,0.9864886459218845,0.6926575967916642,0.029121622443199158,0.9999752044677734,0.8657352051614152,1.0583641144746931,-0.01960361748933792,0.999982476234436,0.9656544768042687,1.0440899648287032,0.019474025815725327,0.9999834895133972,0.8877936348312605,1.3154451590664646,0.12978999316692352,0.9605761170387268,0.9891166878871829,1.3018106505401201,0.15514443814754486,0.9420981407165527,0.9092588724431444,1.5727695989826702,0.2282569408416748,0.9746307134628296,1.0184405576397557,1.5565286761602797,0.2464485913515091,0.9595237970352173,0.7949543992360166,1.0570916679236115,-0.06373796612024307,0.9231158494949341,0.9928224153198306,1.0217260583382286,0.016390128061175346,0.7119733691215515,0.005220592021942139,0.9156948409828419,1.051227039651698,179.86424192299307,178.63457365359514,1.0,-0.025672528245206147,0.010486413583718374,0.013101816184621038,-0.08278114594424639,88.35749620378773,0.972155048978691,105,3.5
0.8516477761291994,0.5619994668680345,0.14317063987255096,0.9999407529830933,0.8256873145525362,0.6868971522402784,-0.040952131152153015,0.9999956488609314,0.9968950218535086,0.7005052583253132,0.006527649704366922,0.9999759197235107,0.8688341544328131,1.0654782628146764,0.0001744561013765633,0.9999831914901733,0.9682987067070447,1.0505076332473535,-0.0003173564618919045,0.9999840259552002,0.8902445132962109,1.3223283070817584,0.14739784598350525,0.9554333686828613,0.9921612923091798,1.3085081201768023,0.13179627060890198,0.9382850527763367,0.9138153469096235,1.5813955086984408,0.2222447693347931,0.9718073010444641,1.0232662914158372,1.5619994668680346,0.20373816788196564,0.9568584561347961,0.7956577071911005,1.0629853553235526,-0.022861307486891747,0.9218525290489197,1.0104560239094642,1.030412017702776,-0.001239978359080851,0.6916981339454651,0.007197737693786621,0.9185664305699289,1.057992948031015,179.5663569455807,178.28869391773299,1.0,-0.01685384246374761,0.0064666699709157735,0.0666915099317788,-0.03034865930608376,87.9424727478521,0.9696896688771616,106,3.533333333333333
0.8595843895123935,0.5664005151181309,0.1652134358882904,0.9999358057975769,0.8264618129511868,0.6918980292411628,-0.010713745839893818,0.9999957084655762,1.0027598934637925,0.7062244971484086,-0.007850276306271553,0.9999769926071167,0.8708944933597416,1.0720931249042984,0.01221512258052826,0.9999839067459106,0.9724096257201684,1.0569435587245384,-0.012362731620669365,0.9999845623970032,0.8951998443942325,1.3297010581226205,0.1612013876438141,0.9513469934463501,0.991774402930613,1.3112264447716027,0.12834103405475616,0.9358916878700256,0.9188914007461344,1.5894316200012824,0.23576608300209045,0.9696004390716553,1.0271180239246702,1.566400515118131,0.19046495854854584,0.9554352164268494,0.797116395188988,1.0698259339053051,0.019286196678876877,0.923253059387207,1.016683230865091,1.036290419275568,-0.04563141241669655,0.6893395781517029,0.00753137469291687,0.921652059539955,1.0645183418144184,179.8219525987861,176.46917877936548,1.0,-0.019574041223920733,0.0001341354579588931,-0.01997066319436735,-0.0486366803133811,88.17794195668132,0.9728824185916093,107,3.566666666666667
0.867608965429275,0.5692863842840424,0.15836505591869354,0.9999268651008606,0.8280464149829766,0.6991151088067026,-0.02236008644104004,0.9999956488609314,1.0041670167012369,0.7111399219167388,-0.023805955424904823,0.9999774694442749,0.8716991550041987,1.078025355915341,0.01137133315205574,0.9999840259552002,0.9730264974934865,1.062531125529939,-0.011515588499605656,0.9999842643737793,0.8991007920603155,1.33611343422612,0.1492682844400406,0.9485858678817749,0.994526238230432,1.3087123671041747,0.12768873572349548,0.9300713539123535,0.9235522218712694,1.595973665849647,0.20962730050086975,0.9681048393249512,1.0251628216437745,1.5692863842840423,0.18576838076114655,0.9515826106071472,0.7928959529316445,1.078735721866653,0.007850545458495617,0.9256044030189514,1.0222893275380907,1.0434659155998165,-0.05854558199644089,0.6888790726661682,0.006287872791290283,0.9223628262488426,1.07027824072264,179.31490991618358,178.28547119130278,1.0,-0.03273592438422943,0.0006492907190624874,-0.1016787914466736,0.004005944157701675,87.8779412746566,0.9786203808411995,108,3.6
