nose_x,nose_y,nose_z,nose_visibility,left_shoulder_x,left_shoulder_y,left_shoulder_z,left_shoulder_visibility,right_shoulder_x,right_shoulder_y,right_shoulder_z,right_shoulder_visibility,left_hip_x,left_hip_y,left_hip_z,left_hip_visibility,right_hip_x,right_hip_y,right_hip_z,right_hip_visibility,left_knee_x,left_knee_y,left_knee_z,left_knee_visibility,right_knee_x,right_knee_y,right_knee_z,right_knee_visibility,left_ankle_x,left_ankle_y,left_ankle_z,left_ankle_visibility,right_ankle_x,right_ankle_y,right_ankle_z,right_ankle_visibility,left_wrist_x,left_wrist_y,left_wrist_z,left_wrist_visibility,right_wrist_x,right_wrist_y,right_wrist_z,right_wrist_visibility,trunk_lateral_inclination,center_mass_x,center_mass_y,left_knee_angle,right_knee_angle,person_height,center_mass_velocity_x,center_mass_velocity_y,center_mass_acceleration_x,center_mass_acceleration_y,body_orientation,torso_leg_ratio,frame,timestamp
1.0613632456728532,1.0569042268121038,-0.13312214612960815,0.999939501285553,0.9935128879848334,1.2138736392553358,0.09154985845088959,0.9999858736991882,0.9516302224080885,1.235923874556938,-0.3057268261909485,0.9999977350234985,1.067431512362651,1.6434673413381882,0.1314401626586914,0.9999926090240479,1.0464803421304973,1.6856729910180548,-0.13152779638767242,0.9999966621398926,1.3158941065956686,1.7049938742165769,0.18199078738689423,0.18564796447753906,1.3425359149275096,1.7213032071072012,-0.15426382422447205,0.9672092199325562,1.2607594707656302,2.0569042268121036,0.2682569921016693,0.3468952476978302,1.293400540068483,2.0946281668849815,-0.03008788824081421,0.9431688785552979,1.1574103740655686,1.597478512365954,0.049583446234464645,0.08143191039562225,1.155929443842629,1.619504477185819,-0.39921432733535767,0.9943623542785645,0.009151697158813477,1.056955927246574,1.6645701661781216,95.0040307367097,89.36460782862501,1.0,-0.024057432444396547,0.02072515143991595,-0.19051614472978928,0.14464022496409176,143.8368128688951,1.302889907185033,0,0.0
1.0720431067888965,1.0846283876767544,-0.13632117211818695,0.999936580657959,0.993758323031882,1.2367597582479355,0.0947784036397934,0.9999856352806091,0.959071225285175,1.26598596280687,-0.3099817633628845,0.9999976754188538,1.0835032541163578,1.6678114613867825,0.13186317682266235,0.9999923706054688,1.0601000094417312,1.7144509888481854,-0.13195668160915375,0.999996542930603,1.3339429507998313,1.7247291335006112,0.1912943571805954,0.19338980317115784,1.3617226383915373,1.7518122473471105,-0.15852952003479004,0.9671118259429932,1.2800339464868922,2.0846283876767546,0.2828306555747986,0.3602602481842041,1.313244488708382,2.1292076491875553,-0.03585221245884895,0.943893313407898,1.1716481945332011,1.60514767560253,0.04626116901636124,0.08113578706979752,1.1760536552805707,1.6259152555410021,-0.40533366799354553,0.9944838881492615,0.011946499347686768,1.0718016317790446,1.691131225117484,94.28521976508902,89.7413037498512,1.0,-0.010169793221141152,0.007266730035802018,0.10435397376508601,-0.1008377132179672,141.59200095479443,1.28309644067435,1,0.03333333333333333
1.0688826317373619,1.0807597053931497,-0.1274011731147766,0.9999328851699829,0.992076881070328,1.2371380217141852,0.09979476779699326,0.9999856948852539,0.954167076619089,1.2663410916707953,-0.30371716618537903,0.999997615814209,1.0838959141958422,1.665697286862097,0.13184884190559387,0.9999921321868896,1.0575495334110738,1.7151037824878805,-0.13194270431995392,0.9999963641166687,1.332208462698793,1.7217406453708755,0.194301038980484,0.1983080953359604,1.357433781282766,1.7500350764025177,-0.15570372343063354,0.9671082496643066,1.2808299746343759,2.0807597053931497,0.2887038290500641,0.3704129457473755,1.3109910233518602,2.12661446055986,-0.0303694698959589,0.9447445869445801,1.1707169965983166,1.6024551153038489,0.04991156980395317,0.08268503099679947,1.1749915874852053,1.6200068522698363,-0.39075443148612976,0.9944247603416443,0.011959433555603027,1.070722723803458,1.6904005346749889,94.57419452080445,89.61335099052891,1.0,0.007128467627467269,0.018713450687410055,0.13276794686918764,0.08805743729463149,139.83807157521895,1.2953045800263479,2,0.06666666666666667
1.069257037789318,1.0838789732807148,-0.12278611958026886,0.9999337196350098,0.9835496573057915,1.2403012180389623,0.10366596281528473,0.9999857544898987,0.9560584442900459,1.2678038043759583,-0.2972877025604248,0.999997615814209,1.0852001740993023,1.6701079226118394,0.13171210885047913,0.9999921917915344,1.0570248120668022,1.7193099310237228,-0.13181588053703308,0.9999963641166687,1.3338670531651735,1.723235184973218,0.18899689614772797,0.20969493687152863,1.3591811500323339,1.7527988212573207,-0.15283092856407166,0.9676288962364197,1.2868408485955771,2.0838789732807146,0.2817966639995575,0.3839358389377594,1.3139297668250427,2.1294880328601495,-0.027496684342622757,0.9460993409156799,1.1699739215576201,1.6068508221234428,0.05217261239886284,0.08156773447990417,1.1793484545041633,1.6229958348856215,-0.37182191014289856,0.9944038391113281,0.011242449283599854,1.0711124930830522,1.694708926817781,94.63066040317226,89.47437813693861,1.0,-0.012541802075820428,0.009676725517634516,-0.15710791383917902,-0.07240269482322513,136.89641247843838,1.295570398192597,3,0.1
1.0644613584924631,1.0767054531579852,-0.15202927589416504,0.9999345541000366,0.9952955947354832,1.2353947668386178,0.08015917241573334,0.999986469745636,0.9512026292071389,1.2623033401676949,-0.30060601234436035,0.999997615814209,1.0888424627588804,1.65818055064971,0.1305517703294754,0.9999921917915344,1.052937872209595,1.712514669709413,-0.13063769042491913,0.9999962449073792,1.3357000537168906,1.7176578040819896,0.16904446482658386,0.2167864441871643,1.3532306198191062,1.746421695172556,-0.15861393511295319,0.9668481945991516,1.289012418525629,2.076705453157985,0.2553308308124542,0.3882122337818146,1.3095505202488849,2.121255891313164,-0.032170504331588745,0.9447247385978699,1.1735379583135424,1.593001344447901,-0.01207810454070568,0.09017584472894669,1.1767066300766058,1.6182151549631312,-0.39027565717697144,0.9940729141235352,0.011038482189178467,1.0708901674842377,1.6853476101795615,96.13780489414052,89.79536554583608,1.0,0.024704947478218078,-0.023651649490184373,0.25906722472317345,-0.23185112268904814,134.0664019449149,1.2882006618901012,4,0.13333333333333333
1.0642217384248396,1.0796001472584247,-0.14325794577598572,0.999927282333374,1.000425975763463,1.23609044739894,0.08548268675804138,0.9999864101409912,0.9510758543101786,1.263004172249294,-0.29844605922698975,0.9999975562095642,1.0903483974007622,1.6603163350139347,0.1286371648311615,0.9999920129776001,1.0529269066761735,1.7147958418771565,-0.12872612476348877,0.9999960660934448,1.3395686602589418,1.7201932806833302,0.15702468156814575,0.21541191637516022,1.3544135082617548,1.7478530450538474,-0.16102121770381927,0.9645885229110718,1.2950905638585024,2.0796001472584247,0.23806102573871613,0.38686132431030273,1.3126806859926496,2.123352426348783,-0.04109971225261688,0.9420824646949768,1.1743853557446826,1.5949994693488398,0.00020778454199898988,0.0921822041273117,1.178400046380148,1.6196631459895903,-0.38743361830711365,0.9935563206672668,0.011026561260223389,1.0716376520384678,1.6875560884455456,96.45494003693715,89.91553343482863,1.0,-0.0046823566901778805,0.0004825403337274847,-0.22379866683778615,0.18382619679722903,133.54742639722787,1.281006743751991,5,0.16666666666666666
1.0646917709874177,1.0805774553649725,-0.1419074833393097,0.999923586845398,1.002581522866341,1.2361230683334699,0.08522288501262665,0.9999865889549255,0.9527007781174074,1.2631789533221252,-0.30142414569854736,0.9999974966049194,1.0907249586896666,1.6599444557406335,0.12801815569400787,0.9999919533729553,1.0519253388044085,1.7151701092065752,-0.1281076967716217,0.9999959468841553,1.3425080382856878,1.7211114033403696,0.160305455327034,0.21178095042705536,1.3544856697935843,1.7487374022222653,-0.16252951323986053,0.9616751670837402,1.2971383542848127,2.0805774553649727,0.24741379916667938,0.3823149800300598,1.3136780613274877,2.124203175957932,-0.03990465775132179,0.9388346672058105,1.180268353788492,1.5960874787881099,0.00857447274029255,0.09571204334497452,1.1798010699860288,1.6190519924367122,-0.3945551812648773,0.9931031465530396,0.011079847812652588,1.0713251487470374,1.6875572824736045,96.4611382482952,90.12787957376221,1.0,-0.0063164626868499035,-0.006012002393760461,-0.013017581112718182,-0.0518048146451695,133.1609545864188,1.2743789523265703,6,0.2
1.0665472052801368,1.0845275097535667,-0.16892537474632263,0.9999238848686218,1.0020353589761686,1.2367893048764627,0.05671725422143936,0.9999870657920837,0.9557365379197795,1.2672939531677148,-0.32160741090774536,0.9999974966049194,1.0923468402759753,1.6577765192321263,0.12675927579402924,0.9999919533729553,1.0543693179531537,1.7181175455715687,-0.12685136497020721,0.9999958276748657,1.3438560257474332,1.724315558871065,0.16474521160125732,0.21923120319843292,1.3569388410972056,1.7529647110150417,-0.1601349115371704,0.9606045484542847,1.2990240308987864,2.084527509753567,0.24985313415527344,0.38824889063835144,1.3165464762050298,2.127773182984437,-0.0369003526866436,0.9378119707107544,1.1800274540522286,1.5962275612554324,-0.00044188168249092996,0.09980439394712448,1.1832609021517049,1.6226486598724643,-0.40562763810157776,0.9928340315818787,0.012469351291656494,1.0733580791145645,1.6879470324018475,97.7240664757806,90.41893941122652,1.0,0.0005490428113187405,-0.020594390031046007,0.05247108663034794,-0.11117766930266763,135.70668986912725,1.258700613101064,7,0.23333333333333334
1.069522195641928,1.0892454755581515,-0.145781472325325,0.9999241232872009,0.9988795642264173,1.2399127710311189,0.07572848349809647,0.9999872446060181,0.9590285629634697,1.2720634530162787,-0.30531325936317444,0.9999974966049194,1.0945828746460315,1.6619854800118308,0.12673169374465942,0.9999920725822449,1.057446030565219,1.7220060791917369,-0.12682974338531494,0.9999958276748657,1.346529203353429,1.727790746359607,0.16187319159507751,0.22022315859794617,1.360076895029909,1.7570749661497724,-0.16011470556259155,0.9599775671958923,1.302082449485565,2.0892454755581515,0.24176213145256042,0.39167216420173645,1.3195456370204668,2.134169607710083,-0.05135882645845413,0.9383065700531006,1.1814340043158447,1.5983822050447893,0.005809293128550053,0.10198306292295456,1.185858669571863,1.6263447915083962,-0.3985444903373718,0.9925179481506348,0.013110637664794922,1.0760144526056252,1.6919957796017837,97.62767716507568,90.47518814695707,1.0,0.0005613151660143762,-0.00011316838024483391,8.478493279874275e-05,0.15895875566633358,135.477904601413,1.2533809884114582,8,0.26666666666666666
1.0696322424192082,1.089492582051088,-0.14597390592098236,0.9999226331710815,0.9995582691345293,1.240268685851772,0.07548074424266815,0.9999873638153076,0.9598783189043846,1.2737630146446104,-0.30794769525527954,0.9999974966049194,1.0973250603915778,1.6619133373911248,0.12628677487373352,0.9999920725822449,1.0588197442655423,1.7227325335330834,-0.12638063728809357,0.9999958276748657,1.3478939506636127,1.728187299151754,0.16382800042629242,0.2209201455116272,1.3608285265273972,1.7583251753395865,-0.15919947624206543,0.9590287804603577,1.3029092083299576,2.0894925820510877,0.253388375043869,0.3928740322589874,1.3202463221755767,2.1351076372568434,-0.04657860845327377,0.9383506774902344,1.1805214603252414,1.5980111654587377,0.011130220256745815,0.10308077931404114,1.1862704694470825,1.6252544284963426,-0.4005734920501709,0.9926037788391113,0.013651251792907715,1.07807240232856,1.692322935462104,97.71797658339061,90.57400294722741,1.0,0.011467867662902757,-0.004477597849483113,0.08439768569207559,-0.03377353038013305,134.60715109520822,1.2546374328596228,9,0.3
1.0684453328547487,1.0875400673948135,-0.1414855718612671,0.9999179244041443,0.997518036582062,1.2387902416961527,0.0794496014714241,0.9999872446060181,0.9593239657274445,1.2729080899268543,-0.3043818473815918,0.9999973773956299,1.0960654024642575,1.660111329342353,0.12626835703849792,0.9999918937683105,1.0577830213658928,1.7207257568111194,-0.12636476755142212,0.9999956488609314,1.3460278030449284,1.7263435738885382,0.16551479697227478,0.2197997123003006,1.3591508951802693,1.756360729742094,-0.15764835476875305,0.9570630788803101,1.301079715078576,2.0875400673948135,0.2520599663257599,0.3948490619659424,1.319113704077121,2.1319157822676975,-0.04318470135331154,0.9375407695770264,1.1796421733202116,1.5962649953021726,0.026267269626259804,0.10800524801015854,1.1848478028827707,1.6236925938676168,-0.3957890570163727,0.992423415184021,0.013920247554779053,1.0769242119150753,1.6904185430767362,97.74701170731977,90.65836806840052,1.0,2.5664470122737228e-05,-0.0007473719321456446,-0.08826339111329257,0.02876829211179492,134.55977973320597,1.2566880808632446,10,0.3333333333333333
1.0730968415900517,1.0946556249225383,-0.1338420957326889,0.9999167323112488,0.996245783542618,1.2435474450446902,0.08546121418476105,0.9999873042106628,0.96234122618828,1.278655840697269,-0.29961949586868286,0.9999973773956299,1.0989667219516122,1.6670723436822383,0.12634320557117462,0.9999918341636658,1.0616924434648585,1.72745100927824,-0.12644082307815552,0.9999955892562866,1.3504254184978017,1.7323028624086485,0.16396470367908478,0.2228894680738449,1.3633952095224673,1.7625000375626867,-0.1574058085680008,0.9562667608261108,1.3063834799230922,2.0946556249225385,0.25053656101226807,0.3978796601295471,1.3234494727628012,2.139894878714299,-0.0427117645740509,0.9370138049125671,1.1840153874354755,1.6007707203658437,0.042097777128219604,0.11210525780916214,1.1891529368633904,1.6308113415713252,-0.39038076996803284,0.9923797249794006,0.014275729656219482,1.0803295827082353,1.6972616764802393,97.61247889255374,90.58435677046378,1.0,-0.0020775968898021934,0.00844326212252624,-0.016436237058222784,0.07183844762165419,134.67807137298504,1.2526826802851085,11,0.36666666666666664
1.0740551272856407,1.095807636955162,-0.1198662742972374,0.9999109506607056,0.9983900931788556,1.243796855271356,0.09963642060756683,0.9999872446060181,0.9625175423760686,1.2788967827595694,-0.28728148341178894,0.9999973773956299,1.1001653820035437,1.6676356165052397,0.12639370560646057,0.9999917149543762,1.0632956566752008,1.727739830846885,-0.12649372220039368,0.9999955296516418,1.3508313196668666,1.7318895196312227,0.16055192053318024,0.21903353929519653,1.3640675981986345,1.7612782366916386,-0.15813767910003662,0.9538754820823669,1.3057537820530725,2.0958076369551617,0.24133475124835968,0.3905717730522156,1.3238238864572893,2.1403272788080767,-0.04636773467063904,0.9339693784713745,1.18989026901499,1.601403639342457,0.046795234084129333,0.11553862690925598,1.1895455612794243,1.6325361288822782,-0.37737584114074707,0.9925088882446289,0.014268815517425537,1.0817305193393723,1.6976877236760624,97.31612633290364,90.30223888116089,1.0,0.008209249921487069,9.517970923463268e-05,0.07420054098366584,-0.06022780328188534,134.97116668320584,1.2522870594709616,12,0.4
1.0771490980581222,1.0951120051427503,-0.12519313395023346,0.999911904335022,0.9994691463194133,1.243382597014188,0.09348523616790771,0.9999876618385315,0.9620289003398621,1.2789035463854932,-0.29211661219596863,0.9999974370002747,1.1008511322252224,1.6663768946796704,0.12562933564186096,0.9999918341636658,1.0631677035158373,1.7271892877054713,-0.12573502957820892,0.9999955296516418,1.3536783513354271,1.7283651839434022,0.15388742089271545,0.22307194769382477,1.3640340658107581,1.7601777066226836,-0.15866757929325104,0.9530694484710693,1.305301991833663,2.0951120051427505,0.23423989117145538,0.39068108797073364,1.3234468828598758,2.139694479524828,-0.04489736631512642,0.9332088828086853,1.1961792020718758,1.5991363568368684,0.04433339089155197,0.12780921161174774,1.1906187607926995,1.6324548827508174,-0.3785342276096344,0.9928317666053772,0.014443695545196533,1.08200941787053,1.696783091192571,96.26173780868834,90.15292703849117,1.0,0.0042285868962098055,-0.0035365050266869605,-0.030151392350702216,-0.02752252573441926,134.73664300397135,1.2521178037858525,13,0.43333333333333335
1.0832464422911496,1.0997936212253818,-0.14451511204242706,0.9999147057533264,1.013907464088668,1.243132326450172,0.07858003675937653,0.9999880790710449,0.9660517420545934,1.2823553126409974,-0.3050939440727234,0.9999974966049194,1.1094308503284473,1.667400190144095,0.1256336122751236,0.9999918341636658,1.066437892359519,1.7308516360369928,-0.12573577463626862,0.9999955296516418,1.3584670172280071,1.7337527218799553,0.1503288447856903,0.23324787616729736,1.365653911595484,1.7641697533371816,-0.16104790568351746,0.9533224701881409,1.308256458574313,2.099793621225382,0.22916173934936523,0.39933085441589355,1.325917880141637,2.144222283177772,-0.05279800295829773,0.9339836835861206,1.2026475897671272,1.6000177479575524,0.04122816398739815,0.1439162641763687,1.1947966161932189,1.63590476457731,-0.4070235788822174,0.9931836724281311,0.015912532806396484,1.087934371343983,1.6991259130905438,97.10851805800007,90.38497062602168,1.0,0.026815266247270115,-0.01206837170648463,0.17584284734462494,-0.06638803115711556,133.19101479589565,1.2461007625805895,14,0.4666666666666667
1.0950062871747916,1.111232925507602,-0.1468791514635086,0.9999173283576965,1.021614357298499,1.2505839885629952,0.07677442580461502,0.9999884366989136,0.9737166902597381,1.2899417397091162,-0.3088073134422302,0.9999975562095642,1.116532923327506,1.6773304393484396,0.1256713718175888,0.9999919533729553,1.0729386177379252,1.7410207208874986,-0.12577369809150696,0.9999955892562866,1.3662372616813416,1.7442524358876297,0.15536457300186157,0.2352529615163803,1.3733439308163202,1.774925571896421,-0.16185633838176727,0.9537222981452942,1.3162999117245926,2.111232925507602,0.23891082406044006,0.4004843831062317,1.33390089727573,2.157055584685085,-0.05273144692182541,0.9347441792488098,1.2102763068289102,1.6085653380275602,0.02545618638396263,0.15523631870746613,1.2033007390525008,1.6462852829117804,-0.4099809229373932,0.9932866096496582,0.015871822834014893,1.0947357705327156,1.709175580117969,97.25397696010968,90.54622635760957,1.0,0.002020739301690133,-0.0012384719053995371,-0.19149140544416637,0.08365715513232025,133.0695832438635,1.236970570819205,15,0.5
1.1063514991167887,1.1242843125991544,-0.16448482871055603,0.9999223351478577,1.0276706311716501,1.261598956282623,0.062429822981357574,0.9999889731407166,0.9826961236488317,1.299032836273715,-0.32687920331954956,0.9999976754188538,1.1231437784636251,1.687822318196234,0.12602704763412476,0.9999920129776001,1.0797235442815836,1.7516746808188675,-0.1261357069015503,0.9999955296516418,1.3727673494032793,1.7553421174836417,0.15710291266441345,0.2441352903842926,1.3809781838826867,1.7859081051316972,-0.1622641235589981,0.9546521902084351,1.3243625393503982,2.1242843125991544,0.2375154197216034,0.4106748104095459,1.3421412788512268,2.1698231383873616,-0.05512254685163498,0.9362389445304871,1.2241558556478487,1.617700958909763,0.025103619322180748,0.1857166886329651,1.2135814132644165,1.6569832805191222,-0.4378940165042877,0.9937191605567932,0.015002906322479248,1.1014336613726043,1.7197484995075507,97.66109888519857,90.70666339530106,1.0,-0.0007171775648832135,-0.00023393649140238156,-0.021053333126132792,0.007748024033703353,133.15818928402953,1.2249244423605723,16,0.5333333333333333
1.1109271552733384,1.1230871576296657,-0.16030433773994446,0.9999245405197144,1.0276980765288681,1.2621372423771178,0.06970803439617157,0.9999890923500061,0.9871412067787251,1.2992357109726604,-0.3214118182659149,0.9999977350234985,1.1208554896028546,1.6902722361277926,0.1269589364528656,0.9999920129776001,1.0787870894687346,1.7521225540088357,-0.12707315385341644,0.9999955296516418,1.3710975933032703,1.7547356376349497,0.16225461661815643,0.24504593014717102,1.3803753343708711,1.786021237291973,-0.16127285361289978,0.9547204375267029,1.3246938634038279,2.1230871576296657,0.24766603112220764,0.4122786819934845,1.3425259352194463,2.1675307029144375,-0.04215802997350693,0.9361830949783325,1.2276241140343387,1.6187947445571667,0.04210224375128746,0.19369666278362274,1.2190899399999346,1.6563970566140351,-0.4254615902900696,0.994071364402771,0.014864683151245117,1.0998212895357946,1.7211973950683142,97.2654478691107,90.74740848152668,1.0,-0.015449672665710235,0.008238530818558552,-0.12019832447669973,0.06912584776542807,133.502264686427,1.2352554339760426,17,0.5666666666666667
1.113732042180027,1.121457123335488,-0.1391834169626236,0.9999215006828308,1.021826567256306,1.2627449307197876,0.09058785438537598,0.9999887347221375,0.9887701000624982,1.2994247015875489,-0.3119674623012543,0.9999977350234985,1.113569032538895,1.6943943117737412,0.12796634435653687,0.9999919533729553,1.0757519851050963,1.75179213973903,-0.12810178101062775,0.9999955296516418,1.3680377117936027,1.752527429921464,0.16239312291145325,0.2483014464378357,1.3777606087834025,1.7831072358143703,-0.16123688220977783,0.9543478488922119,1.3238198042516602,2.121457123335488,0.24676263332366943,0.4174395203590393,1.3417803001696549,2.1655778048808045,-0.04143161699175835,0.9357386827468872,1.2277740479731503,1.6176962314965846,0.07309938967227936,0.19144290685653687,1.2222260709577326,1.654415844210058,-0.41227322816848755,0.9943451881408691,0.014706254005432129,1.0946605088219956,1.7230932257563856,96.03377694199666,90.54561769897485,1.0,-0.03366127933579012,0.022541588440633715,-0.13744301343778195,0.10792653815554831,134.62171561705668,1.245767522010895,18,0.6
1.120355018123311,1.1244771377874534,-0.15651975572109222,0.9999210238456726,1.0275102072880677,1.264467478766371,0.06707912683486938,0.999988853931427,0.9935854250549532,1.3015063728411895,-0.3196653723716736,0.9999977350234985,1.1134365136587663,1.6964090223469754,0.1269831657409668,0.9999918341636658,1.0754974053655475,1.7533484457635253,-0.12712210416793823,0.9999954104423523,1.3681966167240327,1.7543025939798054,0.15698985755443573,0.24921689927577972,1.3787193256896335,1.7833357485845487,-0.15828534960746765,0.9528425335884094,1.3248454363208355,2.124477137787453,0.23094531893730164,0.4201260209083557,1.3428346935611584,2.16644612001051,-0.040716446936130524,0.9342871308326721,1.233389295745478,1.619351994546194,0.06391046941280365,0.20014451444149017,1.2292656138551903,1.654153631997248,-0.41455355286598206,0.9946368336677551,0.01483827829360962,1.094466959512157,1.7248787340552505,96.12339646916546,90.29684719135535,1.0,-0.008523762071570637,0.003141124336534829,0.1993536716863555,-0.1538338862962297,135.07322691390996,1.2418217594317686,19,0.6333333333333333
1.1326966123543727,1.138030877778564,-0.15558640658855438,0.9999204874038696,1.040450210057037,1.2713380714784834,0.06958512961864471,0.9999887347221375,1.0084329489231463,1.3086389593533687,-0.32073739171028137,0.9999977946281433,1.1199210784528588,1.7130524983271282,0.12722037732601166,0.9999916553497314,1.082540904013441,1.7643645189332575,-0.12736134231090546,0.9999953508377075,1.3695268521902464,1.767014634953437,0.16352839767932892,0.249295175075531,1.385608261839541,1.793090340458004,-0.15829846262931824,0.9526463150978088,1.3284362161279943,2.138030877778564,0.23463833332061768,0.4275471270084381,1.3504451192612048,2.1784185561677245,-0.04250277206301689,0.9345337748527527,1.2440167441256509,1.628368014722767,0.05565308406949043,0.20167450606822968,1.2425279518799368,1.6618426526711418,-0.4230717718601227,0.9949577450752258,0.01486194133758545,1.10123099123315,1.738708508630193,95.87916129983249,90.20043815202438,1.0,0.005987088159008644,0.033850684752560735,0.11213204472914878,0.2364145599729172,133.72789003449603,1.2468117180050524,20,0.6666666666666666
1.157595783791757,1.166273381194625,-0.199894517660141,0.999921441078186,1.0782467919586178,1.2883260425627583,0.0381779745221138,0.9999890923500061,1.0269786936070058,1.3261041877152278,-0.34618043899536133,0.9999977946281433,1.1378106858584822,1.7364935035698132,0.12704674899578094,0.9999915361404419,1.0963395154610802,1.787930558906523,-0.1271751970052719,0.9999951720237732,1.3879841339612864,1.7936940462635909,0.14452651143074036,0.24694998562335968,1.4028570482161091,1.8170531642975167,-0.1682131290435791,0.9496700763702393,1.346188011300486,2.166273381194625,0.21799305081367493,0.42611992359161377,1.3687589666017748,2.205011450644663,-0.04764319956302643,0.9302135109901428,1.2714471715319684,1.6524622278051047,-0.012148486450314522,0.2191140502691269,1.2653292459235244,1.6824172628104301,-0.46291932463645935,0.9951050877571106,0.014853358268737793,1.1170751006597812,1.7622120312381682,96.47822117741553,90.40456761024517,1.0,0.008323215291895843,0.0017967250963138888,0.01692276574607646,-0.24383935496013737,133.55191978804092,1.226730496004445,21,0.7
1.1701521403254762,1.1673989962175964,-0.22283565998077393,0.9999234676361084,1.0786231182116544,1.2884293854140603,0.022019855678081512,0.9999895095825195,1.0415170123140682,1.325579142606579,-0.38229066133499146,0.9999978542327881,1.1394043200054416,1.7369336111630709,0.12968410551548004,0.9999914169311523,1.0978785015170913,1.7898502160852972,-0.1298159956932068,0.9999950528144836,1.3900136161674073,1.7918994735729747,0.14908333122730255,0.24979321658611298,1.404715524131347,1.8199310446187595,-0.1733991950750351,0.9505190253257751,1.3480452115060866,2.1673989962175964,0.22422602772712708,0.4253351092338562,1.370851532760183,2.2084116273081285,-0.04745554178953171,0.9288939237594604,1.2733361341016367,1.6543124139120549,-0.03956621140241623,0.23262755572795868,1.2718406786948886,1.6851147414142837,-0.5187128186225891,0.9954137802124023,0.014584004878997803,1.1186414107612663,1.763391913624184,95.99343470587347,90.6172109233853,1.0,-0.0010816652777112454,-0.011619959030244275,-0.07231741734183816,-0.1030473223779675,134.15958159848145,1.2257004225941115,22,0.7333333333333333
1.1927213946825375,1.1925669776288101,-0.20033398270606995,0.9999259114265442,1.0889185635956649,1.3022441868317285,0.030457234010100365,0.9999897480010986,1.065446556833888,1.3413318294187841,-0.35933077335357666,0.9999979138374329,1.1508088419051314,1.7553360887174374,0.12859055399894714,0.9999909400939941,1.1126609922624764,1.8082149411636455,-0.12871678173542023,0.999994695186615,1.4057535486921144,1.8132009986865332,0.14794084429740906,0.24832740426063538,1.421444472434136,1.8405086943331324,-0.16524191200733185,0.9483179450035095,1.3633464772207573,2.19256697762881,0.2185964584350586,0.41961365938186646,1.3866522359704616,2.2347343569570683,-0.047966230660676956,0.9246425032615662,1.2853382851271717,1.6692520383627274,-0.02115291729569435,0.23655769228935242,1.2919077704582045,1.7048155918509895,-0.48186764121055603,0.9955921769142151,0.015163183212280273,1.131734917083804,1.7817755149405414,96.40951922328446,90.92695623444246,1.0,-0.002374931792420559,-0.02145609319230883,-0.01004933496469848,-0.07611279242470212,136.41437134924894,1.1950436050937756,23,0.7666666666666667
1.2083871876703687,1.1851383469424008,-0.20303300023078918,0.9999197721481323,1.098133908936655,1.2954805236172964,0.026910478249192238,0.9999897480010986,1.0762213704218708,1.3343283879227439,-0.3604767322540283,0.9999978542327881,1.1469333655948888,1.7495045911460407,0.12736830115318298,0.9999908804893494,1.1106752568162745,1.801683777542282,-0.1274866759777069,0.9999945759773254,1.4011791802706295,1.8074158187799005,0.148307666182518,0.25529929995536804,1.4167566110665302,1.835374948698001,-0.15642908215522766,0.948550820350647,1.3583498214384162,2.185138346942401,0.22867414355278015,0.4244544506072998,1.381426379334636,2.226748862167609,-0.032724544405937195,0.924415111541748,1.2833075547170274,1.6673527862345252,-0.022135913372039795,0.23637352883815765,1.2944603029727595,1.6992869787870064,-0.47788214683532715,0.9956670999526978,0.015120208263397217,1.1288043112055817,1.7755941843441614,96.3626626782082,91.12316684217035,1.0,0.0064547290668941475,-0.0022523477948461377,0.06987009232871993,0.15153435847345056,139.0707385018215,1.2078243906601203,24,0.8
1.226268712246884,1.195020624405213,-0.19352826476097107,0.9999226331710815,1.1119078074481545,1.300606970941343,0.03654202073812485,0.9999897480010986,1.0944828370818043,1.3382410142010905,-0.35320696234703064,0.9999979138374329,1.1489535593434013,1.7621348834563522,0.12702932953834534,0.9999905824661255,1.1167882504692956,1.8089866444869112,-0.127144917845726,0.9999943375587463,1.4027040032716165,1.8154653059530197,0.14375422894954681,0.26485273241996765,1.4219385864710667,1.8389148626397702,-0.15691395103931427,0.9498537182807922,1.3592124136934367,2.1950206244052133,0.19848859310150146,0.44294825196266174,1.3863911211282156,2.235502419120507,-0.053152184933423996,0.926604688167572,1.2919564050962191,1.6725440968693643,-0.008809537626802921,0.24081046879291534,1.3073565247070074,1.7068353414519029,-0.4664267897605896,0.9959320425987244,0.01459050178527832,1.1328709049063483,1.7855607639716315,95.33227683951577,90.47955716409562,1.0,-0.0029755047007290953,0.024502825615803355,-0.07729787434419072,0.21879185189294628,140.9399350390184,1.2148322124337125,25,0.8333333333333334
1.2517618061274585,1.217573740720797,-0.18937775492668152,0.9999220967292786,1.1394697029807923,1.3161530505371661,0.04011189192533493,0.9999896287918091,1.121343583455494,1.3518009819843126,-0.35026732087135315,0.9999978542327881,1.161698524023753,1.78116790682099,0.1269717812538147,0.9999904632568359,1.1299157987192503,1.8287645911803885,-0.1270841658115387,0.999994158744812,1.4197299438225517,1.8343668708251308,0.1363448202610016,0.2674488127231598,1.434973789634275,1.8574098285005174,-0.16292022168636322,0.951626181602478,1.3741886513736534,2.217573740720797,0.19146062433719635,0.45147594809532166,1.4002352727416005,2.2602840509965363,-0.07226920127868652,0.9292160272598267,1.3163516886845965,1.69220521683149,0.00481583783403039,0.23984691500663757,1.3322142969884327,1.7294422534580796,-0.4606111943721771,0.9957448244094849,0.01367044448852539,1.1458071613715015,1.8049662490006892,94.87218676021087,90.43616223533998,1.0,0.0036163495589742016,-0.0013969838941193164,0.0477854443167148,-0.1887664309682784,143.53015756120584,1.2019395165458968,26,0.8666666666666667
1.292615991565251,1.2424062006292704,-0.1719600111246109,0.999921977519989,1.1731987142703624,1.3395499379839522,0.061537981033325195,0.9999896883964539,1.1493313862879946,1.3670055115061286,-0.33556056022644043,0.9999977946281433,1.1760157517457404,1.8028575685775707,0.12757006287574768,0.9999902248382568,1.1438069781781868,1.85077017747934,-0.12768103182315826,0.9999938607215881,1.4395635794690458,1.8594151343072651,0.14083348214626312,0.2766759693622589,1.448552012213456,1.880783490121252,-0.16489271819591522,0.9544568657875061,1.391691407264728,2.2424062006292704,0.1999739110469818,0.4640059769153595,1.416654538279785,2.289042929454641,-0.06799429655075073,0.9324496388435364,1.3412775447466672,1.7123308168700644,0.03527197614312172,0.2542644441127777,1.3520541606293524,1.7507522877808954,-0.4349815845489502,0.9958087205886841,0.010400831699371338,1.1599113649619635,1.8268138730284553,94.98725030498888,91.1572626932764,1.0,5.053297192989694e-05,-0.002703366241021621,-0.027123186900506652,-0.00968533424540012,145.7410563294432,1.1930736531906285,27,0.9
1.3217793245721428,1.250536084295583,-0.15464362502098083,0.9999144077301025,1.191707935502703,1.3490092830068772,0.07929511368274689,0.9999887943267822,1.1724065283699012,1.3720779698872267,-0.31864383816719055,0.9999975562095642,1.1811803194212258,1.8134206009632474,0.12832294404506683,0.9999890923500061,1.1510610613753351,1.8608354824814017,-0.12844069302082062,0.999993085861206,1.4470482366335986,1.8713952853684555,0.16487888991832733,0.2768905758857727,1.4564320744127313,1.89072191999752,-0.16514351963996887,0.9565370678901672,1.3955113878420708,2.2505360842955833,0.21993222832679749,0.47090959548950195,1.4224020008646943,2.301084869330664,-0.06336404383182526,0.9340613484382629,1.3483180970591144,1.7194626495846201,0.02587214484810829,0.25467216968536377,1.360048645572104,1.7600499741675184,-0.40851956605911255,0.9957534670829773,0.008693397045135498,1.1661206903982806,1.8371280417223246,94.56044745372373,90.84918744308563,1.0,0.0010170836286125513,0.0058404734470158025,0.007659387765768963,0.06783618366555422,148.8737463484329,1.2103682897694756,28,0.9333333333333333
1.3641666139200117,1.2682946404944033,-0.12189783900976181,0.9998946785926819,1.223537336589729,1.3669593192456686,0.09471987187862396,0.9999870657920837,1.209299580702102,1.3884026549745403,-0.2861770689487457,0.9999969005584717,1.1940483688560384,1.8347589067094785,0.1271771937608719,0.9999865889549255,1.1658677315542814,1.882896824421976,-0.1272936314344406,0.999991238117218,1.4631444117526322,1.891345998345342,0.18566776812076569,0.26044586300849915,1.4731941499145025,1.914829209265092,-0.15840137004852295,0.9545893669128418,1.415538468395578,2.2682946404944033,0.2513667941093445,0.4541775584220886,1.4384325705300132,2.331272306133637,-0.05743664503097534,0.9313070178031921,1.366385094219396,1.73973906849914,0.04341325908899307,0.25170522928237915,1.3790513332047143,1.7837034521438735,-0.3460235595703125,0.994952380657196,0.007986247539520264,1.1799580502051599,1.8588278655657273,94.6775210778635,91.1603987860269,1.0,0.00014555985071103956,-0.0005515622730168855,-0.006912944543452489,-0.05055164180020015,153.2616894799545,1.2238841579426125,29,0.9666666666666667
1.4081537583061972,1.306841168539033,-0.087232306599617,0.9998611807823181,1.2416883491632855,1.391354432610475,0.12393206357955933,0.9999825954437256,1.2608858342785723,1.4123644971146305,-0.2590945065021515,0.9999956488609314,1.190406792533,1.8739482412045985,0.12673616409301758,0.9999824166297913,1.1853099508313014,1.915131431948299,-0.12688308954238892,0.9999882578849792,1.4871170358287231,1.9186123527757462,0.17558543384075165,0.25312063097953796,1.4987042596999411,1.948147596447937,-0.1426810324192047,0.9559102058410645,1.442420202104067,2.3068411685390333,0.24826185405254364,0.44899725914001465,1.4629679237427307,2.372291173443286,-0.0361580029129982,0.9318190813064575,1.3979244224071865,1.7742715149176798,0.07398821413516998,0.2451072484254837,1.4127180917286617,1.8150276896979347,-0.28541919589042664,0.9943497180938721,0.007692396640777588,1.1878583716821507,1.8945398365764488,91.99296718275045,91.19784342097716,1.0,-0.09439836210225311,0.028098524636697722,-0.7184852989685443,0.21779237730870396,179.01055697885678,1.2119459295041952,30,1.0
1.430688961796786,1.297684516403507,-0.05788186937570572,0.9998217225074768,1.2565738480999382,1.390156590957924,0.14537599682807922,0.9999772906303406,1.2848600913231794,1.40637566673402,-0.24001026153564453,0.9999940395355225,1.1784729721109868,1.8745453556634775,0.12657853960990906,0.9999768733978271,1.182969508445534,1.907479213914218,-0.12673917412757874,0.9999845027923584,1.479390280760785,1.9114865276142916,0.1947992593050003,0.23838193714618683,1.4954561705231042,1.944574220285216,-0.13830511271953583,0.9558001160621643,1.43287603660935,2.297684516403507,0.2656872868537903,0.43429386615753174,1.4551817033328331,2.363056526206439,-0.028601771220564842,0.9313675165176392,1.397786713358412,1.7772161497611312,0.09371290355920792,0.23386737704277039,1.4152930379550364,1.809495928048286,-0.2905011475086212,0.9927307367324829,0.005963742733001709,1.1807212402782603,1.8910122847888478,90.13101324844503,91.27266948177885,1.0,-0.015169465981007905,0.033521816301675354,0.5791408260361922,0.04072701576636435,163.06603540564853,1.2569473413177379,31,1.0333333333333334
1.4729835865262053,1.3249224145721974,-0.055088452994823456,0.9997252225875854,1.285674431956895,1.41112118457378,0.15977780520915985,0.9999681711196899,1.3236256777606978,1.4191973481302822,-0.24071359634399414,0.9999929070472717,1.1794023724026925,1.9053214463747599,0.1281319111585617,0.9999725818634033,1.1938877118340832,1.924556498426209,-0.12830951809883118,0.9999825358390808,1.4874414454423852,1.9451639404932344,0.20298583805561066,0.22264006733894348,1.5091958718704621,1.9629832552878523,-0.1401578187942505,0.9573350548744202,1.446863193244046,2.3249224145721974,0.2887112498283386,0.41998204588890076,1.4699514061068084,2.384832718497699,-0.031664784997701645,0.9339520931243896,1.4086796716569157,1.810990161403044,0.13413992524147034,0.21711096167564392,1.4391055092298954,1.8261556435858965,-0.34413161873817444,0.9921544790267944,0.0029428601264953613,1.1866450421183878,1.9149389724004844,91.27078201278809,91.63349597961506,1.0,-0.03758850950316511,0.05276622034027319,-0.17431901840033534,0.14817733262354688,130.88170972835442,1.2682528566839104,32,1.0666666666666667
1.4656866936238957,1.29774599115477,-0.037013087421655655,0.9996826648712158,1.2921247761279584,1.3886933891348938,0.18281158804893494,0.9999598860740662,1.3314653915520598,1.397632169238971,-0.232639342546463,0.999992311000824,1.1633577964308963,1.872312549280832,0.13239650428295135,0.9999722838401794,1.1777442167630425,1.891693511989784,-0.13256703317165375,0.9999827742576599,1.4643011545300366,1.927031118998728,0.19868724048137665,0.21978303790092468,1.4884410938175008,1.935505852191881,-0.13349907100200653,0.9607111811637878,1.4237880236287148,2.2977459911547697,0.281657874584198,0.43207600712776184,1.4508355823184924,2.348797430964166,-0.03189772740006447,0.9393484592437744,1.357722363728084,1.7934688537091308,0.1521712690591812,0.2016201615333557,1.42379076089363,1.7982951348014413,-0.3558956980705261,0.9922797679901123,0.0033089518547058105,1.1705510065969695,1.882003030635308,94.06838967525925,92.82749300261916,1.0,0.01921886843064243,-0.023185571698373972,0.43752748373304723,-0.5846711640872518,128.50413093832682,1.2694372428835834,33,1.1
1.4473181656755456,1.2807793444337623,-0.013592446222901344,0.9996663331985474,1.2834558022305729,1.3774292093185914,0.2014579325914383,0.9999563694000244,1.3218115037270346,1.3849504450073755,-0.21202786266803741,0.9999917149543762,1.14657706638145,1.8532377066572898,0.13349385559558868,0.9999701380729675,1.1666348648513254,1.8673230922979087,-0.13366399705410004,0.9999818205833435,1.444647451350402,1.9212263715968734,0.200649231672287,0.2108694463968277,1.4753341823035342,1.921964726787839,-0.13148170709609985,0.9634643793106079,1.4092442133725251,2.2807793444337623,0.2846161723136902,0.42448756098747253,1.4354815087334274,2.327666654009757,-0.028746718540787697,0.9430692791938782,1.3439535442485033,1.7821110321561024,0.1967395842075348,0.19327819347381592,1.4153203277735464,1.7841874567045939,-0.33306676149368286,0.9922117590904236,0.0028099417686462402,1.1566059656163878,1.8602803994775994,97.22563300287779,94.42748159370267,1.0,-0.024555095300221978,-0.03416292409789165,-0.3320320974350253,-0.08521825839382544,109.02879757044052,1.2530310564438027,34,1.1333333333333333
1.4594173722447663,1.2666403623355715,0.00012279530346859246,0.9996336102485657,1.2880968684667475,1.3645536750682383,0.2037806212902069,0.9999554753303528,1.3394897065195732,1.3730315240803237,-0.20299844443798065,0.999991238117218,1.1368421676877385,1.8333593213798862,0.1346699297428131,0.9999707341194153,1.161078656802806,1.8340122908173109,-0.13484282791614532,0.9999822378158569,1.4055346632044052,1.9167529596326038,0.2420068234205246,0.21345774829387665,1.463554690341619,1.9048450047600824,-0.12734846770763397,0.9668514728546143,1.3858720439255972,2.2666403623355715,0.34373968839645386,0.45422306656837463,1.426932893908676,2.3071872499375337,-0.03976656123995781,0.9484033584594727,1.2914630057785186,1.8186617368449352,0.19843994081020355,0.18847350776195526,1.4087490630070436,1.7734937739387864,-0.330644816160202,0.991832435131073,0.003195345401763916,1.1489604122452723,1.8336858060985985,104.02621983663522,97.97900071640345,1.0,0.020904918670920345,-0.08622993102834217,0.37927803442129904,-0.4389782242142512,73.66157235567064,1.2402465418545914,35,1.1666666666666667
1.422997330619268,1.1755979766570754,0.035643987357616425,0.9995988607406616,1.259778658344316,1.3055266641272911,0.23490869998931885,0.9999535083770752,1.3089677255883287,1.3171495452883069,-0.1906711757183075,0.9999909996986389,1.0932053838204527,1.730973394094145,0.14095816016197205,0.9999717473983765,1.1175650960441152,1.7328263083768578,-0.14111697673797607,0.9999830722808838,1.3543162275667189,1.839013706100316,0.2630777955055237,0.20458868145942688,1.4078028262370232,1.8293800699902125,-0.13112810254096985,0.9698614478111267,1.3314402890212287,2.1755979766570754,0.3813263773918152,0.4640318751335144,1.3708157422868743,2.2177108242227286,-0.04930010810494423,0.9530866742134094,1.250083309030122,1.7503768452665518,0.24936649203300476,0.17640110850334167,1.3623072145544177,1.7078156850522421,-0.31335607171058655,0.9901111125946045,0.004563271999359131,1.1053852399322839,1.7318998512355013,108.59026742371599,102.96000294629857,1.0,0.018004470492866624,-0.21441188000528272,-0.015566500826903118,-0.9926685060302722,72.96819669331367,1.21847449108392,36,1.2
1.3605515041460814,1.0524324671695724,0.04407524690032005,0.9996076226234436,1.222839164949215,1.209557378878456,0.23092706501483917,0.9999530911445618,1.2691722269548302,1.2244697046650093,-0.18337859213352203,0.9999908804893494,1.0318857366947851,1.5985089389818583,0.1392601579427719,0.9999728202819824,1.063676471755099,1.6061934203254746,-0.13940660655498505,0.9999837875366211,1.2744986090373933,1.7369592743219018,0.23269808292388916,0.20506057143211365,1.331519033245068,1.728641305781382,-0.11005309969186783,0.972496747970581,1.2534219710258596,2.0524324671695724,0.33281365036964417,0.4819357097148895,1.2912144647244062,2.0887318125303937,-0.013506564311683178,0.9572059512138367,1.1826636242315787,1.641170463026815,0.22407396137714386,0.16795554757118225,1.3014560555249883,1.6104574139268393,-0.2412399798631668,0.9883862733840942,0.0062171220779418945,1.047781104224942,1.6023511796536665,115.88960161330345,108.1816797577149,1.0,0.050083218893350524,-0.20986711625189036,0.2430834146673125,-0.058354020923613414,77.44046849374632,1.2182882446831038,37,1.2333333333333334
1.3787604481588314,1.074916670593776,0.1386576145887375,0.999487042427063,1.2506661871256537,1.2000223050175738,0.28856009244918823,0.9999532699584961,1.3021352681502563,1.2186740266960558,-0.1369052231311798,0.9999908804893494,1.0450403788759486,1.5909634177473928,0.14462018013000488,0.9999731779098511,1.0827559518836103,1.6033137189880027,-0.14474228024482727,0.9999841451644897,1.290680492404585,1.7520757543736194,0.2621665596961975,0.19906264543533325,1.3484011942652832,1.7487732240334468,-0.14158987998962402,0.9749831557273865,1.2677787469466122,2.074916670593776,0.36354225873947144,0.49020904302597046,1.3057258989442484,2.1203438817900566,-0.05871117115020752,0.9607643485069275,1.197379023106726,1.6294906736693533,0.4005211293697357,0.15848445892333984,1.3217285564649424,1.6294345858740285,-0.24269512295722961,0.9854623675346375,0.007690638303756714,1.0638981653797794,1.5971385683676977,119.20271647603684,112.15203803187785,1.0,0.03281933609430117,-0.1689990482414199,-0.13081229286974239,0.31711622131110456,80.38818421938315,1.1130401404712362,38,1.2666666666666666
1.3553164371174706,0.99923806742748,0.07031397521495819,0.9994593858718872,1.2193777188429797,1.1386194141227526,0.26727205514907837,0.9999498724937439,1.262899268376155,1.156864278966795,-0.17927901446819305,0.9999900460243225,1.0166018824290255,1.5191929616879154,0.15102723240852356,0.9999735951423645,1.052363603585806,1.5295766439872494,-0.15110084414482117,0.999984622001648,1.2442585998315223,1.6861762875688728,0.2741928994655609,0.1900542676448822,1.3018327828977694,1.68818289112382,-0.15486475825309753,0.9772189855575562,1.222208669633546,1.9992380674274801,0.3977991044521332,0.4926551580429077,1.2577985414891373,2.045818910681622,-0.07177762687206268,0.9641962647438049,1.1540985988674386,1.5493037177614508,0.27311235666275024,0.14907357096672058,1.2794763521220742,1.5709671785946127,-0.24215349555015564,0.9834780097007751,0.0078057050704956055,1.0344827430074157,1.5243848028375824,122.23070699617453,115.42791371700439,1.0,0.06791044942418341,-0.11067617045494771,0.26977036403626353,0.38814161918976514,78.14162505113727,1.141998727996962,39,1.3
1.3484179958415008,0.9764526228137708,0.06848327815532684,0.999460756778717,1.2178920443492411,1.1047431606026021,0.2641345262527466,0.9999470710754395,1.2513453400396892,1.1287224518722339,-0.1794702112674713,0.9999880790710449,1.018155546383026,1.4751023229951334,0.1482483446598053,0.9999738335609436,1.0523521200575114,1.4847209876352712,-0.1483389288187027,0.999984622001648,1.2326158370150506,1.6659372576941327,0.2589181065559387,0.1791999340057373,1.2888555971380973,1.6691404482648213,-0.14039446413516998,0.9785342216491699,1.2135067731292402,1.9764526228137709,0.3631244897842407,0.47523215413093567,1.2437909078434495,2.022659576754508,-0.06435811519622803,0.9663230776786804,1.1820628767709855,1.532037416572385,0.23353023827075958,0.14563636481761932,1.272983615645788,1.5541184902212448,-0.15990856289863586,0.975146472454071,0.010374248027801514,1.0352538332202688,1.4799116553152023,128.14237393379773,120.6816359170061,1.0,0.09587263103642683,-0.21548677329291366,0.22462117094812073,-0.8294523919040347,77.37180060348537,1.0693325036186627,40,1.3333333333333333
1.3070695010014952,0.914955423326415,0.04103104770183563,0.9994169473648071,1.1854670125149585,1.0491333305958417,0.2391100376844406,0.9999398589134216,1.2177657695515562,1.0706196178959426,-0.19030334055423737,0.9999844431877136,0.995929292191323,1.4024146009270497,0.1465102583169937,0.9999737739562988,1.0273491411031166,1.4160947708932827,-0.14661207795143127,0.9999842047691345,1.1930972815641672,1.6116572614276055,0.2102627456188202,0.1782768964767456,1.2480780675726697,1.6149026555090775,-0.11992375552654266,0.9797508716583252,1.173226958675253,1.914955423326415,0.30336645245552063,0.48019036650657654,1.2052105486573137,1.9565554747343745,-0.027712885290384293,0.9686301350593567,1.1381980870266362,1.4745378616421962,0.1828773319721222,0.14112605154514313,1.238118308699464,1.5036346867207482,-0.1780761331319809,0.9653657078742981,0.009606122970581055,1.01163921664722,1.4092546859101662,132.9534587193491,124.85739661907296,1.0,0.07300317601723039,-0.16937850478550723,-0.1466721639293045,0.29039271098332836,85.31440953458349,1.036377248612991,41,1.3666666666666667
1.2926034669991553,0.891954709191993,0.04058211296796799,0.9994149208068848,1.177636454305542,1.0255377245080821,0.23340018093585968,0.9999382495880127,1.199169093692257,1.0359377887555832,-0.19978180527687073,0.9999838471412659,1.000454516896383,1.3654896808366055,0.1455174833536148,0.9999739527702332,1.018369488325435,1.3786717223456437,-0.14562338590621948,0.9999844431877136,1.1936767735556866,1.592589481863882,0.17657218873500824,0.16953197121620178,1.231119607343668,1.6032114812703024,-0.12469875812530518,0.9807142019271851,1.1606583160687889,1.891954709191993,0.27025800943374634,0.46615704894065857,1.1849022841248473,1.9335010760930684,-0.04626930505037308,0.9705962538719177,1.1574224133874547,1.4533133072505302,0.17152030766010284,0.14032086730003357,1.2256396424957787,1.481436704513282,-0.2154296189546585,0.9649704694747925,0.0047161877155303955,1.009412002610909,1.3720807015911245,133.3140300639339,128.57870026314404,1.0,0.09245854900943645,-0.13285453070508096,0.15731499209694388,0.2621438246953994,98.81767095144092,0.9869478392152585,42,1.4
1.2695992610151403,0.8517900325828306,0.03236737102270126,0.9994110465049744,1.1573682227103572,0.9857611915815157,0.2296656370162964,0.9999393820762634,1.1771636565782158,0.9926011956509063,-0.19995227456092834,0.9999843835830688,0.992120419946174,1.3245963420197902,0.1451077163219452,0.9999746084213257,0.9991050690781651,1.336814436363292,-0.14524200558662415,0.9999850392341614,1.1895354805962675,1.5558939126077083,0.160540372133255,0.16470178961753845,1.2096074474746743,1.5712240986277017,-0.14895467460155487,0.9821575284004211,1.1468591951510594,1.8517900325828305,0.26421457529067993,0.4600054621696472,1.1596008466342898,1.895075051458528,-0.0537346713244915,0.9728211760520935,1.1698591131318323,1.4259206915954004,0.1796838939189911,0.1414996236562729,1.2016644039969457,1.4487594060364735,-0.20363879203796387,0.9666465520858765,0.0031638741493225098,0.9956127445121695,1.330705389191541,131.31185371620646,129.29796966471469,1.0,0.047759461303078975,-0.11480609215465767,-0.34076286224545865,0.12269620218381418,124.24673061307121,0.9762842861202936,43,1.4333333333333333
1.231495724702995,0.7966599236286394,0.031084412708878517,0.9993472099304199,1.129603308179428,0.9376284716293818,0.23415985703468323,0.9999396800994873,1.1455377757777412,0.9470613893625882,-0.20108425617218018,0.9999847412109375,0.9626056789438223,1.2767456215005655,0.14471086859703064,0.9999750256538391,0.9718027143411146,1.2902923821884016,-0.14482393860816956,0.9999855756759644,1.157775148804993,1.5095775543046712,0.16606955230236053,0.15933163464069366,1.1771180004980224,1.5269204388824367,-0.14866921305656433,0.9833956360816956,1.1135781887425045,1.7966599236286394,0.27640631794929504,0.45436933636665344,1.1249394273792184,1.8424148449450315,-0.02862483263015747,0.974734902381897,1.1361057333036662,1.3784857429352677,0.20844611525535583,0.14166352152824402,1.1686197344801394,1.3931959730827808,-0.21253255009651184,0.9686763286590576,0.004496634006500244,0.9672041966424685,1.2835190018444835,131.2767557670917,129.66182209042944,1.0,0.008521199873852981,-0.058290433328332114,-0.2859450901065136,0.4015315100610894,119.6091555493576,0.9942547069324947,44,1.4666666666666666
1.2225490286851122,0.7901812198556457,0.04313450679183006,0.9993339776992798,1.1176597097343013,0.9259460131575832,0.23663964867591858,0.9999392628669739,1.140377112135988,0.93868322134414,-0.19452014565467834,0.9999849796295166,0.9555120177237323,1.270444689675297,0.1426992416381836,0.9999748468399048,0.9704513945483478,1.2794130632427363,-0.14278893172740936,0.9999858140945435,1.1499809262207328,1.502509107659693,0.17240262031555176,0.15570825338363647,1.1711286799360185,1.5175482808338874,-0.10876338183879852,0.9844115972518921,1.1066003354424996,1.7901812198556457,0.29781535267829895,0.45657840371131897,1.1208265971315199,1.8339842362779863,0.009135998785495758,0.9765511751174927,1.114924693214774,1.3698699409977386,0.22512471675872803,0.14303384721279144,1.1636197192367033,1.3799598117738938,-0.19123229384422302,0.9703229069709778,0.006108790636062622,0.9629817061360401,1.2749288764590168,131.4616306656331,130.84663845428398,1.0,0.01317942928436331,-0.006541092669992041,0.037895005526825,0.41352749460105503,95.7718432850818,0.9855975299898112,45,1.5
1.2078175387224355,0.7723941050990776,0.021128712221980095,0.9992451667785645,1.1155271134648264,0.9110041203332777,0.22984997928142548,0.9999378323554993,1.1257416799662432,0.9147104226576227,-0.2086169421672821,0.999984860420227,0.9570823971384167,1.250429904393639,0.14141547679901123,0.9999749660491943,0.9660856649465573,1.2582991969852448,-0.1414833962917328,0.9999861121177673,1.1341727663395784,1.4861582064149597,0.16798320412635803,0.14755988121032715,1.159297733186677,1.5010702048611144,-0.11001612991094589,0.9847024083137512,1.0920786769449113,1.7723941050990777,0.26647287607192993,0.44496840238571167,1.1084967006908404,1.8145496598965598,-0.014278094284236431,0.9777464866638184,1.122622064911768,1.3509467362332095,0.1936662644147873,0.1408938318490982,1.1543278865766629,1.352989846222782,-0.24864664673805237,0.9716314077377319,0.0017970502376556396,0.961584031042487,1.254364550689442,134.7183748980642,132.28000769536195,1.0,0.06642493903610466,-0.04938496375727207,0.39177924218828614,-0.3149206335437499,106.13176148130589,0.9722638121917704,46,1.5333333333333334
1.1738382531115927,0.7267033018613716,-0.0019643951673060656,0.9990902543067932,1.0920787326777972,0.8730522103978147,0.2167835235595703,0.9999370574951172,1.0979196061915393,0.8737986101773537,-0.23298433423042297,0.9999849796295166,0.9443683084564379,1.208436649446099,0.1415858268737793,0.9999752640724182,0.9480868192848697,1.2162753158321338,-0.14164182543754578,0.9999865889549255,1.1082991850388657,1.447074284912024,0.17582543194293976,0.13801229000091553,1.1325690773483224,1.4635784063564414,-0.14050006866455078,0.9850701689720154,1.0622659033178792,1.7267033018613716,0.27757528424263,0.4263741970062256,1.0811078368739715,1.769261817152256,-0.05319958180189133,0.9787704348564148,1.1093743939735545,1.308479157845719,0.18483586609363556,0.1374770700931549,1.1325688375604244,1.3072370565340135,-0.31740567088127136,0.973258912563324,0.00037106871604919434,0.9462275638706539,1.2123559826391164,136.164745804373,133.72189645209568,1.0,0.06553981508345791,-0.08600727963306033,0.005898400512557712,-0.29531901688077933,130.85153625759236,0.9749488703576052,47,1.5666666666666667
1.158956110112614,0.6880324873010304,-0.04879414662718773,0.9990708231925964,1.0718138911990305,0.8234226591123172,0.18263660371303558,0.9999385476112366,1.0821090630627594,0.8219041919710152,-0.26377052068710327,0.9999854564666748,0.9497750347031907,1.1671961365764854,0.14157459139823914,0.9999746680259705,0.9422305451479701,1.1773283251219047,-0.14163634181022644,0.9999866485595703,1.1070907642668444,1.407698469312056,0.1677122712135315,0.13476073741912842,1.1180047542104319,1.4373007416978383,-0.1752435564994812,0.9861054420471191,1.0456815254107257,1.6880324873010304,0.26837077736854553,0.4154946804046631,1.0525650074226351,1.7382507942048648,-0.09530124068260193,0.980261504650116,1.1093775981727012,1.2577607694792465,0.14125564694404602,0.1420467495918274,1.1193063816513074,1.260331616253597,-0.3326198160648346,0.9754844903945923,0.0007680058479309082,0.9460027899255804,1.172262230849195,134.45488060716275,133.66868691981932,1.0,0.11882474610784445,-0.1447684032800496,0.40593490628359047,-0.44940234449703753,162.87315951414672,0.9607055085663144,48,1.6
1.1330071780119002,0.6543234444570593,-0.12970229983329773,0.9991114735603333,1.0522583844050648,0.7953864679536169,0.12234938144683838,0.9999406337738037,1.0586636070788926,0.7883379279893493,-0.31993764638900757,0.9999863505363464,0.943692470311831,1.1356630274003503,0.14111623167991638,0.9999745488166809,0.9360829045417624,1.1446457926182978,-0.14111807942390442,0.9999870657920837,1.0792628115136933,1.380710668106373,0.1701822578907013,0.1292843371629715,1.0986504543009687,1.4086330639446991,-0.1649506688117981,0.9865415096282959,1.0218879179584506,1.6543234444570594,0.2917160093784332,0.40172019600868225,1.031873311075556,1.7000344296022047,-0.0781208798289299,0.9811434149742126,1.083830595269458,1.2162597116945266,0.06732451915740967,0.13792334496974945,1.0953778518908042,1.221146266674998,-0.40997353196144104,0.9776686429977417,0.003637552261352539,0.9398876874267966,1.1401544100093242,139.20387035416357,135.46760719009524,1.0,0.09725255332098925,-0.06650795631061963,-0.14639731680476306,0.5746497885251547,157.42646592321702,0.9609943191729937,49,1.6333333333333333
1.1102280787296301,0.6233365363233347,-0.13616742193698883,0.9991880059242249,1.035746433811787,0.7666339000562846,0.11893506348133087,0.9999445080757141,1.0369036357903418,0.7576930130161987,-0.32072892785072327,0.9999874234199524,0.9352868512160142,1.103349924050828,0.14052610099315643,0.9999741315841675,0.9268430169944348,1.1078758191935945,-0.1404932588338852,0.9999872446060181,1.0584136517644893,1.3536918143317596,0.17136093974113464,0.12777630984783173,1.0809405547270396,1.382210552729988,-0.16334766149520874,0.9867122173309326,1.0001840642520248,1.6233365363233347,0.27530205249786377,0.3956637382507324,1.0130424936807252,1.6638883618576255,-0.08921994268894196,0.9819256067276001,1.0659874877111044,1.1786114618985866,0.06744495779275894,0.1511773020029068,1.074173019943543,1.185816149280642,-0.42569732666015625,0.9797714948654175,0.004701942205429077,0.9310649341052245,1.1056128716222113,141.6245873256595,137.12395591135407,1.0,0.06734393745292938,-0.10223304957559394,-0.2167450167219413,-0.28521533509793273,134.80383688191606,0.9469890561892905,50,1.6666666666666667
1.1091394635108096,0.6254101629255056,-0.08536988496780396,0.999247133731842,1.0331988627418085,0.758864156173106,0.1388384848833084,0.9999476671218872,1.0369756478408974,0.7485769232209966,-0.2997141480445862,0.9999883770942688,0.9426137981833246,1.1072083902929177,0.14052316546440125,0.9999735355377197,0.9374976800900017,1.105457120741681,-0.1404903531074524,0.9999875426292419,1.058105302970881,1.3559227202932616,0.16564778983592987,0.12248261272907257,1.085016145438464,1.383819304579806,-0.18291214108467102,0.9870492815971375,1.0018585387841845,1.6254101629255056,0.260901540517807,0.38239091634750366,1.014865245438248,1.6663874639612268,-0.14259138703346252,0.9828806519508362,1.056902979462539,1.1595961863914732,0.13209043443202972,0.16337381303310394,1.073849588557222,1.1703443365080108,-0.38544589281082153,0.981665313243866,0.0054017603397369385,0.9400557391366632,1.1063327555172993,143.30262388249952,138.1361025673071,1.0,0.05929527851898351,-0.007526089568060157,-0.06380537424931716,0.7425690497253552,85.6803148236235,0.9373124008313876,51,1.7
1.0810095636851595,0.586987959968914,-0.08710106462240219,0.999318540096283,1.0099661522518841,0.7255797612626309,0.15203113853931427,0.9999520778656006,1.0102893656483267,0.7129419514274465,-0.2800633907318115,0.9999894499778748,0.9285365218408685,1.0736704057955262,0.13969525694847107,0.9999747276306152,0.9217369753579672,1.0709545277492536,-0.1396450698375702,0.9999883770942688,1.0209446708475574,1.322306185142168,0.17323754727840424,0.1300085335969925,1.0577724022027657,1.343475334334926,-0.18683530390262604,0.9880742430686951,0.9758048207278079,1.586987959968914,0.27695432305336,0.40329641103744507,0.9899506092295799,1.6249668623251508,-0.1327764242887497,0.9843755960464478,1.035962692761647,1.1163282648233468,0.13048461079597473,0.1841486692428589,1.0461922860695358,1.1250082048606203,-0.3986360728740692,0.9834340810775757,0.0068052709102630615,0.9251367485994179,1.07231246677239,149.93354992912938,139.9263032879164,1.0,0.06514206375040697,-0.05011301734915828,0.05638203252409112,-0.32940392480163483,81.39378294615304,0.9496255001146381,52,1.7333333333333334
1.0564434431755079,0.5594726532434658,-0.1501139998435974,0.9993835091590881,0.986824880000039,0.6932291145040919,0.10380411148071289,0.9999557137489319,0.9856619031363745,0.6868497854736756,-0.3231946527957916,0.9999904036521912,0.9172484121069712,1.0374673443682492,0.1363341510295868,0.9999757409095764,0.9049208789949464,1.0400206559061818,-0.13627274334430695,0.9999891519546509,0.9977587238008945,1.292932791851652,0.17025621235370636,0.13029469549655914,1.0333044564024625,1.310702844586003,-0.17408989369869232,0.9883852005004883,0.954800109361163,1.559472653243466,0.2750360369682312,0.40318551659584045,0.9648872860938775,1.5902077283150995,-0.10749349743127823,0.9852367043495178,1.0117180172299562,1.074868840460557,0.059498973190784454,0.18157818913459778,1.0236972091747587,1.094393260079967,-0.4362014830112457,0.9850380420684814,0.0035137534141540527,0.9110846455509588,1.0387440001372155,153.35196934994966,140.8707826793746,1.0,0.05115465178175844,-0.07389236927857644,-0.0965741954620811,-0.19190657557154814,113.12831821508232,0.9303723963258798,53,1.7666666666666666
1.039259368631107,0.5368830893429039,-0.12708640098571777,0.9994407296180725,0.971445534370284,0.6703253269168306,0.12206754833459854,0.9999583959579468,0.9710524716340881,0.6655380298336004,-0.3005342185497284,0.999991238117218,0.9089987193710826,1.0198994013397324,0.13293305039405823,0.9999756217002869,0.8992035276820275,1.026462150956048,-0.13289575278759003,0.9999895691871643,0.9856886423385771,1.2731786550178652,0.16611415147781372,0.13196977972984314,1.018312742719308,1.2923812051124197,-0.15253707766532898,0.9884215593338013,0.9441230317314114,1.5368830893429037,0.27358895540237427,0.4092206358909607,0.9472461889163245,1.5682531883252364,-0.07967227697372437,0.9859611988067627,0.9948307927887555,1.0711517725363129,0.08985824882984161,0.18278640508651733,1.0101595991592534,1.065240570029548,-0.4253746569156647,0.9865050911903381,0.0026736855506896973,0.904101123526555,1.0231807761478902,154.19693917338697,141.42594754518834,1.0,0.04142155216240239,-0.009341660608284714,-0.06718889068792373,0.47280428258479135,133.95027359526412,0.9504933248407869,54,1.8
1.0235569022153246,0.515080403186171,-0.129969522356987,0.9994931817054749,0.9575896971679767,0.6561852931467326,0.12035007774829865,0.999961256980896,0.9569937278920995,0.6505256390027236,-0.3010246157646179,0.9999919533729553,0.9073882915737023,1.0022941341160494,0.13295456767082214,0.9999764561653137,0.8971726535000081,1.0092269905616078,-0.13291862607002258,0.9999900460243225,0.9821626332530632,1.253799909793551,0.15363600850105286,0.13630841672420502,1.002775923346849,1.2744680779348327,-0.15087953209877014,0.9880800247192383,0.9391719503026087,1.5150804031861709,0.2520134747028351,0.41261526942253113,0.9356010852581554,1.5478879956957072,-0.08231913298368454,0.9861763119697571,0.9886590986222766,1.0361477801566457,0.0886494368314743,0.1946147084236145,0.9978342657685908,1.0465332136479282,-0.4430775046348572,0.987748384475708,0.0032026469707489014,0.9022804725368552,1.0057605623388286,154.09879758876406,144.48723212837388,1.0,0.07546384438343724,-0.030899197394820496,0.26185344185959725,-0.16415344902334764,132.41574971229446,0.9592882024935416,55,1.8333333333333333
1.027131311754339,0.5199140747582811,-0.1269061416387558,0.9995414614677429,0.9610079633244062,0.6561913198775147,0.12023936212062836,0.9999638199806213,0.9597044056621528,0.6496295896379116,-0.29621922969818115,0.9999926686286926,0.9165205416881728,1.0058687062771865,0.13138772547245026,0.999976634979248,0.9062208921078657,1.0135071988353221,-0.13137976825237274,0.9999904632568359,0.9853669148372115,1.262556723292178,0.17337216436862946,0.14187079668045044,1.006505361893507,1.2798198201151765,-0.13344193994998932,0.9878289699554443,0.9460392591253399,1.519914074758281,0.2883092761039734,0.4218332767486572,0.9400063654985957,1.5563286608768725,-0.059821389615535736,0.9865534901618958,0.9930974157651477,1.05800741703793,0.09389768540859222,0.19835315644741058,1.0024620699461375,1.054051374406751,-0.46095481514930725,0.9889538288116455,0.003698199987411499,0.9113707168980193,1.0096879525562543,156.2976922066027,145.84274852508406,1.0,0.03995263503792487,-0.0009298067790644336,-0.2624057243951585,0.22048677243622203,133.81206715596068,0.9506708012596239,56,1.8666666666666667
1.0222088608544295,0.5192414259490203,-0.10517705976963043,0.9995869994163513,0.9564500512424418,0.644928065161034,0.12784641981124878,0.9999668598175049,0.9557829804953373,0.6433797532884,-0.2703971266746521,0.9999933838844299,0.9210094222290578,0.9985661412001273,0.12969103455543518,0.9999778866767883,0.9091705273672244,1.0060255027009235,-0.1297232061624527,0.9999911189079285,0.9890395469961112,1.257099101044264,0.17523273825645447,0.16082550585269928,1.0006067544531065,1.2807143561864132,-0.12696829438209534,0.987953245639801,0.9480218262590736,1.5192414259490203,0.2875252366065979,0.436967134475708,0.9404627474526137,1.5568069631411459,-0.06240839883685112,0.9869986772537231,0.9983683967126247,1.058763915264797,0.10017570108175278,0.21905288100242615,1.0008990402420594,1.0408777573577956,-0.4442234933376312,0.9900404214859009,0.0008736550807952881,0.9150899747981411,1.0022958219505254,156.364415658522,149.29952545998088,1.0,0.0374361486529228,-0.048541203957005966,-0.019309840227581677,-0.37227690844317857,127.93681539857288,0.9222141286760339,57,1.9
1.0152650900690665,0.5130486829590722,-0.13139264285564423,0.9996280074119568,0.9515594423883419,0.6333337327806664,0.12459768354892731,0.9999693632125854,0.9463615814077869,0.6312940811155597,-0.2901723384857178,0.9999939799308777,0.9247371846783776,0.9887446253310157,0.13023200631141663,0.9999785423278809,0.9118795006151489,0.9972521177015716,-0.13025708496570587,0.9999915957450867,0.9880709258684616,1.2459301572645174,0.18267697095870972,0.18351224064826965,0.9943216459248383,1.2744900108733768,-0.12312022596597672,0.9882562160491943,0.9458081366160336,1.5130486829590721,0.3021606206893921,0.4599400758743286,0.9415734692967961,1.5491690234059319,-0.058343399316072464,0.9875125885009766,1.0679294878748813,0.9580048404607352,0.08117407560348511,0.26644366979599,0.9957424170179701,1.029543019636831,-0.4788047671318054,0.9910297989845276,0.001156538724899292,0.9183083426467633,0.9929983715162937,157.17511446521613,152.568619835232,1.0,0.060045479756781435,-0.03448482159107412,0.1781974141865114,0.1080490314546189,127.807085647392,0.9089205465821479,58,1.9333333333333333
1.0052113450494675,0.5026955134009334,-0.1503714919090271,0.9996618628501892,0.9429693145642292,0.6219849863941448,0.09592751413583755,0.9999704360961914,0.936303340801628,0.620376620679031,-0.3087112307548523,0.9999944567680359,0.9236241360515567,0.9793107581290985,0.13006718456745148,0.9999784827232361,0.9116107247559014,0.9865596274312959,-0.13008533418178558,0.999991774559021,0.9803129458927712,1.236481493014415,0.21704189479351044,0.17447197437286377,0.9837946583152064,1.2658020887455588,-0.09697388112545013,0.9824438691139221,0.9389947040865487,1.5026955134009334,0.3461015820503235,0.43700769543647766,0.9365709319296928,1.5381305089853665,-0.017574656754732132,0.9811573624610901,1.056447894301609,0.9959745962785413,0.09000977873802185,0.250933438539505,0.989468884857563,1.021852422814237,-0.4432776868343353,0.9918230772018433,0.0009182095527648926,0.917617430403729,0.9829351927801971,158.7466358816108,155.66868529561614,1.0,0.045004652643049654,-0.0271296119142358,-0.11906049129760647,0.05794017009820339,124.20559835399048,0.9076056727543674,59,1.9666666666666666
1.0024103297553537,0.5030445077403486,-0.1405278742313385,0.9996867179870605,0.9331944814398251,0.6121002941916677,0.1131097823381424,0.9999699592590332,0.9305625007850028,0.6119770911052949,-0.31216299533843994,0.9999948740005493,0.9294463767165763,0.970498541497473,0.1325853317975998,0.9999778270721436,0.9184928718623798,0.9727479880347081,-0.1326276808977127,0.999991774559021,0.978353519999212,1.232064739365278,0.20256996154785156,0.16413867473602295,0.9749583472983476,1.2591099014787028,-0.11484725773334503,0.9713991284370422,0.9370570337001614,1.5030445077403485,0.33473241329193115,0.4101733863353729,0.9358883763360225,1.5355469828768036,-0.05356748029589653,0.9692479968070984,0.9935552382132197,1.0004157322419611,0.11747719347476959,0.23234695196151733,0.9877622958009168,1.0105786318422338,-0.43331748247146606,0.9925158023834229,7.045269012451172e-05,0.923969624289478,0.9716232647660905,160.74420570957872,160.80082672255602,1.0,0.05909739544433852,-0.07273311857172801,0.10638298803235022,-0.3427787757058238,102.2042675609137,0.8672585795013319,60,2.0
0.9854012544284466,0.4884747505091051,-0.1383388340473175,0.9997128248214722,0.9043629747945281,0.5966095154877853,0.10493805259466171,0.999968409538269,0.9209072163758147,0.5987833021351592,-0.3193264603614807,0.999995231628418,0.910871293975457,0.9539020947070591,0.13348223268985748,0.9999753832817078,0.9143961137913111,0.9574176365109974,-0.13356426358222961,0.9999915361404419,0.9665711168891362,1.2123847232791711,0.2141062468290329,0.15591728687286377,0.9608720465253123,1.23990062630704,-0.07698624581098557,0.962663471698761,0.9262723813996891,1.4884747505091052,0.33035773038864136,0.3867407441139221,0.9255812726009793,1.5176212125866746,0.0016589777078479528,0.9592143297195435,0.9486076487517878,0.9882200175375043,0.11658322811126709,0.2144755721092224,0.9768099184833873,0.9943250524671574,-0.3849385678768158,0.9932091236114502,0.0012568533420562744,0.912633703883384,0.9556598656090283,159.5350346230716,163.41509805770804,1.0,-0.00891506694050355,-0.03947180135302792,-0.5014929283238854,0.24167336863415836,135.9680587206855,0.8635140805160968,61,2.033333333333333
0.9852781551294797,0.48812230160261005,-0.15203972160816193,0.9997363090515137,0.9041810522681097,0.5904654181775076,0.10081209242343903,0.9999675154685974,0.9205505897494252,0.5964359676727191,-0.33525243401527405,0.9999955296516418,0.9149225996473522,0.9517634038559951,0.13851311802864075,0.999973475933075,0.9185368464834148,0.9572081104847233,-0.13861426711082458,0.9999911785125732,0.9648640934974948,1.21185607611045,0.2249450385570526,0.14763633906841278,0.9609717720734224,1.240042699370083,-0.08155472576618195,0.9527856707572937,0.9249409259295208,1.48812230160261,0.34439316391944885,0.36372679471969604,0.9265306906369095,1.5195448333060042,-5.6414333812426776e-05,0.946548342704773,0.9454191109626028,0.9849440112873707,0.11396845430135727,0.19984276592731476,0.9783058452868577,0.9928484337575322,-0.39261069893836975,0.9937841296195984,0.003446429967880249,0.9167297230653836,0.9544857571703592,160.90781303624058,164.4425609834664,1.0,0.019907115079589827,-0.02102493658823306,0.2210072054572095,0.1418746631864415,148.1263506244933,0.8579437362649687,62,2.066666666666667
0.9871215734658498,0.49267664188926014,-0.14537829160690308,0.9997589588165283,0.8971624656183168,0.5902334565259435,0.10726112127304077,0.9999673366546631,0.9193118460380506,0.5947306190330199,-0.3370947241783142,0.9999958276748657,0.91752790593499,0.9506359976559616,0.14301776885986328,0.9999713897705078,0.9227379396963571,0.9543382019600125,-0.14314699172973633,0.9999906420707703,0.9666857581009558,1.214579740733762,0.22012241184711456,0.14265261590480804,0.9645238241821932,1.2412796609062773,-0.08861304819583893,0.9437665343284607,0.9268757645124439,1.49267664188926,0.3286856412887573,0.3451670706272125,0.9299103904872006,1.5250253256892972,-0.018851878121495247,0.9342216849327087,0.9527653870016146,0.9863939846020638,0.11361722648143768,0.1918056458234787,0.9827991566602469,0.9927238004267278,-0.39700326323509216,0.9943161606788635,0.0025862455368041992,0.9201329228156736,0.9524870998079871,161.30326727038002,164.75952908457194,1.0,-0.0002401754795976517,-0.04291600691833853,-0.15568061838107872,-0.16792477301785202,128.6314681786273,0.8350863531151429,63,2.1
0.9859974543277285,0.4877373565609292,-0.15813328325748444,0.9997775554656982,0.9013451140634263,0.592639753876519,0.09746643900871277,0.9999674558639526,0.9181535823256692,0.594637961939778,-0.3451361358165741,0.9999960660934448,0.9228402658836308,0.9515696402421764,0.143894761800766,0.9999698996543884,0.9277482581403153,0.9554047934696719,-0.14399977028369904,0.9999902248382568,0.9670950573232567,1.2104208603878637,0.241847425699234,0.13395032286643982,0.9637122698613798,1.2385698957220168,-0.08307596296072006,0.9295939207077026,0.9261856154634839,1.487737356560929,0.36998236179351807,0.3225681483745575,0.9304453412367019,1.5246350337996146,-0.007742392364889383,0.9184603691101074,0.9551835884769933,0.9833743136409901,0.10324350744485855,0.1822594553232193,0.9846279123055466,0.990820926158237,-0.4151468873023987,0.9947367906570435,0.0011484622955322266,0.925294262011973,0.9534872168559242,161.90647256693026,166.1285617115423,1.0,0.034484452384909034,0.00328668448103504,0.2591565451507962,0.3450063470253884,131.43158351883122,0.8497945164187075,64,2.1333333333333333
0.985586342140381,0.4857943118643948,-0.18661175668239594,0.9997963905334473,0.9051480377643509,0.5956085086061436,0.07075350731611252,0.999968945980072,0.9177904980643697,0.5968330517975016,-0.3652579188346863,0.9999963641166687,0.9322685782217097,0.9526022296141613,0.1433446705341339,0.9999701976776123,0.9318253112506165,0.9577857308143384,-0.1434348225593567,0.9999904036521912,0.9668928616665197,1.2131185202987906,0.250001460313797,0.13177761435508728,0.9649113564769399,1.2414466671176227,-0.09158803522586823,0.9283226132392883,0.9244185134305424,1.4857943118643948,0.3834021985530853,0.3176201283931732,0.9329012675294891,1.525681481405283,-0.019094359129667282,0.9174996614456177,0.9701985567950614,0.9815336600790711,0.07844752818346024,0.1797860860824585,0.9887876108024556,0.9932737925832686,-0.45027071237564087,0.9951680302619934,0.0007024407386779785,0.9320469447361631,0.9551939802142498,163.57565510737092,166.921626037973,1.0,0.03805756703559453,-0.0010758449602944157,0.02690191840329714,-0.03351999840444084,170.76787230211465,0.8581199143105598,65,2.1666666666666665
0.9859341183096019,0.48470380159569043,-0.17027263343334198,0.999811589717865,0.9050839169564433,0.5952663427256533,0.08646510541439056,0.999968945980072,0.918061806622225,0.5959952074052735,-0.354913592338562,0.9999966025352478,0.9319784723310454,0.9541048775630602,0.14392675459384918,0.9999687671661377,0.9326563674526502,0.9576100228619272,-0.1440185159444809,0.9999902248382568,0.9659996121112615,1.2142723292042616,0.2543424665927887,0.12519361078739166,0.9632050240589316,1.2433571193004398,-0.0873170867562294,0.922269344329834,0.9254674753628499,1.4847038015956904,0.3923098146915436,0.3030942380428314,0.9352453089413139,1.5257242059059883,-0.009707772172987461,0.9111765623092651,0.9728394147384094,0.9764015627266488,0.08502582460641861,0.17308400571346283,0.9903811602366922,0.9929903855290559,-0.44026535749435425,0.995586097240448,0.0004176497459411621,0.9323174198918478,0.9558574502124937,164.02590112937796,168.2428603561861,1.0,-0.005589774004468561,-0.002808060229750967,-0.33031664220954926,-0.0130879650444146,173.3403744022999,0.8631735823187411,66,2.2
0.9805040257343628,0.4770062905045842,-0.17016541957855225,0.9998216032981873,0.9009709444024995,0.5894946615205401,0.0817982479929924,0.9999687671661377,0.9123926556315263,0.5944114462254745,-0.3494769036769867,0.9999967217445374,0.9341841206332964,0.9509365923395988,0.14363299310207367,0.9999673366546631,0.930782069704796,0.955143489670188,-0.143746480345726,0.9999898672103882,0.9595767759539912,1.2094043939764583,0.2647659182548523,0.11640284955501556,0.9578299028413212,1.237494445181806,-0.07075802981853485,0.9068555235862732,0.9218602727380765,1.4770062905045842,0.4123004972934723,0.28401699662208557,0.9316595470708222,1.518681129449825,0.018162576481699944,0.8967061638832092,0.9720793519701693,0.9697358895702661,0.09479917585849762,0.16599847376346588,0.9869523291175255,0.9896712759871983,-0.4343748986721039,0.9958763122558594,0.0028285086154937744,0.9324830951690463,0.9530400410048934,166.36652386144,169.2107796961143,1.0,0.029827047708188628,0.007325290624277153,0.2755367687698431,0.0787987250569639,135.7878743243309,0.8781545174440885,67,2.2333333333333334
0.9730794011032569,0.46981059965451555,-0.18827706575393677,0.9998311996459961,0.8954446648160398,0.5828064170702066,0.07350234687328339,0.9999681711196899,0.9061642338532017,0.5899354533480327,-0.3642826974391937,0.9999968409538269,0.9337483858700739,0.9461608112564078,0.14332003891468048,0.9999650120735168,0.930362261058931,0.9500752646755815,-0.14342476427555084,0.9999892711639404,0.9479061089592241,1.2026121151581217,0.28010687232017517,0.10796727985143661,0.9487498068865182,1.2285171135763813,-0.06200282648205757,0.8921305537223816,0.9167065943868897,1.4698105996545154,0.4391711354255676,0.2662341594696045,0.9263952632579134,1.5096463500379993,0.03641343489289284,0.8833547830581665,0.9818148530707117,0.9587328273240676,0.09751710295677185,0.16054895520210266,0.9829492965775423,0.9836418521358853,-0.4498502314090729,0.9961661100387573,0.004124343395233154,0.9320553234645025,0.9481180379659946,170.1801194892633,171.67540725027212,1.0,0.03785015265307511,0.0034147741783896878,0.06441437576628707,-0.03042969034916381,133.12144578635005,0.886193634782485,68,2.2666666666666666
0.977870055938312,0.4761349376475042,-0.1836499124765396,0.999835729598999,0.8946354428583488,0.5857747541661121,0.06828413158655167,0.999966561794281,0.9095948628524758,0.5947314096133519,-0.36533305048942566,0.9999969005584717,0.9359993412319894,0.9509678762551939,0.1432405710220337,0.9999622702598572,0.9353595283386772,0.9547158104840443,-0.1433250904083252,0.9999886155128479,0.9535022686582315,1.2049008818272733,0.27824273705482483,0.10103499889373779,0.9516531607140175,1.2340392474507698,-0.06634865701198578,0.8778315186500549,0.9244982461337516,1.4761349376475041,0.4257338047027588,0.25205177068710327,0.9310228460953235,1.5170389413722365,0.023268645629286766,0.8711298704147339,0.9844324625545802,0.9657307016449003,0.09815345704555511,0.15329581499099731,0.9902043475581304,0.9886553105143414,-0.44244593381881714,0.9964403510093689,0.005154073238372803,0.9356794347853333,0.9528418433696191,169.9533432117423,172.49216392539878,1.0,-0.010823771412823119,-0.0027956658437152744,-0.3870893733732262,-0.04932980883520464,163.85026389337634,0.8800410712243066,69,2.3
0.9786257238455724,0.47922001294215755,-0.20500528812408447,0.9998442530632019,0.8939644841960815,0.5893787141771415,0.056738924235105515,0.9999666213989258,0.9112359137814884,0.5971515838785048,-0.38737863302230835,0.9999970197677612,0.9363026273243895,0.9519555608316685,0.14345969259738922,0.9999590516090393,0.9354046043032881,0.9567633150020691,-0.14354923367500305,0.999987781047821,0.9507672939476113,1.207306341864725,0.2707920968532562,0.09462804347276688,0.9474726058357591,1.236574275656333,-0.08551444113254547,0.8694910407066345,0.923777312705023,1.4792200129421575,0.42280444502830505,0.2380431890487671,0.9302329297798713,1.5193376919376336,0.02177882380783558,0.8599960207939148,1.0011756069801314,0.9519183075078211,0.07317312061786652,0.1595149040222168,0.9921487841718825,0.9897819009862687,-0.45879673957824707,0.9967252016067505,0.004464685916900635,0.9358536158138389,0.9543594379168688,171.08929765283327,174.0414916976385,1.0,-0.012296275407189493,-0.001824998677111915,-0.011594316360368529,0.0077881732284929076,162.75957532348554,0.8753520178101175,70,2.3333333333333335
0.9781478001335162,0.480433037887025,-0.1929185390472412,0.9998487830162048,0.8898418313302955,0.5897471508902796,0.05710253864526749,0.9999659061431885,0.911300792738411,0.5984915925160709,-0.38149183988571167,0.999997079372406,0.934706113181027,0.9516808893274127,0.14330153167247772,0.999956488609314,0.9362048220982776,0.9574955642556522,-0.14339584112167358,0.9999871850013733,0.9503190402697157,1.206163075687552,0.2827063202857971,0.08972469717264175,0.9447239849188327,1.237567533020037,-0.07368985563516617,0.8634884357452393,0.923556915062466,1.480433037887025,0.4401872158050537,0.22869990766048431,0.9296350296444894,1.5203717147013969,0.024528011679649353,0.854003369808197,1.0002260575980637,0.9535115716672677,0.08118920773267746,0.15936066210269928,0.9945860399412728,0.9906880260810449,-0.4497292935848236,0.9969795942306519,0.005019396543502808,0.9354554676396524,0.9545882267915324,170.91616214163128,175.20361984712244,1.0,-0.007861167312526356,-0.003140798140996174,0.03412806511786868,-0.010096960369994124,172.61299828149137,0.8721083350464135,71,2.3666666666666667
0.9654071806312322,0.4708037114354278,-0.18609200417995453,0.9998575448989868,0.8819137084427657,0.5842365497109534,0.0577358677983284,0.9999645352363586,0.9010130903652882,0.5930580416601375,-0.3782854974269867,0.9999971985816956,0.924285753124757,0.9424052605067852,0.14320027828216553,0.99995356798172,0.928573436601331,0.947143976133122,-0.14330662786960602,0.9999865889549255,0.9318380747300039,1.1987238092604773,0.2782951295375824,0.08357586711645126,0.9309960384103008,1.2268116616479747,-0.07155193388462067,0.8498042225837708,0.913454608696975,1.4708037114354278,0.4347696304321289,0.21587957441806793,0.9185658267186492,1.5051969686075766,0.024663802236318588,0.8405444025993347,0.9926582388684972,0.9438921864590343,0.09999434649944305,0.15370982885360718,0.9854787280214978,0.9801148579888581,-0.4350429177284241,0.9972088932991028,0.005115419626235962,0.926429594863044,0.9447746183199536,174.44689554347218,176.9470699915478,1.0,0.0033969256304081765,-0.0011278717000352604,0.08515083795821214,0.01509097779492151,144.60742521972858,0.8752934692251222,72,2.4
0.9620460694844598,0.4687808618907713,-0.1821734756231308,0.9998666048049927,0.8788475783150725,0.5830205277163784,0.0727248340845108,0.9999637007713318,0.8985128347262822,0.5921742744483095,-0.37427911162376404,0.9999973177909851,0.9213178987236423,0.9406172288416171,0.14316071569919586,0.9999513626098633,0.9263117465365585,0.9439670748382343,-0.14327172935009003,0.9999861717224121,0.9276545360425348,1.1961398263029521,0.2662732005119324,0.07857673615217209,0.9285807356933767,1.2232215512946771,-0.07374397665262222,0.842136800289154,0.9083332585515913,1.4687808618907714,0.3970118463039398,0.20609955489635468,0.9147345072955786,1.5015744419765045,0.009190408512949944,0.8331781029701233,0.9884874234630237,0.9418443331293287,0.11134777218103409,0.14928844571113586,0.9835313169269884,0.9775829635055698,-0.4352265000343323,0.9974187016487122,0.0053199827671051025,0.9238148226301004,0.9422921518399258,174.52581983986195,176.6867309903086,1.0,-0.003958634491825749,-0.0026959955768147996,-0.053529203063224874,-0.011441999094290303,130.62655687898072,0.8748238198448473,73,2.433333333333333
0.9604149379038468,0.4669769212276214,-0.18149003386497498,0.9998738169670105,0.8783317341903797,0.5816522699413399,0.07207854092121124,0.9999631643295288,0.8976781714477234,0.5905704581839055,-0.36805063486099243,0.9999974370002747,0.920247341849508,0.9397962882743095,0.140841543674469,0.9999488592147827,0.9264257664592987,0.9431051672001525,-0.1409810483455658,0.9999856948852539,0.9263686090918524,1.196386978322505,0.2649761140346527,0.07402732223272324,0.926875547822125,1.2218577557989376,-0.0583752878010273,0.8326758146286011,0.9072015312438252,1.4669769212276214,0.4016781449317932,0.19836083054542542,0.9136433099606136,1.4997521644255618,0.0352499857544899,0.8264355063438416,0.9897176149480242,0.9418807908326138,0.11005779355764389,0.14495126903057098,0.9825270542311766,0.9765438660772151,-0.43282562494277954,0.9976176023483276,0.005189418792724609,0.9233365541544034,0.941450727737231,174.58165723708825,177.18141003541493,1.0,0.004954421528326465,0.0023585419850416403,0.06789626061803089,0.03849933991325955,124.84672582847057,0.8779694665978791,74,2.466666666666667
0.9544263031831832,0.45943926315101097,-0.17436517775058746,0.9998787045478821,0.8740845870401952,0.575805880197051,0.07347629219293594,0.9999625086784363,0.8924534544329242,0.5864838220934498,-0.35590067505836487,0.9999974966049194,0.9154901715914816,0.9348217416167659,0.13883180916309357,0.9999467730522156,0.9213730374403825,0.9380706465437947,-0.13897958397865295,0.9999852776527405,0.9219627195417328,1.189956070771631,0.2602248191833496,0.06978300213813782,0.9218222511330677,1.215157875693913,-0.061220504343509674,0.8223339319229126,0.902231033556161,1.459439263151011,0.3908684253692627,0.19116097688674927,0.9086246380570173,1.4919845405297707,0.025484856218099594,0.8207292556762695,0.9831238259071825,0.9373779814394273,0.11422166973352432,0.13988789916038513,0.9772556282604918,0.9713374161187652,-0.43338149785995483,0.9977936148643494,0.006248176097869873,0.918431604515932,0.9364461940802803,174.35901421181288,177.17762289395816,1.0,0.0018769085139388351,0.001886735260085112,-0.024519160024485693,-0.0036874414954281283,125.48926515059799,0.8868031731175035,75,2.5
0.9531573156957318,0.45980450508987636,-0.1656329482793808,0.9998819828033447,0.8740968022344835,0.5752020505707263,0.0779016762971878,0.9999617338180542,0.8914177351643435,0.5863749263646291,-0.347320020198822,0.9999975562095642,0.9147070783419259,0.9345473438018922,0.13807769119739532,0.9999446868896484,0.9204638218961712,0.9374301443915046,-0.1382291615009308,0.9999847412109375,0.921843269722011,1.1895762858369834,0.24118752777576447,0.0658256933093071,0.920824235602236,1.2137936434017922,-0.06805283576250076,0.8117714524269104,0.9018819500539907,1.4598045050898765,0.35907110571861267,0.18354256451129913,0.9082376523180609,1.4910825096929907,-0.0017957452218979597,0.8129907846450806,0.9860548403051665,0.9365348115860993,0.11486724764108658,0.13746872544288635,0.9767004756442802,0.9710519580136359,-0.4339807629585266,0.9979535341262817,0.006541043519973755,0.9175854501190485,0.9359887440966984,174.1725008413043,177.32631624071777,1.0,-0.0029338284241842995,6.762097991833901e-05,-0.03630178337973738,-0.013722597652450258,123.04804898507511,0.8849321342269368,76,2.533333333333333
0.9526096136800849,0.4603096294953239,-0.1625387966632843,0.9998852610588074,0.8740560804198028,0.575087287953252,0.08103063702583313,0.9999606013298035,0.8911164830777198,0.5864810299339664,-0.3446406126022339,0.999997615814209,0.9145396307134077,0.934622897157324,0.13784760236740112,0.9999427795410156,0.9200157653549961,0.9372639962446571,-0.13800175487995148,0.9999843239784241,0.9218439601439691,1.189634284180246,0.23916418850421906,0.06216235086321831,0.9207115951457652,1.2130434846789429,-0.06843499839305878,0.8020811676979065,0.9018698275019115,1.460309629495324,0.35740911960601807,0.17640887200832367,0.9082121098918339,1.490676720686032,-0.0042755259200930595,0.8060307502746582,0.9856709456041806,0.9371395918548516,0.11615629494190216,0.1335170716047287,0.9766076480500044,0.9710863124680941,-0.43373942375183105,0.9981033802032471,0.006670862436294556,0.9172776980342019,0.9359434467009905,174.13889964227187,177.2776297059609,1.0,-0.0017839887153489533,0.00020316158554682965,0.00865730958593155,0.0010207452613339616,122.17208781848315,0.8837372346985768,77,2.566666666666667
0.9513459199027405,0.45825479327915514,-0.16682371497154236,0.999888002872467,0.8727971068154055,0.5739847691548831,0.07953948527574539,0.9999596476554871,0.8894341888686802,0.5854166703726849,-0.34490102529525757,0.9999976754188538,0.9129238551771125,0.9332035930502376,0.13781023025512695,0.9999419450759888,0.9181332545200926,0.9349437528096912,-0.1379627287387848,0.9999842643737793,0.9202286837672086,1.1879270381172649,0.2401571273803711,0.059538621455430984,0.9188443017493337,1.2110103045940308,-0.07792028039693832,0.797909140586853,0.9013159456280125,1.4582547932791552,0.3590451180934906,0.1724812090396881,0.9069807404802136,1.488419866527439,-0.013116573914885521,0.8032352924346924,0.9832605047825423,0.9408946946169049,0.11487247794866562,0.1287761926651001,0.9748950519194082,0.9704178431685972,-0.4325258731842041,0.9982335567474365,0.006703287363052368,0.9155285548486026,0.9340736729299643,174.35533056654455,177.40363611826123,1.0,-0.0028191938583410313,-0.0035256410877395473,-0.007922090825825685,-0.028459210820269892,114.8453349089302,0.8846458019965806,78,2.6
0.9470854313337365,0.45179079321632043,-0.180403932929039,0.9998942017555237,0.8686809325887037,0.5704658688020194,0.06842602789402008,0.9999595284461975,0.8855543636898805,0.5829013867409697,-0.35675913095474243,0.9999977350234985,0.903481599927783,0.927568429908777,0.13776279985904694,0.9999419450759888,0.9118178229689343,0.9299667904134599,-0.13791467249393463,0.9999843835830688,0.9162777473303578,1.1826904739122508,0.24909524619579315,0.0586584135890007,0.9146173439040388,1.2056553905401532,-0.05677316337823868,0.797713041305542,0.8976910859247894,1.4517907932163205,0.37636977434158325,0.17415563762187958,0.9032168583319246,1.4816429381722618,0.02118464931845665,0.8074303865432739,0.9684375089657686,0.9444793053488175,0.11162594705820084,0.1258971393108368,0.9699504626576969,0.966854220637326,-0.4357554316520691,0.9983612895011902,0.007324188947677612,0.9076497114483587,0.9287676101611184,173.17750026919597,177.05277388687017,1.0,-0.029013041991684602,-0.008886545962468307,-0.19867060383548157,-0.040759400690986845,111.61677379267616,0.8896005652601805,79,2.6333333333333333
