nose_x,nose_y,nose_z,nose_visibility,left_shoulder_x,left_shoulder_y,left_shoulder_z,left_shoulder_visibility,right_shoulder_x,right_shoulder_y,right_shoulder_z,right_shoulder_visibility,left_hip_x,left_hip_y,left_hip_z,left_hip_visibility,right_hip_x,right_hip_y,right_hip_z,right_hip_visibility,left_knee_x,left_knee_y,left_knee_z,left_knee_visibility,right_knee_x,right_knee_y,right_knee_z,right_knee_visibility,left_ankle_x,left_ankle_y,left_ankle_z,left_ankle_visibility,right_ankle_x,right_ankle_y,right_ankle_z,right_ankle_visibility,left_wrist_x,left_wrist_y,left_wrist_z,left_wrist_visibility,right_wrist_x,right_wrist_y,right_wrist_z,right_wrist_visibility,trunk_lateral_inclination,center_mass_x,center_mass_y,left_knee_angle,right_knee_angle,person_height,center_mass_velocity_x,center_mass_velocity_y,center_mass_acceleration_x,center_mass_acceleration_y,body_orientation,torso_leg_ratio,frame,timestamp
0.9564106424637704,0.5722885626724089,-0.5966371297836304,0.9999948740005493,1.0345473093002482,0.7082282366644425,-0.32753124833106995,0.9999479055404663,0.8723402662056879,0.7105659579716195,-0.316531240940094,0.999993622303009,1.028544956829195,1.0586402254396587,-0.0039252908900380135,0.9999690055847168,0.9138717505032784,1.0654040051914568,0.003753935219720006,0.9999909996986389,1.0243143892510205,1.32528817883863,-0.018187444657087326,0.4666619896888733,0.9114306675133778,1.3389733337069936,0.013732207007706165,0.980944037437439,1.0264765885788631,1.572288562672409,0.17737862467765808,0.6983630657196045,0.9108558245215892,1.5869166801589025,0.18981416523456573,0.98004150390625,1.0979511354524785,1.0612575111664089,-0.43836236000061035,0.20446224510669708,0.8363677910473806,1.097676222875926,-0.4107220768928528,0.9653191566467285,0.0012280941009521484,0.9712083536662366,1.0620221153155578,178.58949152696337,179.6215951990022,1.0,-0.42344740736801734,-0.13715250446745417,-2.6516535942709467,-0.927405987866863,94.35691828032292,0.9466147718312355,0,0.0
0.9627263547235697,0.5861608432597923,-0.5538775324821472,0.9999949932098389,1.0554340013343941,0.7291053647057388,-0.28976842761039734,0.9999527931213379,0.8784342792996152,0.7296009129738612,-0.2696036100387573,0.9999937415122986,1.0318507619752557,1.0693615036991708,-0.009697550907731056,0.9999713897705078,0.9160828236201018,1.0765286202005597,0.00950962770730257,0.999991238117218,1.033743043746223,1.3433188218488146,-0.037183456122875214,0.5191075801849365,0.9187440139478792,1.3545332132750756,0.02559107169508934,0.9812525510787964,1.0412292820501987,1.5861608432597925,0.1736583709716797,0.7276986837387085,0.9185456564926637,1.5970865054360937,0.229780912399292,0.9812827110290527,1.112858772427531,1.0770353929909593,-0.37016230821609497,0.28289124369621277,0.8392775621166502,1.1095058061575658,-0.35495540499687195,0.9683560132980347,0.00025656819343566895,0.9739667927976788,1.0729450619498653,178.63001536258622,179.40469882503598,1.0,-0.08613874522986763,-0.03488228621452625,2.576888972921867,0.782263414259416,97.50746663373224,0.9386938945445504,1,0.03333333333333333
0.9654579616583774,0.5927927155666478,-0.5225762128829956,0.9999951720237732,1.0655841105662163,0.732621597874582,-0.2566981613636017,0.9999572038650513,0.8841857458684496,0.7364841986619411,-0.251473605632782,0.9999939799308777,1.0366968215456311,1.0752489239984686,-0.003604867961257696,0.9999735355377197,0.9211475496240727,1.0819239272274868,0.003421337576583028,0.9999914765357971,1.0394563433845092,1.3510033703420328,-0.020817382261157036,0.5664315223693848,0.9189103468168252,1.3620053158616903,0.0145565839484334,0.9820002913475037,1.0474860862619901,1.5927927155666477,0.1955418735742569,0.754069447517395,0.9228772608195277,1.6041468123074536,0.21144239604473114,0.9825050234794617,1.1199856822727192,1.087786202506645,-0.29827192425727844,0.3538786768913269,0.8442613541257006,1.1116019347466104,-0.34047964215278625,0.9713215827941895,0.0019874870777130127,0.9789221855848519,1.0785864256129778,178.67127498344712,178.60377744385715,1.0,-0.008433943929443877,-0.007894389734699143,0.599140644672264,0.2083258465774121,98.12543792889821,0.93471590112695,2,0.06666666666666667
0.9696427592197964,0.5927361413886734,-0.526354968547821,0.9999954700469971,1.0664540592605796,0.7372692803433868,-0.2508132755756378,0.999961256980896,0.8834511747925766,0.7382961261686791,-0.25446829199790955,0.9999942779541016,1.0353406249636279,1.0713403931082912,0.0014542217832058668,0.9999752640724182,0.9195782780734165,1.0772273413958073,-0.0016484784428030252,0.9999915361404419,1.0375706980715993,1.3437759726183711,-0.05207592248916626,0.6086552143096924,0.9181201488946714,1.355712353228015,0.008434217423200607,0.9819836020469666,1.0477880832958248,1.5927361413886734,0.15685254335403442,0.7766553163528442,0.9200957254480746,1.6028846185583057,0.17116530239582062,0.9829021692276001,1.119401850291287,1.088514480738143,-0.29850995540618896,0.4176941514015198,0.8431473748144767,1.1116884332155585,-0.3403993844985962,0.9738847613334656,0.000528484582901001,0.9774594515185222,1.0742838672520494,178.1188812604037,179.2420669419936,1.0,-0.009987790138147358,-0.0328283293300536,-0.01261811250255797,-0.20223360285278133,98.23204259362352,0.9198626020222481,3,0.1
0.97340391926519,0.5955941991652929,-0.5354478359222412,0.9999957084655762,1.0701680184096578,0.7392633916596829,-0.2597978413105011,0.9999648332595825,0.8878912838397572,0.7398930807261499,-0.2614424526691437,0.9999945163726807,1.0385666244917195,1.0761330349217046,0.0009876808617264032,0.9999768137931824,0.9238506910392874,1.0819049715852374,-0.0011698374291881919,0.9999916553497314,1.0421821347435796,1.3501136886928615,-0.009482190012931824,0.646602988243103,0.9227248762693533,1.3631225742600384,0.003979221452027559,0.9821480512619019,1.0525914750655276,1.5955941991652929,0.21151545643806458,0.7974059581756592,0.9226328117058232,1.6086612063003547,0.20213016867637634,0.9834820032119751,1.1233105440603042,1.0930811678738612,-0.3218103349208832,0.47514182329177856,0.8478516844531258,1.1162306396330854,-0.3540426790714264,0.9762319922447205,0.000322878360748291,0.9812086577655036,1.079019003253471,178.3279320439187,179.79210871920392,1.0,0.0007539792234745682,0.005072552263120359,0.07443682850209647,0.2625782552900748,98.2395845951967,0.9241860823818849,4,0.13333333333333333
0.9706394285403231,0.5951844974965032,-0.544819176197052,0.9999958872795105,1.0691372026191572,0.7378478867793279,-0.2784828841686249,0.9999681115150452,0.8865421278622378,0.7384026314965448,-0.27274733781814575,0.9999947547912598,1.0376399722470786,1.075604751040807,-0.001864975900389254,0.9999780654907227,0.9228296593284168,1.0808129261270472,0.0016836017603054643,0.9999915957450867,1.0411787427680292,1.3479885319063611,-0.020260179415345192,0.6802824139595032,0.9239450744054475,1.3610392368748323,0.006516641937196255,0.981412947177887,1.0522201901399282,1.595184497496503,0.1909145563840866,0.8157950639724731,0.9230350816051032,1.6090664190755033,0.19678708910942078,0.9837697148323059,1.1227488149731462,1.0929164577926063,-0.37203988432884216,0.5270516276359558,0.8471386959972808,1.113923441743352,-0.3696383833885193,0.9783915281295776,0.00028458237648010254,0.9802348157877476,1.078208838583927,178.18681864167283,179.5617277209777,1.0,-0.0039622915789755,-0.0023606939556130202,-0.0361095236315045,-0.05689786529991637,97.92500652998096,0.9220355558542166,5,0.16666666666666666
0.9743482365720766,0.5965946018949407,-0.5586342811584473,0.9999961256980896,1.070960192895196,0.7385305688804813,-0.2898184061050415,0.9999710917472839,0.8870242423047936,0.7388516694058757,-0.28067290782928467,0.9999949932098389,1.0385668881812624,1.0762914034651065,-0.0023806337267160416,0.9999791979789734,0.9233502871852635,1.0811379690993506,0.002196844667196274,0.9999915957450867,1.0418685899442803,1.3472676891767845,-0.022300872951745987,0.7105301022529602,0.9250677651176691,1.3616249465631867,0.012902207672595978,0.9801841974258423,1.052928796670694,1.5965946018949408,0.17145304381847382,0.8324631452560425,0.9248666049116462,1.6120140549356894,0.19360539317131042,0.9839485883712769,1.123604632754428,1.093984664499369,-0.37739652395248413,0.5736415982246399,0.8472377767704263,1.113591156764788,-0.37125128507614136,0.9803373217582703,0.0001645982265472412,0.9809585876832629,1.0787146862822286,178.15809355243823,179.60313998340814,1.0,-0.00017327074720508605,-0.0023862108485654746,0.0286837450666076,-0.0001794127931566087,97.88697279511675,0.9172719062032268,6,0.2
0.9756070481057867,0.5964038663203689,-0.5567531585693359,0.9999963045120239,1.0715974962390107,0.737728013616293,-0.2928199768066406,0.9999737739562988,0.8866361059634063,0.7379882020029158,-0.2830093502998352,0.9999951720237732,1.0386155373622619,1.0767095353579508,-0.004118556622415781,0.9999802112579346,0.9236562165027797,1.0810160135604885,0.003942965529859066,0.9999915361404419,1.0421133156464135,1.3471101417666302,-0.01983802206814289,0.7379476428031921,0.9263443066642175,1.3624231235162403,0.020958222448825836,0.9793809652328491,1.0526987278903814,1.5964038663203688,0.18466728925704956,0.8475910425186157,0.9245029332229645,1.6135374692203417,0.2039894163608551,0.9843181371688843,1.1234457871105603,1.0939820681605217,-0.3977299928665161,0.6157691478729248,0.8473780032692124,1.1129811683132864,-0.3769725263118744,0.9820989966392517,0.00013339519500732422,0.9811358769325208,1.0788627744592196,178.30970027735887,179.03257769160592,1.0,0.0025350473683725524,0.0024289291064406777,0.02072999655851226,0.036853527337409014,97.70257528409557,0.9169986650676175,7,0.23333333333333334
0.9759557135664391,0.5967158218420509,-0.5434787273406982,0.9999963641166687,1.072083933645888,0.7370248379047153,-0.28579965233802795,0.9999761581420898,0.8875261370203056,0.7376272858725429,-0.276828795671463,0.999995231628418,1.038335923429607,1.076496190975076,-0.00473214965313673,0.9999807476997375,0.9247749463459305,1.0807437745445396,0.004536769352853298,0.9999909996986389,1.0415151612876048,1.3439170797310949,-0.06640008091926575,0.7625877261161804,0.9248761678312658,1.361896851122777,0.013200881890952587,0.9775049686431885,1.0520194180229445,1.596715821842051,0.11778996884822845,0.8607288599014282,0.9249302068561577,1.6139875076882135,0.18810652196407318,0.9840489029884338,1.12353547705564,1.0935790307665088,-0.4139167368412018,0.6537298560142517,0.8477613171808944,1.1124466691478132,-0.3818196952342987,0.9835730791091919,0.000308990478515625,0.9815554348877688,1.078619982759808,178.30175258746232,179.99165434181302,1.0,0.006171968178123351,0.0014275661564189007,0.027688073828491838,-0.007613936689739207,97.81938267788753,0.9148744027992624,8,0.26666666666666666
0.9799368870463756,0.5975357057371331,-0.5589596033096313,0.9999964833259583,1.0743700975050006,0.7382159843813351,-0.2992127239704132,0.9999783039093018,0.8890802401232485,0.7389071982310136,-0.2799057066440582,0.9999953508377075,1.0397255475104554,1.077474221084686,-0.006327769253402948,0.9999816417694092,0.9274708714365502,1.0817796820113892,0.006142723839730024,0.9999909996986389,1.042364674796852,1.3448212695212958,-0.037165239453315735,0.784861147403717,0.9255411600808475,1.3633682014645871,0.019072340801358223,0.9767675995826721,1.0526834519705817,1.597535705737133,0.1644297093153,0.8730759620666504,0.9245817999194689,1.6135597013137366,0.20648904144763947,0.9843210577964783,1.124703213033667,1.0951682721328582,-0.4124685227870941,0.6878119111061096,0.8488332873144405,1.1133375545102895,-0.3835695683956146,0.984932541847229,0.0003542304039001465,0.9835982094735027,1.0796269515480375,178.2273901466582,179.82706095993794,1.0,0.009747817027317484,0.0010322849782841868,0.027923362135592322,-0.003100085228949701,98.02721708309585,0.9166424244366801,9,0.3
0.9817141179377391,0.5979285911376626,-0.5519378781318665,0.999996542930603,1.075124109110858,0.7395232553648777,-0.2936714291572571,0.9999802708625793,0.8905412083195098,0.7394873103697938,-0.2814423441886902,0.9999954700469971,1.0409161064753572,1.0776010566199978,-0.005316007882356644,0.9999822378158569,0.9295307677525235,1.0819658724955412,0.005131827667355537,0.9999907612800598,1.0427162644006818,1.3452241083198355,-0.02860189601778984,0.8047553896903992,0.9269277801068997,1.3640350897601201,0.01951192505657673,0.9759069681167603,1.0528180876145878,1.5979285911376626,0.16298912465572357,0.8841023445129395,0.924676971984308,1.6131582180030217,0.19879932701587677,0.9844368100166321,1.1251032400748773,1.0954555987412504,-0.39939892292022705,0.7184983491897583,0.8499617517333863,1.1136296907055316,-0.38413265347480774,0.9861197471618652,1.8417835235595703e-05,0.9852234371139403,1.0797834645577695,178.0962211992398,179.98892764244727,1.0,0.010978796665864585,-0.00019253369999921953,0.009248568711285966,-0.009215898061685046,98.02182166222543,0.9164924952593723,10,0.3333333333333333
0.9841241833484826,0.598552000470686,-0.5624074935913086,0.9999966621398926,1.076250953607577,0.7403029115663804,-0.29377034306526184,0.9999819993972778,0.8924887585023038,0.7400967245714782,-0.2859678268432617,0.9999955892562866,1.0428878842647897,1.0782883814064839,-0.003197674173861742,0.999983012676239,0.9316770323691468,1.0827703733905063,0.003025998827069998,0.9999908208847046,1.0434183953134855,1.346424471341026,-0.01828720048069954,0.8228161334991455,0.927598335862029,1.3650190116281202,0.02252611331641674,0.9756094813346863,1.0533593669390007,1.598552000470686,0.1954813003540039,0.8939343690872192,0.925971187011488,1.6129400467229158,0.22454361617565155,0.9846699833869934,1.1263690004632951,1.0961447687600923,-0.3915864825248718,0.745862603187561,0.8517155275916667,1.114404335199414,-0.38688498735427856,0.9870761632919312,0.00010558962821960449,0.9872824583169683,1.0805293773984952,177.85545206420983,179.54812902587577,1.0,0.011519523972664751,0.001130854043633301,0.004067885187329312,0.01006972481617786,97.9453632134508,0.9176803054099354,11,0.36666666666666664
0.9873506100537872,0.6002966829765309,-0.5067118406295776,0.9999967217445374,1.0805242534716937,0.7425124353820347,-0.255862832069397,0.9999834895133972,0.8965777166026626,0.7415067323540881,-0.24613213539123535,0.9999955296516418,1.0475908332053019,1.0812826429142965,-0.0022863277699798346,0.9999834299087524,0.9351963745694907,1.08528527330426,0.002093402436003089,0.9999905228614807,1.0458710705283516,1.348774916989545,-0.030110260471701622,0.8387256264686584,0.9304805011319847,1.3673141033021847,0.018343837931752205,0.9747335314750671,1.0553409643573295,1.600296682976531,0.15567995607852936,0.9026102423667908,0.927927396664043,1.6173873349546373,0.20133879780769348,0.9845526218414307,1.1294795110610418,1.0951787499768144,-0.36650821566581726,0.7704984545707703,0.8557891152391481,1.116960310719189,-0.36042070388793945,0.987803041934967,0.0005138516426086426,0.9913936038873963,1.0832839581092784,177.47544848555557,179.6269692241837,1.0,0.014039886194066785,0.0021486646073057268,0.018892181759204922,0.007690319029847878,97.59211529790869,0.9190275865829949,12,0.4
0.9887050490842211,0.6004344642472519,-0.5098402500152588,0.9999967217445374,1.08165877740576,0.7420830330959461,-0.2555016875267029,0.999984860420227,0.8975748438017301,0.7409803713260594,-0.2611377239227295,0.9999955296516418,1.0498616993574112,1.0813813481475971,0.00022536376491189003,0.9999838471412659,0.9353667961142178,1.085000756254199,-0.0004153492918703705,0.9999904036521912,1.0460717987853054,1.348589571342059,-0.0219394713640213,0.8535098433494568,0.9313232559302982,1.3666727345813645,0.01666530780494213,0.974501371383667,1.0545374144082926,1.6004344642472519,0.17104317247867584,0.9107415676116943,0.928069730252232,1.616205133922298,0.21777072548866272,0.9846116900444031,1.1318271766156174,1.0938519040871428,-0.36331650614738464,0.7926891446113586,0.8569075512185839,1.116608216827233,-0.36189863085746765,0.9885658025741577,0.0005635917186737061,0.9926142477358145,1.083191052200898,177.26217143980767,179.92455543343317,1.0,0.011775304482665042,0.0021853330703722547,-0.01691723931628936,0.0002802453785382769,97.16442186238655,0.9193347647562481,13,0.43333333333333335
0.9903257395276441,0.6003759391702769,-0.49987831711769104,0.999996542930603,1.0835122763445528,0.7417372747604577,-0.24100108444690704,0.9999859929084778,0.898077360157618,0.7406751294367564,-0.25389453768730164,0.9999954700469971,1.0530163883759647,1.082985196710235,0.0015366667648777366,0.999984085559845,0.9376811399050172,1.086678484862316,-0.0017236301209777594,0.9999901652336121,1.048033556354122,1.3493417013200248,-0.019433025270700455,0.8665815591812134,0.9316746938178548,1.3664847886344795,0.0155428322032094,0.9738447666168213,1.0540317249243554,1.6003759391702768,0.17874625325202942,0.9178232550621033,0.9270519337824294,1.6156515720316227,0.2192058563232422,0.984481930732727,1.1341620526796334,1.0932758990243197,-0.37838995456695557,0.812569260597229,0.8593588666750258,1.1165305918663604,-0.3667120933532715,0.9893448352813721,0.0005430281162261963,0.9953487641404909,1.0848318407862756,177.55951617747152,179.83313174185972,1.0,0.023894274153831302,0.01537528043935699,0.09655574846328012,0.10506594273970196,96.94082662469985,0.9259870580071713,14,0.4666666666666667
1.0009137427326513,0.6004871119273667,-0.4928162097930908,0.9999964237213135,1.0846680938191555,0.7412427064311593,-0.23067334294319153,0.999987006187439,0.898166221701186,0.7401462384587686,-0.25645187497138977,0.9999953508377075,1.0555240007504787,1.083713680736588,0.0021934444084763527,0.9999843835830688,0.9406117333376839,1.0874646756452193,-0.002374720061197877,0.999989926815033,1.0499733719915303,1.3503369579277467,-0.020676668733358383,0.8784126043319702,0.9328154952867842,1.366101904281341,0.014814008958637714,0.9722208380699158,1.053557257210247,1.6004871119273667,0.16861379146575928,0.9246370196342468,0.9273180060108214,1.6149909278316876,0.21217262744903564,0.9842546582221985,1.136673817966972,1.0929131041265838,-0.38780704140663147,0.8301995396614075,0.8609005277822773,1.1160735282635625,-0.39244237542152405,0.9900338053703308,0.0005608201026916504,0.9980678670440813,1.0855891781909035,177.98655788573075,179.6626387307881,1.0,0.023934797216290788,0.009337528012025507,0.00038666968665262584,-0.045786240841084555,96.73371960681297,0.9289609446724887,15,0.5
1.0121567404514522,0.6014115384054909,-0.47209787368774414,0.9999961256980896,1.086927240138146,0.7415634408288766,-0.20630326867103577,0.9999879598617554,0.8993673841131982,0.7402956443175028,-0.2512190043926239,0.9999951720237732,1.0584288066683183,1.085583667283564,0.008229156956076622,0.9999846816062927,0.9444213164682395,1.0895827929411421,-0.008419254794716835,0.9999897480010986,1.052286026550865,1.3585884615945092,0.011861109174787998,0.8896951079368591,0.9365844104746223,1.3674732961252059,0.01439861673861742,0.9732521176338196,1.0540927677309357,1.6014115384054908,0.23019960522651672,0.9313192963600159,0.9282371799542427,1.6140727161447328,0.22128276526927948,0.9849149584770203,1.1432889847427248,1.0923307928828527,-0.3756333887577057,0.8466498851776123,0.8636559754018333,1.1167135217055506,-0.3949500620365143,0.9908167123794556,0.000648200511932373,1.001425061568279,1.087583230112353,178.284721134748,179.67670922768502,1.0,0.023533995870288954,0.012470090949983232,-0.003247585895614422,0.024781170610930915,96.74451916260112,0.9347023063175528,16,0.5333333333333333
1.0197707732881245,0.6021312117072859,-0.4624941349029541,0.9999958872795105,1.0897820072849849,0.7420336840320457,-0.19163887202739716,0.9999887943267822,0.9020191632733489,0.74070014615799,-0.24599722027778625,0.9999949932098389,1.0617708900186051,1.0888599414400144,0.011223155073821545,0.9999849796295166,0.9485317701944169,1.0932096386725167,-0.011414606124162674,0.9999896287918091,1.0549764996820232,1.361571964253885,0.007176241837441921,0.8998489379882812,0.9419862921565688,1.3700616869863413,0.008039915934205055,0.9741078615188599,1.054538731225969,1.602131211707286,0.22865132987499237,0.9372704029083252,0.9288764446344473,1.6147003207289485,0.22105279564857483,0.9854840636253357,1.1477614889585035,1.0926903571235533,-0.3633992671966553,0.8614094853401184,0.869783300532768,1.11789900994244,-0.3939482271671295,0.9915230870246887,0.0006816089153289795,1.005151330106511,1.0910347900562656,178.67708560091035,178.2868960263648,1.0,0.024284710127153726,0.0221551828444597,0.005270393565327173,0.06861153725638391,96.81716286690244,0.9450583681876155,17,0.5666666666666667
1.0272105671852085,0.6021197032769753,-0.43009576201438904,0.9999954104423523,1.0905186591841725,0.7431426918282744,-0.1493801772594452,0.9999894499778748,0.905996446802157,0.7402676950627988,-0.23978474736213684,0.9999948740005493,1.063590865190387,1.0909559901875605,0.01971520110964775,0.9999852180480957,0.952414144067929,1.0965200714182974,-0.019920680671930313,0.9999894499778748,1.0565755024236203,1.3618975829536022,0.004105907399207354,0.9088820219039917,0.9461540864456063,1.3732597967623053,-0.008875858969986439,0.974668562412262,1.0541167976833579,1.6021197032769754,0.22367596626281738,0.9424790740013123,0.9283682821260535,1.6141203131159438,0.21669407188892365,0.985801637172699,1.1477322079597507,1.0922025933542006,-0.3062257766723633,0.8745417594909668,0.8749247900240043,1.1181635268274364,-0.38165566325187683,0.9922168254852295,0.0014701783657073975,1.008002504629158,1.093738030802929,179.10320812655647,177.07263863900837,1.0,0.024667089110094794,0.02386588768136637,0.0029249350657879806,0.012785793113727456,97.29212449335128,0.9559639079411555,18,0.6
1.0376747807909334,0.6048432007935379,-0.4397156834602356,0.9999949336051941,1.0935719472631633,0.7454129718861742,-0.15425583720207214,0.9999901056289673,0.912085640829192,0.7416064391253315,-0.25700467824935913,0.9999949336051941,1.068093072133723,1.0943216383891354,0.025783274322748184,0.99998539686203,0.957647529483483,1.1008094667941524,-0.025968870148062706,0.9999893307685852,1.059811331624562,1.3655055345754756,0.01364654116332531,0.9168792366981506,0.9526198010096548,1.3781294599369651,-0.017209747806191444,0.9750479459762573,1.0560169979796747,1.6048432007935378,0.24423184990882874,0.9470194578170776,0.9297964808060335,1.6167040101646069,0.21564576029777527,0.9859554767608643,1.1515103935592403,1.0939285817056803,-0.27622029185295105,0.8861057162284851,0.8842923190688701,1.122313881619195,-0.3941076993942261,0.9928656220436096,0.0019435584545135498,1.0128703008086029,1.097565552591644,179.15903723418143,175.57405008586545,1.0,0.025277630008096498,0.016368228632762633,0.004355621510178137,-0.057294583174703956,97.53840549492261,0.9605686959690918,19,0.6333333333333333
1.044812544595997,0.6058300843406149,-0.44417768716812134,0.9999942183494568,1.0948756466729685,0.7459544064362192,-0.15278062224388123,0.999990701675415,0.9157901483936451,0.7416731907269398,-0.276553213596344,0.9999949932098389,1.0708158892191506,1.0946513641624687,0.030556801706552505,0.9999854564666748,0.9616826582276042,1.1016328432256495,-0.030730387195944786,0.9999890923500061,1.0622051220591306,1.3677589279412752,0.02024831809103489,0.9240660071372986,0.9576964773460362,1.3832723658903545,-0.02030923217535019,0.9754284024238586,1.0563451723014485,1.605830084340615,0.26907846331596375,0.950798749923706,0.9299489596753239,1.6155216340095881,0.22634844481945038,0.9858883023262024,1.1550334465234198,1.0942493835879492,-0.25437307357788086,0.896479606628418,0.8911979388892621,1.1230332008751105,-0.4012517035007477,0.9934577941894531,0.002185642719268799,1.0162492737233775,1.098142103694059,179.6041378082149,173.99787531118562,1.0,0.025140428960064812,0.003367207293235148,-0.001087053513264268,-0.10063490155982674,97.60744021520011,0.9611812707858868,20,0.6666666666666666
1.0489594359884928,0.6058917291333523,-0.42560720443725586,0.9999939203262329,1.0958066774626907,0.7474185100015772,-0.12272150814533234,0.9999911189079285,0.9217684807388338,0.7414660838790594,-0.2730223536491394,0.9999951124191284,1.074651926291743,1.0944947865851131,0.035680919885635376,0.9999853372573853,0.9658788705713467,1.1015347733973233,-0.035844266414642334,0.9999889135360718,1.0654089154642363,1.3686192713349217,0.02732372283935547,0.9303558468818665,0.9668182787716162,1.3845655693848076,-0.030058080330491066,0.9756127595901489,1.056373831810616,1.6058917291333523,0.2663215398788452,0.9542768001556396,0.930039569206651,1.6137858401477836,0.22202210128307343,0.9858719706535339,1.1571851213805524,1.094907955741983,-0.21073608100414276,0.9051996469497681,0.8979633293985557,1.1216695022671768,-0.410881906747818,0.9940177798271179,0.0030389726161956787,1.020265398431545,1.0980147799912183,179.7504755332168,170.69433817657074,1.0,0.02870669354932136,-0.0005293570277009159,0.025195667625861368,-0.02751884960021759,97.19105782994588,0.9617945371945289,21,0.7
1.052327173937448,0.604915231157401,-0.41237059235572815,0.9999938607215881,1.0945655974058048,0.748555577878194,-0.11023026704788208,0.9999915957450867,0.925222809252536,0.7405156373970222,-0.2713465094566345,0.999995231628418,1.0749954147875072,1.0933586586744493,0.0398639515042305,0.9999855160713196,0.9688543791913872,1.1003657381259033,-0.040015045553445816,0.9999889135360718,1.0673432272839534,1.367852076525374,0.040918998420238495,0.9362229704856873,0.9725618551726009,1.3828708124763267,-0.032575733959674835,0.9762262105941772,1.0554575400575534,1.6049152311574009,0.28066685795783997,0.9577170610427856,0.9299779005879277,1.607738147480845,0.22108745574951172,0.9860869646072388,1.1565923108975265,1.0934314388994557,-0.23081524670124054,0.9133978486061096,0.9031252633399067,1.1179610573310477,-0.41285163164138794,0.9945133924484253,0.004108697175979614,1.0219248969894472,1.0968621984001763,178.72660132052184,168.52478990270464,1.0,0.02010006961488456,-0.0007222325711360481,-0.06526181554078543,-0.001471118391877741,97.02548046113115,0.9658683712001244,22,0.7333333333333333
1.0616559639553742,0.6062547119421496,-0.3923156261444092,0.9999935030937195,1.0967188340791971,0.7525392903933488,-0.0896960124373436,0.9999919533729553,0.9312136232805394,0.7410396088969651,-0.27024325728416443,0.9999953508377075,1.07815829740791,1.0956129268629422,0.04662500321865082,0.9999855756759644,0.9748529441506334,1.1018447023361881,-0.046783726662397385,0.9999889135360718,1.0737441377272998,1.3710946482390882,0.04155100882053375,0.9411787390708923,0.9846386448170886,1.3859772835435045,-0.048052795231342316,0.9762632250785828,1.058126062433723,1.6093148951556704,0.2704969644546509,0.9605868458747864,0.9327479818654597,1.6062547119421495,0.20014290511608124,0.9858776926994324,1.1588282667546403,1.0966558230866432,-0.20129629969596863,0.9195404052734375,0.9112332350135836,1.1162252370598627,-0.4061257839202881,0.9949438571929932,0.0058632493019104,1.0265056207792718,1.098728814599565,177.16696716227972,164.77200352698307,1.0,0.016712677425970723,-0.004941673215025319,-0.02575793625823764,-0.031639983202371054,96.54884305239067,0.9680822480408982,23,0.7666666666666667
1.06548679847052,0.6078351242563246,-0.390863835811615,0.9999931454658508,1.0991973295219588,0.7555481969403722,-0.09060698747634888,0.999992311000824,0.9347051102027499,0.7428791774050069,-0.26981887221336365,0.9999954104423523,1.0813437873068263,1.0983139050461668,0.04731817916035652,0.9999858736991882,0.9789474720471101,1.1045019782414824,-0.04747811332345009,0.9999890923500061,1.0779564673779574,1.3744018675438718,0.03852008655667305,0.9458748698234558,0.9885045239759562,1.3896515460016223,-0.05139926075935364,0.9767275452613831,1.0610836224317859,1.613203293281749,0.26686257123947144,0.9633622765541077,0.9354951879559406,1.6078351242563247,0.19771787524223328,0.985897421836853,1.1613151492589484,1.099850229197554,-0.2086012363433838,0.9252307415008545,0.9201984552494464,1.1187988521107228,-0.3790642321109772,0.9952796697616577,0.006443321704864502,1.0301456296769682,1.1014079416438247,176.66133016182408,164.42454879788562,1.0,0.00845799338689452,-0.0005620452116530707,-0.06554885833901786,0.034700151267362256,96.43998050909225,0.9700604038556642,24,0.8
1.0669849449783628,0.6075420670860074,-0.3335689902305603,0.9999925494194031,1.0954440288094647,0.7552134683065088,-0.037416182458400726,0.9999925494194031,0.9370269871793596,0.7418717650217929,-0.25068122148513794,0.9999956488609314,1.080840216332132,1.0994450701154208,0.0626952275633812,0.999985933303833,0.9803112722540795,1.1051891161277472,-0.06285427510738373,0.9999893307685852,1.0789378304509856,1.373240849313121,0.06993988156318665,0.9483328461647034,1.0048896411253552,1.3870913193236383,-0.07459525763988495,0.9771196842193604,1.061113604816895,1.6114173366199505,0.29356950521469116,0.9645748138427734,0.93595757579945,1.6075420670860074,0.1517610251903534,0.9855862259864807,1.160097160450469,1.0990575665832132,-0.12049423158168793,0.9282482266426086,0.9364476055759756,1.1182566158704068,-0.37987053394317627,0.9956700205802917,0.006790667772293091,1.0305757442931058,1.102317093121584,176.11827448581812,157.65333961037095,1.0,0.009763704893401951,0.014025947494926298,0.010476031741940738,0.11645880613003186,95.69950494201885,0.9762625523918335,25,0.8333333333333334
1.0665965045280168,0.6061271480971859,-0.22690565884113312,0.9999895691871643,1.0859193304442767,0.7520511734144463,0.041106872260570526,0.9999923706054688,0.9384723341347412,0.7382125737532063,-0.19360019266605377,0.999995768070221,1.078615753273558,1.1006522111005586,0.06902176886796951,0.9999856948852539,0.9803190410400604,1.1076476653230933,-0.06918512284755707,0.9999893307685852,1.0771714196510698,1.3703917099152727,0.07339852303266525,0.9490896463394165,1.0093397358719143,1.384407389716055,-0.08639474958181381,0.9774035811424255,1.059709950793805,1.606127148097186,0.2786520719528198,0.9647163152694702,0.934501380652543,1.6061674599732283,0.1195007786154747,0.9851735234260559,1.1545780503353948,1.094029729365928,-0.02537653222680092,0.9307059049606323,0.9416516558482834,1.115933917501103,-0.34419357776641846,0.9960519671440125,0.007059246301651001,1.0294673971568091,1.1041499382118258,176.07049580803803,155.3656847030311,1.0,0.008592312094880247,0.03118744672519924,-0.008378903266906143,0.12529579923338055,95.27092379792788,0.9927710846650366,26,0.8666666666666667
1.0708219055696218,0.6073936572501074,-0.21964998543262482,0.9999885559082031,1.0831554011544642,0.7524540589554929,0.04634822532534599,0.9999923706054688,0.9431992477025526,0.7371574144470664,-0.20979750156402588,0.9999960064888,1.0804276086418658,1.1045600714453074,0.07818834483623505,0.9999861717224121,0.986135868094558,1.1118376195326618,-0.07830660045146942,0.9999898672103882,1.0785814073821587,1.3734487992666247,0.12133745849132538,0.9476268887519836,1.0178826377107244,1.3873067252567521,-0.09360114485025406,0.9785025119781494,1.062352236278165,1.6073936572501073,0.31656771898269653,0.9642897844314575,0.9378043167176,1.6180935919943225,0.07102380692958832,0.9856711626052856,1.1520330988395056,1.092966250710314,-0.013921302743256092,0.9306141138076782,0.9487890210098335,1.1154179642981887,-0.37974274158477783,0.9963931441307068,0.007786571979522705,1.033281738368212,1.1081988454889846,176.42503653132883,154.29015357045355,1.0,0.0127511940653606,0.013348664545976488,0.03218322826940889,-0.13916090088717414,94.85727242149046,0.993220671492639,27,0.9
1.072964894554442,0.6077158020751648,-0.16910383105278015,0.9999871253967285,1.0759089807574738,0.7523843671482858,0.08833147585391998,0.9999922513961792,0.9470121303263666,0.7354820554548452,-0.20392748713493347,0.9999962449073792,1.0806094434171645,1.1069543873415775,0.08935549855232239,0.9999867677688599,0.9908695252576061,1.1151157035835901,-0.08944301307201385,0.9999905228614807,1.0730723249980625,1.374128628684362,0.16570238769054413,0.9307999610900879,1.0264122490387642,1.387952243946069,-0.1199018582701683,0.9795633554458618,1.063752353262696,1.607715802075165,0.3325192332267761,0.9597669839859009,0.9388928724586828,1.635699030976227,-0.010849992744624615,0.9861636161804199,1.14809872424298,1.0937470034140504,0.04097192361950874,0.9221691489219666,0.9567779325450454,1.1161101088239933,-0.38513630628585815,0.9966879487037659,0.008599400520324707,1.0357394843373853,1.111035045462584,179.33106263032772,153.12146384040275,1.0,0.014262868776111966,0.016788494230195905,0.011209009127325033,0.025567493624985158,94.43690442098615,0.9860524174529481,28,0.9333333333333333
1.073981852029267,0.607722722193267,-0.15517307817935944,0.9999866485595703,1.0666436586657633,0.7508258689122663,0.10304693132638931,0.9999920725822449,0.9494039533696705,0.7338152361465534,-0.20648975670337677,0.999996542930603,1.0791175330455927,1.1081588081574376,0.09561195969581604,0.9999873042106628,0.9962296868580618,1.115766912081438,-0.09571145474910736,0.9999911785125732,1.0606269024213577,1.3744569719338704,0.17452213168144226,0.9046100378036499,1.0316063626260095,1.3883007829866376,-0.130264014005661,0.9806653261184692,1.0643203660287102,1.607722722193267,0.3308927118778229,0.9510458707809448,0.9399496448110574,1.6519092130525654,-0.04076805338263512,0.9865584969520569,1.140502270282859,1.092180196694978,0.025421133264899254,0.9043089747428894,0.9654580671568871,1.1202711617084073,-0.3756379783153534,0.9969693422317505,0.008654922246932983,1.0376736099518273,1.1119628601194378,175.12086670153818,153.43141286228553,1.0,0.015479027538029735,0.0076531128179018245,0.00949689136504569,-0.07129155397294881,93.24508139292408,0.9739392384165461,29,0.9666666666666667
1.0738827950969128,0.6076786288795272,-0.1670977920293808,0.9999865293502808,1.0557359155546213,0.7486863467152064,0.09049186110496521,0.9999922513961792,0.9512171708211681,0.7329879886273338,-0.22667941451072693,0.9999967813491821,1.0750315882988495,1.1116793448399687,0.10433976352214813,0.9999878406524658,1.0033780283431073,1.118826415262093,-0.10441650450229645,0.999991774559021,1.0535733917144097,1.3734932631835792,0.2262377291917801,0.8642972111701965,1.0349369835914213,1.3904043144113571,-0.14267539978027344,0.9817907810211182,1.064441769614777,1.6076786288795273,0.3977873623371124,0.9350873231887817,0.9414253692359225,1.6645323540731292,-0.07524073868989944,0.9868424534797668,1.1349091686688355,1.0893801993010366,0.00582685973495245,0.8853290677070618,0.971993787590632,1.125045735897398,-0.41029730439186096,0.9972036480903625,0.007987827062606812,1.0392048083209784,1.1152528800510308,172.65737617540478,154.53588827389623,1.0,0.011818261958666173,0.024793065571267495,-0.02691405155957854,0.1260564539887269,92.65329957731511,0.974414704640834,30,1.0
1.0711475107643624,0.6063949059759505,-0.16184982657432556,0.9999856948852539,1.0489810858968396,0.7449245119691015,0.08565361052751541,0.999992311000824,0.9491177375291577,0.7315343352348995,-0.24407868087291718,0.9999970197677612,1.0706486192141862,1.1124511256065264,0.10580728948116302,0.9999884366989136,1.0009945685929418,1.1197597465471953,-0.10586819797754288,0.9999923706054688,1.0507848336734964,1.371212309389208,0.2319730818271637,0.8278153538703918,1.0259774864083322,1.3886218477444474,-0.11621719598770142,0.9824440479278564,1.0616582848872973,1.6063949059759504,0.41539064049720764,0.9208226799964905,0.9403445285664799,1.6656134966295306,-0.025461161509156227,0.9868958592414856,1.127421846411888,1.086875335733382,-0.005454368889331818,0.8509308695793152,0.9757006033513519,1.1271561527629772,-0.42766791582107544,0.997426450252533,0.006827861070632935,1.035821593903564,1.116105436076861,172.9631696785468,157.51208582896172,1.0,-0.009145504775266952,0.025089961356695344,-0.16301597969900425,0.002721670120695167,92.61601302483564,0.9805547431149758,31,1.0333333333333334
1.0707384218464588,0.6067449406018227,-0.1918143928050995,0.999985933303833,1.0446057609190702,0.7443975865546403,0.0627523809671402,0.9999926090240479,0.9489448147653854,0.7317439102816483,-0.2803516685962677,0.9999972581863403,1.0676257734489327,1.1163001445137306,0.10804140567779541,0.9999891519546509,0.998926187161211,1.1253156360278969,-0.1081046313047409,0.9999929666519165,1.049997331397676,1.3721007301798696,0.24372294545173645,0.8097712397575378,1.0229939987722676,1.39130250767362,-0.1075296625494957,0.9835427403450012,1.0581242631018581,1.6067449406018228,0.4231436252593994,0.9174538254737854,0.9404443371937165,1.6690840754707628,-0.002378077246248722,0.9875874519348145,1.1185387306560675,1.0873218707948689,0.02194727025926113,0.8168157935142517,0.9792629431450913,1.1299001369843555,-0.44041091203689575,0.9976364970207214,0.006450951099395752,1.0332759803050717,1.1208078902708138,174.07405325139908,158.2790549954082,1.0,-0.021609684626902947,0.034936258695147014,-0.09745157538996556,0.0769541963188941,93.93426712915064,0.9946000201356534,32,1.0666666666666667
1.0715726128057146,0.6090003277548662,-0.2110082358121872,0.9999859929084778,1.042335871877409,0.743002544827166,0.04775557667016983,0.999992847442627,0.9494107232096398,0.7327537514292811,-0.29842984676361084,0.9999974966049194,1.0626408682980963,1.1174537281135526,0.10937239229679108,0.9999898076057434,1.0000952415015985,1.128212798198244,-0.10943903774023056,0.9999935030937195,1.0514216886850931,1.3744108505300245,0.2437889277935028,0.7874302864074707,1.0221481858250088,1.3946255811882873,-0.10711441189050674,0.9842446446418762,1.0568118776630815,1.6090003277548663,0.4260704517364502,0.9111149311065674,0.9406199384659117,1.6718145273905367,0.0030565797351300716,0.9878655076026917,1.1118259914935933,1.0873924193969766,0.0001905507524497807,0.7884095311164856,0.9835419524180015,1.133824495376631,-0.4612230360507965,0.9978108406066895,0.005217760801315308,1.0313680548998474,1.1228332631558984,176.18369785038092,158.8780582157988,1.0,-0.025872013111793504,0.0037899354969367855,-0.03292515772395567,-0.2426543325349689,96.65658673014276,0.993826437671561,33,1.1
1.070710174155544,0.609173958968116,-0.2113066464662552,0.9999859929084778,1.0397872929756247,0.7420830767867653,0.0470024012029171,0.9999930262565613,0.9488444241333496,0.7323383744916837,-0.3007746934890747,0.9999976754188538,1.0588549868000317,1.116689054323264,0.1103360652923584,0.9999904632568359,0.9985558483809929,1.1282567807737813,-0.11039906740188599,0.9999940395355225,1.0505133535597662,1.3744132055045253,0.24762502312660217,0.7699901461601257,1.0204184440581592,1.3948443488738373,-0.1020812839269638,0.9849922060966492,1.055156853756781,1.609173958968116,0.430242121219635,0.9078790545463562,0.9400132529308928,1.670846963878536,0.005876769777387381,0.9882615208625793,1.1097212875743794,1.0861737215436673,-0.004149648826569319,0.7620883584022522,0.9838663152293241,1.133830081227018,-0.4654078483581543,0.997969925403595,0.00496247410774231,1.0287054175905124,1.1224729175485226,177.01303603658255,159.06979995237188,1.0,-0.018613176349936145,-0.0004271426710280186,0.056669719783961466,-0.03294663252317843,97.94574986951207,0.9933274513883344,34,1.1333333333333333
1.0709400091491827,0.609979108409619,-0.20379853248596191,0.9999859929084778,1.0365966726273559,0.7416246421581064,0.04445882514119148,0.9999932646751404,0.9489423958059668,0.7325614122647178,-0.3046490550041199,0.9999978542327881,1.0558007054344307,1.1174364301300985,0.10918068885803223,0.9999909996986389,0.9954542742568543,1.1298337894555581,-0.1092531830072403,0.9999944567680359,1.0495740383828887,1.3754376469374507,0.23555871844291687,0.7633153796195984,1.0123834827330984,1.400180372280283,-0.07618852704763412,0.9855194091796875,1.0541167780238807,1.6099791084096189,0.4074282646179199,0.9085327982902527,0.9401630212702399,1.6725604321205991,0.028063569217920303,0.9886062145233154,1.100892604484739,1.085054904172176,0.014035165309906006,0.7319203615188599,0.988780394494541,1.135394145869685,-0.45475783944129944,0.998124897480011,0.004613161087036133,1.0256274898456426,1.1236351097928283,177.50787718151796,161.56675591269567,1.0,-0.02975738333055284,0.005053360638103682,-0.09242456472129604,0.045491800578547285,98.6838472625474,0.9946584574530895,35,1.1666666666666667
1.0675675675675675,0.6059184103062634,-0.19482295215129852,0.9999831914901733,1.026288989645749,0.7381475962620124,0.04591723531484604,0.999993085861206,0.9458362566295452,0.7280845067987518,-0.3075788617134094,0.9999979734420776,1.0427187904691082,1.1146371339571723,0.1101975068449974,0.9999913573265076,0.9806900077121286,1.126929112665997,-0.11027351766824722,0.9999948740005493,1.0460640225817477,1.3711900484805752,0.23463919758796692,0.7410237789154053,1.0029709567454959,1.3963097196415835,-0.07837440073490143,0.9854302406311035,1.0506501807946274,1.6059184103062634,0.39884066581726074,0.9029420018196106,0.93728860859511,1.6696290959147213,0.02018316462635994,0.9885386824607849,1.084233685203577,1.081696112232146,0.028098320588469505,0.6759536862373352,0.9911589710090787,1.1324556318980736,-0.4448467791080475,0.998235285282135,0.005134671926498413,1.0117043990906183,1.1207831233115848,179.6277347809019,161.75900855759667,1.0,-0.08458447566886391,-0.0007265933765350345,-0.4070083217062914,-0.04275860167551603,98.71007130125544,1.0011400571769897,36,1.2
1.055127848428959,0.5926735944388747,-0.20170578360557556,0.9999790191650391,1.003736029136567,0.722626237032874,0.03260430321097374,0.9999926090240479,0.9373946481201596,0.7213419281409161,-0.3401719927787781,0.9999980926513672,1.0240393591350185,1.1035639788979668,0.11369039863348007,0.999991774559021,0.9621864265505476,1.1148317894806232,-0.11376675218343735,0.999995231628418,1.034114675790931,1.3589749070568982,0.24358177185058594,0.7305660843849182,0.983607060680887,1.3828768044174988,-0.06980522722005844,0.9857079982757568,1.0400783039731087,1.5926735944388748,0.4070056974887848,0.9034934639930725,0.928758885849437,1.6557418443546916,0.021421361714601517,0.988945722579956,1.0494484121832723,1.0686489199055482,0.04877341166138649,0.618518054485321,0.9863849123161289,1.1228709572234368,-0.4568791389465332,0.9983466863632202,0.0006607472896575928,0.993112892842783,1.109197884189295,179.20277954850752,164.06547834284984,1.0,-0.08101779002008015,-0.018707620508957717,0.02263975738002764,-0.14181857571328899,97.27353303166211,1.0099956847725529,37,1.2333333333333334
1.0461004352778835,0.5862939067207648,-0.20864252746105194,0.9999775886535645,0.9839718942561515,0.7138245957775659,0.031409356743097305,0.9999923706054688,0.9329027600346894,0.7176620611316994,-0.3445836305618286,0.9999982118606567,1.01446463841402,1.0965340469542944,0.11644228547811508,0.9999922513961792,0.9528048262584101,1.1059645488770051,-0.11652928590774536,0.9999955892562866,1.029074219554907,1.3524364849324713,0.23910358548164368,0.7248446345329285,0.9754809256178602,1.3713792424718858,-0.07312925159931183,0.9862409830093384,1.035495977983465,1.5862939067207649,0.39948275685310364,0.9050743579864502,0.9238576766199771,1.6495770312939073,0.011549565009772778,0.9894369840621948,1.0333725728002807,1.0669458976192379,0.05907551571726799,0.5661759376525879,0.9881482511570339,1.1190347621549812,-0.46186691522598267,0.9984638690948486,0.001983642578125,0.983634732336215,1.1012492979156498,178.30546101437514,164.6042968966292,1.0,-0.034969439191029676,-0.01982003844912519,0.33307625300201865,-0.00875716132086946,94.14019132391962,1.0039228203537558,38,1.2666666666666666
1.037776552536938,0.5834626501239235,-0.22676053643226624,0.9999758005142212,0.9562720980025152,0.7083534241676533,0.014557918533682823,0.9999918341636658,0.9295776420155768,0.7150597025284804,-0.37001651525497437,0.9999983310699463,0.9941202995491686,1.0931625585602813,0.11983518302440643,0.9999926090240479,0.9440037995234278,1.1023488004795141,-0.11993101984262466,0.9999958872795105,1.0220858216090196,1.3474226581403388,0.2656249403953552,0.7099854350090027,0.9685370639695229,1.3656541422435666,-0.037698619067668915,0.9857178926467896,1.0320654312316597,1.5834626501239235,0.4373358190059662,0.9027320146560669,0.9195554566782623,1.645899562222827,0.08574763685464859,0.9893170595169067,1.0170493616285825,1.0687450127233014,0.048083413392305374,0.5179140567779541,0.9866800641313221,1.1180684897882636,-0.4869561791419983,0.998552143573761,0.0034784674644470215,0.9690620495362982,1.0977556795198977,176.14437382091654,164.7628036171662,1.0,-0.08149518114007769,0.0019745648081660075,-0.33911732575520415,0.15795688902809804,94.76958181846642,1.0036593530891693,39,1.3
1.0287806004669096,0.5750732235944833,-0.23623020946979523,0.9999755620956421,0.940405450131856,0.7018617913691519,0.0013471250422298908,0.9999915361404419,0.924635207988043,0.7105843250555489,-0.37201473116874695,0.9999984502792358,0.9832407170908474,1.0829471140099096,0.11771217733621597,0.999992847442627,0.9364079079595977,1.0951188594956858,-0.11779558658599854,0.9999961256980896,1.0156168993889207,1.3378100882843906,0.27249354124069214,0.7048112154006958,0.9591991107377592,1.3584134563039731,0.0017708039376884699,0.9858980774879456,1.028354921436557,1.5750732235944833,0.4566590189933777,0.9024944305419922,0.9142169309033431,1.640915962054898,0.1190841943025589,0.9898009896278381,1.0076356461836828,1.045917382032813,0.14620432257652283,0.48931556940078735,0.9819244727206783,1.113888287031118,-0.48777204751968384,0.9986209273338318,0.004548311233520508,0.9598243125252225,1.0890329867527977,175.83339028606895,166.0055993835193,1.0,-0.030541819263495293,-0.02167498993852514,0.3748326888027026,-0.17538088751595932,98.1554145887749,0.998988370797774,40,1.3333333333333333
1.0256388446931828,0.5759170575685895,-0.23500528931617737,0.9999732375144958,0.932247553726221,0.6985211291678056,0.004852719604969025,0.9999901652336121,0.9249801562327263,0.7103690843537597,-0.3769766688346863,0.9999985098838806,0.9673045138840063,1.0831394114538122,0.12180261313915253,0.9999932646751404,0.9328700472466294,1.0951932639455983,-0.12191174179315567,0.9999964237213135,1.009392735563495,1.3385516467840293,0.29635825753211975,0.7001007795333862,0.9534925316211275,1.3607602034919315,-0.012981444597244263,0.9863061904907227,1.0280711995398693,1.5759170575685895,0.4897550940513611,0.9045379161834717,0.9143529514252701,1.6430833653154384,0.10983520746231079,0.9902793169021606,0.9959378439362443,1.0524937524858298,0.07512456923723221,0.44598349928855896,0.9818835522121157,1.1149614631352935,-0.4755578935146332,0.9986566305160522,0.006177127361297607,0.9500872805653179,1.0891663376997052,175.14195849665555,167.66679977540755,1.0,-0.07587625036122113,-0.0002155600238810367,-0.3481485384707362,0.1648401379089016,104.08472694805266,0.9961897063187148,41,1.3666666666666667
1.026621448478588,0.5785870147652923,-0.2574808895587921,0.9999716877937317,0.9335633807218339,0.6977973191910383,-0.01275816559791565,0.9999895691871643,0.9283201695424024,0.7099533053113596,-0.4011871814727783,0.9999985694885254,0.9685456068087605,1.081439585180751,0.12361319363117218,0.9999937415122986,0.9288536592987855,1.0921632797463974,-0.12370886653661728,0.9999967217445374,1.0128353483982262,1.3405513855165903,0.28841009736061096,0.6956600546836853,0.9547880619625645,1.36261437503745,-0.030171791091561317,0.9869135022163391,1.0280012740909703,1.5785870147652923,0.4815254211425781,0.9074931740760803,0.9174662562281805,1.6471180859277454,0.08956460654735565,0.9908600449562073,0.9893912717887762,1.0674733233619373,0.04649380221962929,0.40592721104621887,0.9857844819504257,1.11832595226402,-0.4866882860660553,0.9987030029296875,0.0063180625438690186,0.948699633053773,1.0868014324635742,173.94577476511242,167.04896872403643,1.0,-0.03354210458351687,-0.04442913828486189,0.32868099984746013,-0.3413636229209522,99.90873748181197,0.9763608779956632,42,1.4
1.0233421549081725,0.5803891660245986,-0.25350531935691833,0.9999716281890869,0.9333294971161975,0.6896252381851076,-0.007233620621263981,0.9999889731407166,0.9306565812096604,0.7088423866045735,-0.39434027671813965,0.9999986290931702,0.9745252379494158,1.0793882525182072,0.12385457754135132,0.999994158744812,0.9290777919876217,1.0890065418232842,-0.1239607185125351,0.9999970197677612,1.0156377968716128,1.3410645180631504,0.27633970975875854,0.6940075755119324,0.9539003779631975,1.3651468022763675,-0.03460098057985306,0.9875091910362244,1.0295917780170847,1.5803891660245986,0.4627740979194641,0.9098312854766846,0.9205717373849918,1.651173350700168,0.061225198209285736,0.9914059042930603,0.9944000235921605,1.070153853193642,0.04519517719745636,0.3698579967021942,0.990511111166042,1.1217569905141005,-0.49285420775413513,0.9987430572509766,0.009962737560272217,0.9518015149685187,1.0841973971707457,174.40800898297752,168.2171199957891,1.0,0.0051472227475102056,-0.04022278260294519,0.2904220795203462,0.03235254717536151,95.91605594558025,0.9563366624287958,43,1.4333333333333333
1.0192841916544937,0.5828469853468842,-0.24839158356189728,0.9999721050262451,0.9250576797186254,0.6895804191656797,-0.0015325014246627688,0.9999884963035583,0.932993697307823,0.7048626583842262,-0.3891521692276001,0.9999986886978149,0.9566303332470971,1.0778213399037935,0.12677434086799622,0.9999944567680359,0.9277851477481202,1.0843261968386868,-0.12689180672168732,0.9999972581863403,1.0124569996826744,1.3399666713172431,0.2751008868217468,0.6816403865814209,0.9543432400590476,1.3634635020636525,-0.056494973599910736,0.9879610538482666,1.0283503396062756,1.582846985346884,0.4517149329185486,0.9083876013755798,0.9223715544109086,1.653660388426963,0.03290789574384689,0.9916810393333435,0.9829031722938353,1.084086201762962,0.04524240270256996,0.33676671981811523,0.9955130479184602,1.123419022362094,-0.46328943967819214,0.9987273812294006,0.00790974497795105,0.9422077404976086,1.0810737683712401,171.72176626995864,168.2779831547869,1.0,-0.08590770539839834,-0.03778106739309151,-0.7009627350749967,0.019304787635216588,98.05895884672911,0.9367331213680768,44,1.4666666666666666
1.0218770429655635,0.5846353022028303,-0.2591169476509094,0.9999716877937317,0.929275497291072,0.6919771839818876,-0.005719422362744808,0.9999880790710449,0.9350811294933137,0.706223850545178,-0.4088900089263916,0.9999987483024597,0.956716468069974,1.0776432548133212,0.12937849760055542,0.9999947547912598,0.9274131110767421,1.0823324237185734,-0.12948380410671234,0.9999974370002747,1.0105664535175598,1.3387743817789133,0.273847758769989,0.6748731732368469,0.9549124759758346,1.3631519958597242,-0.06028749421238899,0.988409161567688,1.0269501258298177,1.5846353022028303,0.4472862184047699,0.9098452925682068,0.9233399338480509,1.6556163816432174,0.03443593531847,0.9920452833175659,0.9805911894513356,1.0881163814991057,0.04053662344813347,0.30771687626838684,0.997206708902198,1.1245712600511528,-0.47728094458580017,0.9986821413040161,0.007365524768829346,0.942064789573358,1.0799878392659472,172.1603460812499,168.24570404441764,1.0,-0.008760554247101197,-0.01680533208732685,0.5658586982686035,0.15397083841289727,95.02162220931673,0.9271722650533886,45,1.5
1.0253549904887809,0.5884431886691867,-0.2555971145629883,0.9999719858169556,0.930648653528971,0.6910150331617515,-0.006624353118240833,0.9999877214431763,0.9374858368587509,0.708075036820557,-0.40804654359817505,0.9999987483024597,0.9513072720173992,1.079941318166986,0.1298159509897232,0.9999949336051941,0.9279676860585475,1.0842947999039492,-0.12992896139621735,0.999997615814209,1.0031208443834476,1.3400083331114212,0.28941431641578674,0.6649136543273926,0.9558238230288821,1.3650414018620165,-0.036954037845134735,0.9884916543960571,1.0196747729752795,1.5884431886691865,0.4640985131263733,0.9092642664909363,0.9269021614968084,1.6588274227412378,0.0760195180773735,0.9921388626098633,0.9869691879941503,1.0982681557823943,0.04039108008146286,0.2821137309074402,1.0018210268789345,1.1288818559929057,-0.4765849709510803,0.9986399412155151,0.00880172848701477,0.9396374790379733,1.0821180590354675,172.5445527663973,168.7112188473655,1.0,-0.03314763954199943,-0.0008628320202205285,-0.18421017531125503,0.12077715874774758,97.52530930043349,0.9235066754160042,46,1.5333333333333334
1.0406383023584342,0.6106637913463949,-0.2189323604106903,0.9999715089797974,0.9351825344206761,0.7008881904927012,0.01976226642727852,0.9999865889549255,0.95251662758199,0.7179360010870304,-0.39577171206474304,0.9999987483024597,0.9475008258150971,1.0951720858098024,0.1314946860074997,0.9999950528144836,0.9376490859808223,1.0991446664058417,-0.13163623213768005,0.9999977350234985,1.0072344916610245,1.3579963500144079,0.2968387007713318,0.6495234966278076,0.9677331785564518,1.384084376046911,-0.030336886644363403,0.9883694052696228,1.0191162724229297,1.6106637913463948,0.46950727701187134,0.9041470885276794,0.9420328170719994,1.6808393326945468,0.08110369741916656,0.9919789433479309,0.9879310344827587,1.1141912517482682,0.06288550794124603,0.2571989893913269,1.0195971193695224,1.1454664508224182,-0.4311031699180603,0.9985800981521606,0.008674710988998413,0.9425749558979597,1.097158376107822,169.88792378997587,169.02327733584664,1.0,-0.07557838460704683,-0.00014624722794406684,-0.3128327144002474,0.005430803242187459,110.17162513425204,0.9024747373377786,47,1.5666666666666667
1.0243000845484969,0.6074617692358908,-0.18152745068073273,0.9999722242355347,0.9187820795432166,0.696414518741117,0.049426887184381485,0.9999849796295166,0.9512813627291429,0.7147949841787853,-0.36203888058662415,0.9999987483024597,0.9366773035384321,1.0894426550490122,0.13352222740650177,0.9999949932098389,0.933779847187716,1.094195957320208,-0.1336645781993866,0.9999977946281433,0.9976873053539336,1.3521121324586123,0.30314573645591736,0.6445472240447998,0.9636022277147198,1.3785209738223814,-0.029819305986166,0.9888955950737,1.0027262838317879,1.6074617692358908,0.46643882989883423,0.9023400545120239,0.9376974008012693,1.6733670369069173,0.07673625648021698,0.99223792552948,0.9697515538162085,1.1086962985575217,0.09843695908784866,0.2339341640472412,1.0171575963693702,1.1447812845471443,-0.3904847502708435,0.9985323548316956,0.009395688772201538,0.935228575363074,1.09181930618461,168.0543269531356,168.9911881295049,1.0,-0.023785962888374212,-0.0026078094975073123,0.4016840166538789,-0.0192241686262296,146.02792075395155,0.8958872772521328,48,1.6
1.0054659756709245,0.5974354142922809,-0.12127278745174408,0.9999726414680481,0.9035382745111028,0.6859897907151028,0.08714262396097183,0.9999815225601196,0.9482024772403499,0.7093562373815664,-0.308726966381073,0.9999986886978149,0.9211024276612626,1.0821963593593238,0.13194847106933594,0.9999951124191284,0.9278615593451021,1.0871257783575066,-0.13209447264671326,0.9999979138374329,0.9714809647458061,1.3436511726131652,0.2991444170475006,0.6469706892967224,0.954372184105299,1.373927074848903,0.005553551949560642,0.9892113208770752,0.9742497963736737,1.5974354142922809,0.4658854007720947,0.9006875157356262,0.9316732774046639,1.6619232030244517,0.1197492927312851,0.9924361705780029,0.9545214656833616,1.0707874944887998,0.13280194997787476,0.21243105828762054,1.0145496844182806,1.1411632775656424,-0.32517334818840027,0.9981080293655396,0.012025952339172363,0.9244819935031824,1.084661068858415,169.71868508558924,170.2122940038853,1.0,-0.0317920048072889,0.0017655492358048296,-0.05893988807253485,0.031432974192013644,128.64148985643138,0.9049889155947496,49,1.6333333333333333
0.9750884346811304,0.5655143173679438,-0.1372193843126297,0.9999746084213257,0.8788024184122416,0.666610404866659,0.07957269251346588,0.999980092048645,0.9310175946130568,0.6931990228297461,-0.3189184069633484,0.9999986290931702,0.8975058190884292,1.0626991428953456,0.13270829617977142,0.9999951720237732,0.9116528098533835,1.0674552641943462,-0.13284848630428314,0.9999979734420776,0.9486369370901738,1.3193045700423596,0.32584714889526367,0.6518306136131287,0.9367358893359008,1.351175051096099,0.021447332575917244,0.989776074886322,0.9374074494337361,1.5655143173679438,0.5134654641151428,0.8995743989944458,0.9144072124860947,1.6310842332947364,0.15061534941196442,0.992746889591217,0.9284318068326421,1.0523219959268655,0.13614721596240997,0.19393722712993622,1.0033819614171016,1.1212130445816304,-0.3324066400527954,0.9978222846984863,0.013938665390014648,0.9045793144709063,1.065077203544846,166.1194401230559,170.38684193638022,1.0,-0.022998099353501833,0.0015933918436794254,0.06230517851158975,-0.0010614976967068719,111.2858032466298,0.9454022342465954,50,1.6666666666666667
0.980333004450364,0.5655009032979345,-0.1251058429479599,0.9999761581420898,0.8842022350421914,0.6691044751947446,0.07415695488452911,0.999979555606842,0.9373152036238818,0.6970464226294374,-0.3148086667060852,0.9999986290931702,0.902552554176559,1.069896873128144,0.13181231915950775,0.999995231628418,0.9195916906776415,1.0755975875658774,-0.1319473683834076,0.9999980330467224,0.9555966788027744,1.3265194413212866,0.339862197637558,0.6610040068626404,0.9430813856302463,1.3641988884133334,0.016535572707653046,0.9903721809387207,0.9369852905704211,1.5655009032979346,0.536329984664917,0.8978257775306702,0.9203850271321297,1.6410740549793665,0.1410685032606125,0.9930247068405151,0.9317581286942465,1.0604558087902916,0.13005132973194122,0.17682595551013947,1.0141773339030844,1.1296393486640752,-0.3299683928489685,0.9973554611206055,0.01455146074295044,0.9110721224271002,1.0727472303470107,163.86828902132004,170.66062337861783,1.0,0.003835156858566521,0.004715550220963758,0.21400006644933295,0.024674870787307266,111.11994741366416,0.9644306829817958,51,1.7
0.986886684220657,0.5691067813969751,-0.12068577110767365,0.9999783635139465,0.8826738240373692,0.6695260371032785,0.06228623539209366,0.9999803304672241,0.9420979780076096,0.6986533028062168,-0.31701838970184326,0.9999986886978149,0.8968125591971271,1.0750054370047388,0.13145001232624054,0.9999954104423523,0.9242280212989537,1.0813421205344818,-0.13159817457199097,0.999998152256012,0.9484191231425813,1.3309684393414036,0.3353377878665924,0.6590428352355957,0.9435635181196318,1.3719095293878922,0.054348886013031006,0.9906632304191589,0.9331163844689674,1.569106781396975,0.5415465235710144,0.8910585641860962,0.9215410830857463,1.6439052882661782,0.2096596509218216,0.9929043054580688,0.9331140909789641,0.8702810081425202,0.3063516914844513,0.1657753884792328,1.0189071302253372,1.131336188995961,-0.34973573684692383,0.9967946410179138,0.015139549970626831,0.9105202902480404,1.0781737787696102,164.9242320441361,171.56400819667493,1.0,-0.01760619843447952,0.025607266893913117,-0.16356773541498992,0.15925045855774048,105.0115816990268,0.9738207313373851,52,1.7333333333333334
0.9950700671647289,0.5781555357435406,-0.12164660543203354,0.9999799728393555,0.8886669997022049,0.6708445794315699,0.08469870686531067,0.9999790787696838,0.9477809998882836,0.7011476813543948,-0.3145187497138977,0.9999986886978149,0.898987508169766,1.080819147522023,0.13269466161727905,0.9999953508377075,0.9298320138154793,1.087455608872242,-0.13285769522190094,0.9999982118606567,0.9488481278395305,1.3409828898668845,0.322204053401947,0.6505025625228882,0.9476854241458912,1.3795854595285153,0.03384808823466301,0.9902455806732178,0.9292488173222444,1.5781555357435406,0.5156737565994263,0.8755815625190735,0.9255671336581217,1.652102683626192,0.16198213398456573,0.9921939373016357,0.9285096905617167,0.9091115617940985,0.19013354182243347,0.1517191380262375,1.0252842225432164,1.1370011975213947,-0.35016241669654846,0.9967085719108582,0.015666574239730835,0.9144097609926227,1.0841373781971326,164.42673031357248,171.8626177525551,1.0,-0.007810991694377872,0.0013492592282601872,0.07718658832698638,-0.1903996853255029,103.58459940421419,0.9646390634529872,53,1.7666666666666666
0.9917452569126209,0.5785340935924966,-0.12111993134021759,0.999981701374054,0.8833377609528237,0.6692233286658844,0.07846304774284363,0.9999786615371704,0.9475010584777844,0.7013330824348956,-0.3141985535621643,0.9999987483024597,0.8929333578697247,1.082651779718551,0.1321491152048111,0.9999953508377075,0.9327482649266122,1.0915932650373026,-0.13230600953102112,0.9999982714653015,0.9398458888630611,1.341361622132194,0.3179014325141907,0.640558660030365,0.9458156228553718,1.379331803037347,0.0407683290541172,0.9902465343475342,0.912230457133264,1.5785340935924967,0.5118316411972046,0.863768994808197,0.9236135324655199,1.6511970945591936,0.15676690638065338,0.9920324683189392,0.9341528234376038,0.9389906895463904,0.2798317074775696,0.13941697776317596,1.0261022005268867,1.1363179870196956,-0.35281044244766235,0.99671870470047,0.01659885048866272,0.9128408113981684,1.0871225223779268,163.0806965619341,172.73101241284206,1.0,-0.013051867399565799,0.022493312209188886,-0.04106094204501423,0.1656833244888235,103.98686164301087,0.9751848912829906,54,1.8
0.9980391171057559,0.6032129198313239,-0.06785134226083755,0.9999831318855286,0.8795707285304329,0.6760404177661646,0.10591013729572296,0.9999769926071167,0.9573117807293241,0.7079419772319255,-0.27961447834968567,0.9999987483024597,0.8904795289132759,1.0968470623067077,0.13159418106079102,0.9999950528144836,0.9440274944899993,1.1049154396164682,-0.1317977011203766,0.9999982714653015,0.9299236036579561,1.358629409309777,0.2943434417247772,0.6367060542106628,0.9522639242004535,1.3933878595873312,0.02686425670981407,0.9897039532661438,0.9088928465772358,1.6032129198313239,0.4364985525608063,0.856248676776886,0.9319116612305672,1.6663202040649594,0.13268640637397766,0.9911086559295654,0.9260358789547886,0.9808584358697375,0.21486802399158478,0.12874934077262878,1.0374162152876942,1.1441819770084765,-0.3020097315311432,0.9968596696853638,0.016338586807250977,0.9172535117016376,1.100881250961588,166.51686384203313,174.09995200738155,1.0,-0.0303472387044453,0.026565956112556324,-0.12664100311708318,0.02848303103581471,100.0536019963039,0.9443450964398888,55,1.8333333333333333
0.9911234900628778,0.6010455663783378,-0.0572366826236248,0.9999845027923584,0.8773273951191468,0.6748872412202614,0.11656679213047028,0.9999754428863525,0.9544289796519223,0.7060196369797155,-0.2707023024559021,0.9999987483024597,0.8869582897395385,1.098154551435881,0.13146480917930603,0.9999947547912598,0.9422513621833881,1.105098534499971,-0.1316448152065277,0.9999982714653015,0.9258945429282369,1.3573229712834225,0.2935139834880829,0.6212713122367859,0.9481373730968701,1.3904571759182027,0.02778879925608635,0.9887353777885437,0.9046225311686324,1.6010455663783378,0.4465939402580261,0.8415737748146057,0.9277518112108376,1.6614015633013814,0.14088860154151917,0.9898825883865356,0.9268873528606069,0.9628021796326812,0.23274104297161102,0.11930840462446213,1.0347734725131779,1.1390837356553907,-0.30373865365982056,0.9969808459281921,0.01598992943763733,0.9146048259614633,1.1016265429679262,166.46793552303365,174.51557857013296,1.0,-0.00037326297306679247,0.027979590697317543,0.21651271580876424,0.010785448069860438,98.46148463660495,0.9561824831548931,56,1.8666666666666667
0.9859057870731316,0.6029405755412839,-0.02097189612686634,0.9999856352806091,0.8660620303265085,0.6846292232485868,0.1287567913532257,0.999971866607666,0.9535560296303294,0.7051333430803045,-0.23800650238990784,0.9999986886978149,0.8807119479460805,1.1016431981132087,0.1265503615140915,0.9999948143959045,0.9406606825820121,1.107756470651835,-0.1267280876636505,0.9999983310699463,0.9161704914267749,1.3579314704579375,0.2899142801761627,0.6330369710922241,0.9433353695473828,1.3889090117925618,0.037587475031614304,0.9889087080955505,0.8964267395304854,1.602940575541284,0.44926685094833374,0.8442519307136536,0.9252863404302165,1.657285149030842,0.16230475902557373,0.9896998405456543,0.9124612595517713,0.6277436653079944,0.4203124940395355,0.11377385258674622,1.0341510949541366,1.1349516778276432,-0.2811572551727295,0.9964650869369507,0.010557562112808228,0.9106863152640463,1.1046998343825218,167.5157452081047,175.60744064415908,1.0,-0.012186242456919518,0.04361934402540366,-0.08837608662630428,0.11751990554509016,97.83461324474234,0.965648232707501,57,1.9
0.9765972656655451,0.597208689963846,0.004733973648399115,0.9999847412109375,0.849411128966265,0.6905245936272612,0.1362878382205963,0.9999692440032959,0.9542763788477954,0.7011371993225586,-0.23013249039649963,0.9999985694885254,0.870161371714946,1.0983766320018356,0.12464134395122528,0.999994158744812,0.9351276491135019,1.102925842408067,-0.12483757734298706,0.999998152256012,0.903051716557213,1.3478867596265638,0.28465038537979126,0.6384374499320984,0.9341150559034879,1.3793591985641465,0.031070047989487648,0.9884889721870422,0.8855588360663347,1.597208689963846,0.41227254271507263,0.8412535190582275,0.9172154558858386,1.6435896819460105,0.1476839929819107,0.9884985685348511,0.8864197812791781,0.9915556221386338,0.28554973006248474,0.10424488037824631,1.027532632003901,1.1248011377214553,-0.2504566013813019,0.9963008761405945,0.0055122971534729,0.902644510414224,1.1006512372049513,168.47718537757174,176.5503497308373,1.0,-0.001012002492806648,0.04219282006570876,0.0842197295375175,-0.0079720766537286,96.91807143539452,0.9790164611680606,58,1.9333333333333333
0.9743708045364792,0.5976638332700149,0.006510066334158182,0.9999841451644897,0.8408090125581498,0.6999619745555389,0.13141049444675446,0.9999663829803467,0.9580798160275298,0.7025686222156029,-0.23304720222949982,0.9999984502792358,0.8666781332008142,1.1007622644393134,0.12331372499465942,0.9999933838844299,0.9371300794919966,1.1046823045255212,-0.12351028621196747,0.9999979734420776,0.898369025120086,1.3489890154198112,0.28118032217025757,0.641930103302002,0.9323474676534158,1.3805057292319858,0.019935153424739838,0.9880842566490173,0.884714517148569,1.597663833270015,0.4037455916404724,0.8355036973953247,0.9157516674570467,1.6431715928587893,0.1266210377216339,0.9868974089622498,0.8800035042156724,1.0446267717717184,0.23436906933784485,0.09540601819753647,1.0295747082373279,1.1242128566620888,-0.23626217246055603,0.9962233304977417,0.0013540685176849365,0.9019041063464054,1.1027222844824174,169.58155362589068,177.37810841623343,1.0,-0.005151918856918029,0.017611108863404053,-0.03326252354683857,-0.19746138132251437,96.87768684561334,0.9855722283858009,59,1.9666666666666666
0.9664871798300825,0.5945163416689613,0.009110766462981701,0.9999845623970032,0.8340280547195391,0.6992919396888567,0.13914799690246582,0.9999641180038452,0.9565413939302291,0.7029659733969029,-0.22527985274791718,0.9999983906745911,0.860966510840134,1.0973210020858786,0.12251788377761841,0.9999924302101135,0.9337880112211563,1.1007646621588645,-0.12272433191537857,0.9999977946281433,0.8923471604377774,1.3459394746566713,0.271524578332901,0.647472620010376,0.9267836468666499,1.3754717630275404,0.006511951796710491,0.9881522059440613,0.882178830520329,1.5945163416689612,0.3738822340965271,0.8344226479530334,0.9112959777140511,1.6368405104636266,0.09730644524097443,0.9862591028213501,0.8737031838882247,1.04734929729469,0.2366403043270111,0.0878019779920578,1.0266871082548057,1.1191260866737511,-0.21848860383033752,0.9963281750679016,0.0019159018993377686,0.8973772610306451,1.0990428321223715,170.46371719997717,178.069432941596,1.0,-0.007759174783903317,0.004073399681988865,-0.01920046402288304,-0.09844925001991374,96.57929853532958,0.9856764580240426,60,2.0
0.9482486971830523,0.5946170718944339,0.1360057294368744,0.9999826550483704,0.8257916507089349,0.7073061284950577,0.2066343128681183,0.9999618530273438,0.9581108469640804,0.7046419805344544,-0.14120937883853912,0.9999983906745911,0.8564720014914655,1.096678785109654,0.11955685913562775,0.9999918341636658,0.9343089717583737,1.1006849547274935,-0.11977119743824005,0.9999976754188538,0.8903913501861845,1.3457558093432813,0.26144933700561523,0.6558385491371155,0.9245006766421285,1.375759260729813,0.007438837084919214,0.9878756403923035,0.8811456705223062,1.594617071894434,0.3565802276134491,0.8308996558189392,0.9082619516050091,1.6372461834508274,0.1034601479768753,0.9848276972770691,0.8691026926703516,1.0510562231837928,0.30973124504089355,0.081708624958992,1.027692445957101,1.1142772546767088,-0.1394532024860382,0.9963938593864441,0.0013887882232666016,0.8953904866249196,1.0986818699185736,170.11748378974053,178.48853514128157,1.0,-0.01925815023802152,-0.006248226428047814,-0.09618285367163243,-0.0863673711682255,97.4516141203956,0.97984841225834,61,2.033333333333333
0.9344449364036155,0.594755448695322,0.17051443457603455,0.99997878074646,0.816187337747715,0.7141644488522768,0.20828473567962646,0.9999608397483826,0.9566314763550029,0.7042248364597491,-0.11776578426361084,0.9999983906745911,0.8520633841414448,1.0951247607696222,0.11380132287740707,0.9999912977218628,0.9333487089612952,1.0978327446958083,-0.11402373015880585,0.9999975562095642,0.8857398932661832,1.3441498477173133,0.24980683624744415,0.6573864817619324,0.9210423236434893,1.3742433557525067,0.011067729443311691,0.9867327809333801,0.8794078989604203,1.594755448695322,0.3375478684902191,0.8234127163887024,0.9058488386146216,1.6357205309412237,0.10488323122262955,0.9819061160087585,0.8613787757390411,1.053038262924152,0.3310099244117737,0.0758599191904068,1.0270525378125073,1.1105330590851341,-0.10944737493991852,0.9964025020599365,0.005186349153518677,0.89270604655137,1.0964787527327151,170.851047793388,179.22373639162223,1.0,-0.013755308787593198,-0.00867936136323627,0.04122374958899036,-0.018318339683259237,97.28790717150589,0.9704976027877011,62,2.066666666666667
0.9289894654029855,0.6023571652158893,0.18653123080730438,0.9999717473983765,0.820009164012001,0.7205124960800465,0.20722758769989014,0.9999587535858154,0.960312138758176,0.709278060052683,-0.10731444507837296,0.9999983906745911,0.8532894470692233,1.098576135179793,0.11005981266498566,0.9999908804893494,0.9364407195442209,1.0991621269803835,-0.11027850210666656,0.9999974370002747,0.8890630070296637,1.3503370801346082,0.2360607385635376,0.661411702632904,0.9231948488727032,1.3792088249952015,0.006072637625038624,0.9859539270401001,0.8823076324972966,1.6023571652158894,0.30536729097366333,0.8180617690086365,0.9088196299219624,1.6433458341474498,0.0711788758635521,0.9793713688850403,0.8617325032356652,1.0574685693611559,0.316697895526886,0.07021069526672363,1.0324686626079906,1.113619345762993,-0.08689567446708679,0.9963300824165344,0.005834728479385376,0.8948650833067221,1.0988691310800882,170.37734794187568,179.59284829305665,1.0,-0.014981113462230087,-0.020350829290728234,-0.008662564992169905,-0.0867383348384406,95.43445387528112,0.9498047970320435,63,2.1
0.9099091682681406,0.6021024308604925,0.18922623991966248,0.9999665021896362,0.8123048427358848,0.7235444002146222,0.1865384578704834,0.9999589323997498,0.9593665003150244,0.7083715584636253,-0.1008739247918129,0.9999983906745911,0.8475903760092495,1.0940625215902524,0.10264185816049576,0.9999906420707703,0.933422220725107,1.0951153525299393,-0.10283561795949936,0.9999973773956299,0.8843960349211271,1.347971338341871,0.23760215938091278,0.6645376682281494,0.9204935621948792,1.3766808888785007,0.007129475474357605,0.9854016304016113,0.878631015008541,1.6021024308604925,0.32240355014801025,0.8131210207939148,0.9070993275928898,1.6407927362112547,0.08894969522953033,0.9768703579902649,0.8561362490872658,1.052822117401248,0.30935782194137573,0.06577073782682419,1.0307386762240665,1.1059016851367518,-0.05101095512509346,0.9961847066879272,0.007893264293670654,0.8905062983671782,1.0945889370600959,170.45252578263754,179.7257812117368,1.0,-0.023172850294217166,-0.01981522553222251,-0.06620923939015345,0.004044133918028112,96.14280630119029,0.9354726132483231,64,2.1333333333333333
0.907224367842248,0.6015642334814232,0.17426088452339172,0.9999560117721558,0.8085801388363488,0.7253330418399055,0.1804095059633255,0.9999585747718811,0.9594434560899926,0.7087636914686439,-0.1111770048737526,0.9999983906745911,0.8453686374956682,1.0919546610847508,0.09841053187847137,0.9999902248382568,0.9317943190749621,1.0931126141431946,-0.09858569502830505,0.9999973177909851,0.8821833178563385,1.3477958301658917,0.24867276847362518,0.6675213575363159,0.9198963112961895,1.3761553678302743,0.015364855527877808,0.9848718047142029,0.877831369104183,1.6015642334814233,0.35041290521621704,0.8096568584442139,0.9066626357158853,1.6409159608062795,0.11011109501123428,0.9748167991638184,0.8481222420771565,1.0542494591358926,0.2949461340904236,0.062216270714998245,1.0307780508428015,1.1042413840575438,-0.06130143254995346,0.9959136843681335,0.008619338274002075,0.8885814782853151,1.0925336376139727,170.82905365351778,179.5456075067242,1.0,-0.014803125019157625,-0.01585953709596354,0.06295081020238932,0.02975499319294512,96.49775830310243,0.9292673162295587,65,2.1666666666666665
0.9056084802058147,0.5983620695768704,0.16213580965995789,0.999944269657135,0.8055319928195421,0.7246945365793176,0.164559468626976,0.9999582171440125,0.9579378854251667,0.7078388304281394,-0.12123928964138031,0.9999983906745911,0.8427767288928786,1.0889064351204638,0.09769131243228912,0.9999898672103882,0.9286420840988363,1.091079468415525,-0.0978606566786766,0.9999971985816956,0.8803039890339485,1.3451850464014325,0.25271743535995483,0.6636943221092224,0.9177432892527159,1.373171857674669,0.020232636481523514,0.9836364388465881,0.8762786501709213,1.5983620695768705,0.36095666885375977,0.8019711971282959,0.9050263891205129,1.637826907226188,0.1269773244857788,0.9717400670051575,0.8505615823543932,1.051326158823364,0.2898699939250946,0.058628980070352554,1.029072984774126,1.1011151350773876,-0.08242099732160568,0.9956222772598267,0.008783519268035889,0.8857094064958574,1.0899929517679945,170.75841311086342,179.46155856715956,1.0,-0.01006911824564602,-0.004894203026663613,0.03558139857653335,0.08265816104391903,97.28853787651491,0.9316581312332228,66,2.2
0.9049813060462392,0.5952387084858562,0.1482192873954773,0.9999476075172424,0.8001774050986377,0.7237467838044405,0.1572108119726181,0.9999600052833557,0.9563663639156293,0.7075215044573716,-0.1231132373213768,0.9999984502792358,0.839739073330201,1.0854869962416778,0.09681637585163116,0.9999896287918091,0.9249719320850975,1.0883291099871064,-0.096967913210392,0.9999971389770508,0.8783467836787995,1.3423970373394216,0.24461069703102112,0.6693795323371887,0.9167049253044238,1.370099736685009,0.026096070185303688,0.9828793406486511,0.8737221667339512,1.5952387084858564,0.3388242721557617,0.800089955329895,0.9038321477296071,1.6351418347024682,0.12642396986484528,0.9704210758209229,0.8513929047212292,1.045591408485348,0.4042758345603943,0.055918145924806595,1.0274534161703515,1.0990210452680542,-0.06620413064956665,0.9956234693527222,0.00846707820892334,0.8823555027076493,1.086908053114392,170.40584926107763,178.89994449752754,1.0,-0.01700878018059981,-0.012450480055172542,-0.05657112387421549,-0.06152726658057476,98.15117662472598,0.9316072139221208,67,2.2333333333333334
0.9010985774958151,0.5959185808980461,0.16426262259483337,0.99994957447052,0.7972177756557514,0.7257991168494771,0.1593065857887268,0.9999610185623169,0.9568579397061787,0.7084096000091489,-0.11413519084453583,0.9999985098838806,0.8386174362903676,1.0856967068406282,0.0968945249915123,0.9999895095825195,0.9233825036702638,1.089218673387264,-0.09701763838529587,0.999997079372406,0.8776168373261896,1.3423499122996365,0.23578350245952606,0.6731395721435547,0.9181566198407242,1.3685866589663793,0.021308859810233116,0.9822423458099365,0.8739179547732013,1.595918580898046,0.32317787408828735,0.7976064085960388,0.9050632343207904,1.6371641404864046,0.10591956228017807,0.9696833491325378,0.8429734354383803,0.914939653286941,0.5068879127502441,0.05397581681609154,1.0286925855668216,1.0978517627987494,-0.0393616184592247,0.9950042963027954,0.009063392877578735,0.8809999699803157,1.087457690113946,170.5240594933393,178.28064591972765,1.0,-0.01953203854584358,-0.006362417645023667,-0.01995233137019048,0.04866934111932493,98.9412497535169,0.9296917570018526,68,2.2666666666666666
0.898750272058105,0.5961893327590456,0.1977086216211319,0.9999418258666992,0.7909803040230728,0.7280427653599257,0.18133261799812317,0.9999613761901855,0.9564177219622239,0.7088449608659722,-0.09576290845870972,0.9999985098838806,0.838031537456136,1.0837047551065107,0.0982758030295372,0.99998939037323,0.9232229713848655,1.0855945719745022,-0.09843192994594574,0.999997079372406,0.8778837300899811,1.3403430300830466,0.2398924082517624,0.6793931722640991,0.9201766644062862,1.3667343255053073,0.0037944975774735212,0.9823399186134338,0.8743447433339184,1.5961893327590457,0.321951687335968,0.7994682192802429,0.9058902668080415,1.637466755128939,0.06821076571941376,0.9692664742469788,0.8425633217384896,1.0235830607412202,0.31373709440231323,0.05266943201422691,1.0290577509268284,1.0943602783952566,-0.042941100895404816,0.9949324727058411,0.009999781847000122,0.8806272544205008,1.0846496635405063,170.38080405572515,177.6001433737308,1.0,-0.006608079288050876,-0.025223740249247003,0.09402915503440801,-0.13707254446292483,98.80680729090223,0.9183329705712009,69,2.3
0.901729441183815,0.5996590647099563,0.2504153251647949,0.9999316930770874,0.7899872000115649,0.7298184774283824,0.22370493412017822,0.9999615550041199,0.9585604031471462,0.7110268231837603,-0.04933801293373108,0.9999985098838806,0.8374197820829647,1.08123320227395,0.09849290549755096,0.9999889731407166,0.9254472524081653,1.0811901780668673,-0.09867410361766815,0.9999969601631165,0.8802578377628284,1.3417933074641206,0.2217288762331009,0.6782065033912659,0.9311006332188068,1.367488167052326,-0.025644874200224876,0.981807291507721,0.8768930005753197,1.5996590647099562,0.2703297734260559,0.7918911576271057,0.910040111755091,1.6404819238956847,0.007354871369898319,0.9660512208938599,0.8372516434816863,1.0515133420647615,0.31781065464019775,0.05008695647120476,1.030443642103535,1.091175924433889,0.04511907324194908,0.9942854642868042,0.009762555360794067,0.8814335172455651,1.0812116901704085,169.91606333689353,174.45732356350015,1.0,-0.012033184375137748,-0.050147834528614196,-0.04311365142116427,-0.19818099774563383,97.65909797203437,0.8942199508122671,70,2.3333333333333335
0.907128672820211,0.6021727788401426,0.22338919341564178,0.9999223351478577,0.7906942963262604,0.7322957079947046,0.20580701529979706,0.9999608397483826,0.9595605371786857,0.7122949265435958,-0.0746186152100563,0.9999985098838806,0.8375841209134703,1.0817742617585409,0.09916198998689651,0.999988853931427,0.9264360313315927,1.0801953857610413,-0.09934394061565399,0.9999969005584717,0.8826298358033318,1.3437611471702275,0.22259223461151123,0.6830121874809265,0.9399636969992278,1.3687496552421579,-0.02823033556342125,0.9816082119941711,0.8782855996947744,1.6021727788401428,0.2744614779949188,0.7917009592056274,0.9155335817122053,1.641840386312654,0.009225337766110897,0.9648734927177429,0.8423575805354319,1.053925068032214,0.32060202956199646,0.047181662172079086,1.0313226289854007,1.0874780504173869,0.00385892647318542,0.9938427209854126,0.010373711585998535,0.8820100761225316,1.0809848237597912,169.28089766672306,172.20394021716342,1.0,-0.0069043764635556325,-0.015897360505610508,0.0409417263673668,0.27301741695700765,96.62376017243771,0.8858923364456568,71,2.3666666666666667
0.895985909054993,0.6010912638254161,0.2741137146949768,0.9999088644981384,0.7878069660435467,0.7329407480195591,0.23423080146312714,0.9999613165855408,0.9581320045865743,0.7117997940084198,-0.037102919071912766,0.9999985098838806,0.8380734596111334,1.0794098920060198,0.09937895834445953,0.9999889731407166,0.9259154428451462,1.0759670900427603,-0.09956558793783188,0.9999969005584717,0.8823644057207225,1.342932109144299,0.2031753957271576,0.6884677410125732,0.94725175350103,1.364864768640768,-0.05610469728708267,0.9817118644714355,0.8779938032550713,1.6010912638254162,0.2303766906261444,0.7936562895774841,0.9166184304580878,1.6354865517450483,-0.04081934317946434,0.963464617729187,0.8353902056608177,1.0684998952585185,0.3219185471534729,0.04478605464100838,1.0301171956111481,1.0816109561427203,0.03246961161494255,0.9935106635093689,0.010971873998641968,0.8819944512281398,1.07768849102439,169.48938369366584,169.31796651928505,1.0,0.004054413239933506,-0.02007394210444268,0.08371027750298433,-0.0319910949259079,96.01054597873976,0.8816303298134607,72,2.4
0.8763679950845349,0.5962136130362383,0.2743363380432129,0.9999054074287415,0.7826492575752234,0.7316049501700221,0.21173012256622314,0.999963641166687,0.9543918462616872,0.7092994706809631,-0.023081878200173378,0.9999985098838806,0.8358701783366993,1.0740865801301847,0.09044996649026871,0.9999892115592957,0.9231675859508169,1.0697556735482872,-0.09062255918979645,0.9999969005584717,0.8784712381651799,1.339909950291352,0.16035141050815582,0.6954572200775146,0.9548235977120378,1.3533466689437015,-0.08796410262584686,0.9813571572303772,0.8752465515970455,1.5962136130362383,0.15637853741645813,0.7943698167800903,0.9191463568739363,1.6254460019953052,-0.09212491661310196,0.9589768648147583,0.8125745435132664,1.0809744579871041,0.28261348605155945,0.05273161828517914,1.025744611004763,1.0709150612578848,0.02295900508761406,0.9929682612419128,0.011615276336669922,0.8795188821437582,1.071921126839236,170.1743259351686,166.16077183844783,1.0,0.0036527518664145253,-0.016062171082380946,-0.0029041231537618745,0.029519768163611022,95.99282491878118,0.8822654765582923,73,2.433333333333333
0.8712964666215331,0.5951996894029619,0.2840054929256439,0.9999051094055176,0.778952879048592,0.7303786612885925,0.21216821670532227,0.9999661445617676,0.951991236628461,0.7080606137388787,-0.017508121207356453,0.9999985098838806,0.8352740790850965,1.0713654869156597,0.08937285840511322,0.9999895691871643,0.9227997895446769,1.0649725093162825,-0.08954904973506927,0.9999969005584717,0.876305723901337,1.339187543476985,0.15371429920196533,0.7005844712257385,0.9588836656027895,1.3482285276910644,-0.10359267145395279,0.9810358881950378,0.873999561465692,1.5951996894029619,0.15139976143836975,0.7920400500297546,0.9216879102080147,1.622316584625778,-0.11560080200433731,0.9540198445320129,0.8028964293855474,1.0821944384775053,0.2706107795238495,0.06524436920881271,1.024004467403969,1.065002682122458,-0.005310828797519207,0.9922013282775879,0.011639237403869629,0.8790369343148867,1.0681689981159712,170.77362665269033,165.01196982395956,1.0,0.006095577299889405,-0.01569820479430977,0.017891527088719515,0.002484138817703826,95.20140289244297,0.87449957108564,74,2.466666666666667
0.86879582257954,0.594481648128269,0.2507510781288147,0.9999120235443115,0.7792779160861522,0.7307983121302789,0.1639726459980011,0.999968945980072,0.9511727154374986,0.707358792225293,-0.03713801130652428,0.9999985694885254,0.8350431674394171,1.0705327410182035,0.08130426704883575,0.9999901652336121,0.9255027065299317,1.0637879999086404,-0.08147256076335907,0.9999970197677612,0.8743192563323664,1.3384201630769934,0.15344882011413574,0.7205040454864502,0.9611657492634127,1.343536875042825,-0.08396093547344208,0.9819794297218323,0.8735324783591805,1.5944816481282689,0.15726928412914276,0.8040011525154114,0.9312364959002353,1.6127258296599136,-0.08599752932786942,0.954923689365387,0.7958807642235571,1.084198090583103,0.21210959553718567,0.1120593324303627,1.02296462097161,1.0578174177192061,-0.053640060126781464,0.9923363327980042,0.012233883142471313,0.8802729369846745,1.0671603704634218,171.4830063637809,166.39072274698614,1.0,0.015543844220783884,-0.0012411451956451788,0.07579396740111502,0.11581409988079007,95.05748161825346,0.8806432074948575,75,2.5
0.8684628639865128,0.5927946132784616,0.20120616257190704,0.9999202489852905,0.7779909943785862,0.7296319410443268,0.09815922379493713,0.9999718070030212,0.9499926950931897,0.7068523219282126,-0.05133955925703049,0.9999986290931702,0.8344434966883852,1.0692823365300426,0.07126335799694061,0.9999907612800598,0.9283745618624102,1.0630073018274584,-0.07141438871622086,0.9999971389770508,0.8720690700893549,1.3364367497145042,0.15326622128486633,0.7448965311050415,0.9623941572606725,1.3375868305931093,-0.0678873211145401,0.9833531975746155,0.8724598626449419,1.5927946132784616,0.15659892559051514,0.8206148147583008,0.940957591737027,1.6040596805754146,-0.066340371966362,0.9580257534980774,0.7922945265433854,1.0835295849866315,0.1550033986568451,0.1840301752090454,1.0214947880829996,1.0553524894107364,-0.09355439245700836,0.9928662776947021,0.011905044317245483,0.8814090292753978,1.0661448191787506,172.07062905464048,168.33792545791746,1.0,0.017113977243128072,0.0028533245722558043,0.011893879996794504,0.03060693786945599,95.61478542041989,0.8886102493201827,76,2.533333333333333
0.8674314156298701,0.5913803793192517,0.19471696019172668,0.9999275803565979,0.7773568168451895,0.7283678102064421,0.09641335159540176,0.9999743700027466,0.9486354078071452,0.70612222073915,-0.058522433042526245,0.9999986886978149,0.8336016150200694,1.0678389744996113,0.07043259590864182,0.9999913573265076,0.9284283529592378,1.0618442625377937,-0.07058116793632507,0.9999972581863403,0.8710914847005411,1.3343705854242753,0.1496810019016266,0.7673962116241455,0.9618655823333605,1.334086321483384,-0.07134991884231567,0.9846652746200562,0.8713714778490513,1.5913803793192516,0.1486455500125885,0.8359633684158325,0.940793663556315,1.601240329217732,-0.07972835749387741,0.960981011390686,0.7906959819929726,1.0823391687921926,0.15364430844783783,0.2487151175737381,1.0196500865775031,1.0529242286265632,-0.0942050889134407,0.9933404922485352,0.011642515659332275,0.8810149839896535,1.0648416185187024,172.05582255573054,168.4880054260488,1.0,0.006694543583864761,0.0016635517493375125,-0.08091677279119128,-0.009229755095010157,95.79022527452688,0.8902280273304946,77,2.566666666666667
0.865770161040956,0.591400443241602,0.16400566697120667,0.9999343752861023,0.7781320552012212,0.7293217223577337,0.06491021811962128,0.9999767541885376,0.9499504744306951,0.7076733483191316,-0.08387042582035065,0.9999987483024597,0.8343323296105731,1.0689943513403224,0.06637977808713913,0.9999918341636658,0.930158298457014,1.0622494892835825,-0.06653497368097305,0.9999973177909851,0.8704142437746809,1.3338037038087367,0.15045174956321716,0.787728488445282,0.9634390026870341,1.3317082204244883,-0.0600133016705513,0.9857094883918762,0.8714716092695101,1.591400443241602,0.15112024545669556,0.8502058386802673,0.9505967497969605,1.5931765758236638,-0.056306786835193634,0.963565468788147,0.7874905484576689,1.080873996177585,0.1124308854341507,0.31563007831573486,1.0197076117901491,1.0528457242925167,-0.13209059834480286,0.9938045740127563,0.011329621076583862,0.8822453140337936,1.0656219203119524,172.4760602331778,170.14721243069525,1.0,0.008940236386541402,0.005559272245468154,0.01666906784496901,0.02891888059905415,95.36850548217583,0.8996176042698404,78,2.6
0.8687064855542511,0.5948592214199718,0.14279939234256744,0.9999404549598694,0.783141680746425,0.7337213424231401,0.035869646817445755,0.9999788999557495,0.957680741382996,0.7135554082056578,-0.09297426044940948,0.9999988079071045,0.8402677897547793,1.0758629351072158,0.05789775401353836,0.9999921917915344,0.9388845577084263,1.0687870078871666,-0.05806358531117439,0.9999973177909851,0.8753546486234915,1.3410175802127968,0.14879567921161652,0.8062975406646729,0.9707812333576054,1.3371599107413321,-0.02951807714998722,0.9865201711654663,0.8775095119655648,1.5994559958399277,0.1584969013929367,0.8633097410202026,0.9653026895456126,1.594859221419972,-0.011679808609187603,0.9657960534095764,0.7893832215040809,1.0861058983840701,0.077327199280262,0.37940654158592224,1.026766657062122,1.0591055351913363,-0.14114132523536682,0.9942643046379089,0.010489434003829956,0.8895761737316028,1.0723249714971912,172.9397927700657,172.0041802144627,1.0,0.014207327317410175,0.001223130521232409,0.03860884517946226,-0.03237193580772154,95.37498400040184,0.908943798839178,79,2.6333333333333333
0.8661082783614766,0.5929257222558849,0.13280418515205383,0.9999462366104126,0.7816525854874299,0.7319188512501572,0.02096557430922985,0.9999809265136719,0.9583318661468635,0.713738010037842,-0.09619654715061188,0.9999988675117493,0.8410565457476363,1.073894751283312,0.052757829427719116,0.9999926090240479,0.9409040345722485,1.066520710194469,-0.0529085174202919,0.9999973177909851,0.8730880083229487,1.3381427705815774,0.1353365033864975,0.8240693807601929,0.9695252032148532,1.3353995129703096,-0.02027648314833641,0.9873698353767395,0.8755133818838674,1.5957923378568406,0.1436225324869156,0.8754589557647705,0.9781403697309904,1.592925722255885,-0.003945474047213793,0.9679628610610962,0.7834768317918348,1.0817924064525717,0.05966363102197647,0.4394463300704956,1.0252143044964501,1.0575115755296163,-0.1424165815114975,0.994691789150238,0.00947868824005127,0.8909802901599424,1.0702077307388904,173.62780932334604,175.83998582853687,1.0,0.026936031601666615,0.0027348716143803953,0.09959989796766294,0.011820773583737891,95.63060537739995,0.9096879468730472,80,2.6666666666666665
0.8636320991536762,0.5914728969986197,0.1492907553911209,0.9999514222145081,0.7803557271248106,0.7301655604909663,0.027608077973127365,0.9999827146530151,0.9584660695696143,0.7134986400292509,-0.07854615151882172,0.999998927116394,0.8410583128058765,1.0723883363095794,0.04413497447967529,0.9999929070472717,0.9407307575017967,1.0641673158401816,-0.04428393393754959,0.9999973177909851,0.8707311173774724,1.3351502777515902,0.13272562623023987,0.8402724266052246,0.9700652447185963,1.3328863118520633,-0.0034519757609814405,0.9881232380867004,0.8735818346165382,1.5926862084291553,0.15172167122364044,0.8863486051559448,0.9871373817692914,1.5914728969986198,0.019435640424489975,0.9698843359947205,0.781547480234356,1.0781685898342934,0.07468745112419128,0.49289169907569885,1.0242844220085818,1.0558001778618513,-0.11590927839279175,0.9950657486915588,0.00870928168296814,0.8908945351538365,1.0682778260748804,174.1912719149258,177.54726380821447,1.0,0.015511227097012982,0.004088353578475104,-0.09045784621203423,0.010824131454813715,95.343254896958,0.909184024016106,81,2.7
0.8629185053800762,0.5887033186278049,0.14543870091438293,0.9999560117721558,0.7835530425023943,0.7283915547388076,0.015005012042820454,0.9999843239784241,0.9642873851433913,0.7141341119348301,-0.07882384210824966,0.9999989867210388,0.8431559345409003,1.0721300670834908,0.0413297638297081,0.9999932646751404,0.9430835703258054,1.063181270848732,-0.04146885126829147,0.9999973773956299,0.8697698277749916,1.3345904424189352,0.14044912159442902,0.8550856113433838,0.9710085556623502,1.332032992246903,0.01441917847841978,0.9887364506721497,0.8726474720761829,1.592038033067808,0.16185405850410461,0.8964765667915344,0.9981553649839826,1.588703318627805,0.0537981279194355,0.9715800285339355,0.7810978789404065,1.0767988952362304,0.06050299480557442,0.5409026741981506,1.0247262921434368,1.0585215601654114,-0.11375705897808075,0.9953353404998779,0.007456541061401367,0.8931197524333528,1.0676556689661114,174.85031139654365,179.89245294030897,1.0,0.02403157406211831,0.0022942768597448604,0.06878343769020645,-0.01443298386252258,94.71970633813656,0.9151057867197417,82,2.7333333333333334
0.8617404721286623,0.5854261499952766,0.1383964717388153,0.99996018409729,0.7850357351658791,0.7256156416932208,0.0038515341002494097,0.9999858140945435,0.9686672319481738,0.7122078070006617,-0.07828985154628754,0.9999989867210388,0.8437495488414704,1.0702224912090161,0.03642728924751282,0.9999933242797852,0.9444257381408255,1.060470873660038,-0.036563411355018616,0.9999972581863403,0.8675045019226885,1.3323122040897386,0.1379760205745697,0.8683334589004517,0.970767882901015,1.3289250621561461,0.017366131767630577,0.9890716075897217,0.8706283662110198,1.588167943400308,0.16541290283203125,0.9052658081054688,1.0064941819164408,1.5854261499952766,0.05689679831266403,0.9725933074951172,0.7789206116726349,1.074210192641708,0.035615045577287674,0.5853241086006165,1.0242242716297763,1.0567408796633593,-0.12208877503871918,0.9956133961677551,0.007030129432678223,0.894087643491148,1.065346682434527,175.52056564608245,177.6748961891669,1.0,0.024502522404483817,0.0031227590135893013,0.004018283434578518,0.006299120905420755,94.1366765979949,0.919105120240483,83,2.7666666666666666
0.8605856972842547,0.5834593611707637,0.14340882003307343,0.9999637603759766,0.7872520757576221,0.7262301513956555,9.576776210451499e-05,0.9999870657920837,0.9765740828673736,0.7119413233904376,-0.05940520763397217,0.9999989867210388,0.845649342051294,1.0696160414290348,0.02927389368414879,0.9999934434890747,0.9486251194044973,1.0587238097247993,-0.029384320601820946,0.9999971389770508,0.8658803414614056,1.3309062692140685,0.1400182992219925,0.8800880312919617,0.9700167776154137,1.326666423858139,0.03972891718149185,0.9890270233154297,0.8684896821693104,1.5854734238691448,0.17786374688148499,0.9131103754043579,1.0132678975697476,1.5834593611707637,0.08817575126886368,0.9733202457427979,0.775511943059358,1.07193781287836,0.018824554979801178,0.6248252391815186,1.0240422423299453,1.0553561462156646,-0.11449841409921646,0.9956490993499756,0.007506310939788818,0.8971372307278958,1.064169925576917,176.15984261799335,175.00414174948455,1.0,0.03604668779950694,0.006422276925187326,0.08801536039254558,0.02510033878951711,93.61356638302549,0.9233230419056944,84,2.8
0.8631574412020486,0.5830694327753722,0.1280951350927353,0.9999667406082153,0.7953942407884249,0.7245415613615568,-0.03256242722272873,0.9999881982803345,0.9911013072006586,0.7118885075417167,-0.05647065117955208,0.9999989867210388,0.8492111329185758,1.0689884246582333,0.018573228269815445,0.9999934434890747,0.9525720525057231,1.0582048412571532,-0.01867569051682949,0.9999969601631165,0.8645678210260997,1.3304563353708383,0.1419464498758316,0.8903324007987976,0.9721201957909703,1.32596781490338,0.04152875021100044,0.9888315200805664,0.868198650507222,1.5843183542129413,0.20124022662639618,0.9199888110160828,1.02033502615195,1.583069432775372,0.10467378050088882,0.9736694097518921,0.7706215467577364,1.071844673403926,-0.014803511090576649,0.6612017154693604,1.0277350132262084,1.0563335566992191,-0.11122842878103256,0.9957997798919678,0.006651580333709717,0.9008915927121494,1.0635966329576931,177.45814151562135,173.55405653696337,1.0,0.03336762041635914,0.001224222023443267,-0.02025298372779664,-0.03962998163919509,92.92409622415157,0.9235526192455449,85,2.8333333333333335
0.8696534192182402,0.5789368305927899,0.1374676525592804,0.9999694228172302,0.7992998788286605,0.722390277079669,-0.0298649612814188,0.9999892711639404,0.9969546628354907,0.7116252131351631,-0.031757231801748276,0.9999989867210388,0.8507926672233449,1.0660331795572033,0.009851784445345402,0.9999935626983643,0.9547046654922611,1.0556265535040765,-0.009993622079491615,0.9999968409538269,0.8618433057187491,1.3267896513932895,0.12433435022830963,0.9002385139465332,0.9709030509446458,1.3222795858513299,0.04219425469636917,0.9890495538711548,0.8649699852781005,1.579804407435068,0.18206748366355896,0.9266518354415894,1.0190087962840488,1.57893683059279,0.08394043892621994,0.9747830033302307,0.7634240388652719,1.0685383444318501,-0.0041526006534695625,0.6943373680114746,1.0292930978462524,1.0546374435492825,-0.06898806989192963,0.9959614276885986,0.005675584077835083,0.9027486663578029,1.06082986653064,178.28131326980758,172.8603939899608,1.0,0.033319940038582053,0.002422388568929653,0.0003671942526234003,0.008945338432860831,92.80300301675831,0.928855084491833,86,2.8666666666666667
0.868422501085348,0.5724778926114954,0.14090964198112488,0.9999717473983765,0.8033688167382109,0.7154205640613098,-0.023758653551340103,0.9999902248382568,0.9976048617288555,0.7084163126036456,-0.016492020338773727,0.999998927116394,0.8525982562168747,1.061370085725892,0.008046528324484825,0.9999938011169434,0.9543464966698922,1.0515796105173574,-0.008197741582989693,0.9999968409538269,0.8580927567637415,1.3208688367173942,0.11512730270624161,0.9091432094573975,0.9683391287972971,1.3177214681221718,0.041649315506219864,0.9894261956214905,0.8606859422075951,1.573046877242382,0.1678771674633026,0.9328222274780273,1.0143466294892522,1.5724778926114953,0.07430478930473328,0.9762210249900818,0.7582253172384784,1.0635126420956102,-0.006419044919312,0.7243174910545349,1.0270761269919668,1.0501470749293667,-0.04364541545510292,0.9960090517997742,0.00370904803276062,0.9034723764433834,1.0564748481216246,179.37618874688604,172.77266275450611,1.0,0.0364713020324509,0.0022791547564516537,0.025704060541893736,-0.0010338393239064585,92.60272500562427,0.937870964766066,87,2.9
0.8695021299045066,0.5703039320120905,0.14151015877723694,0.9999738335609436,0.8058841154821613,0.7141071585516154,-0.03169018775224686,0.9999910593032837,0.9980277787830446,0.7073228996372273,-0.01575816608965397,0.999998927116394,0.8527853972011722,1.0591178592116375,0.005485692992806435,0.9999939203262329,0.9549015676393878,1.0501687986691215,-0.00563236465677619,0.9999968409538269,0.8568518390726829,1.3188143700164832,0.1084965318441391,0.9169105887413025,0.9680043409546548,1.3168236044354522,0.04487968236207962,0.9896513223648071,0.8591379657978988,1.570974451261028,0.15537911653518677,0.9383768439292908,1.0116854219494689,1.5703039320120904,0.07671580463647842,0.9774836897850037,0.7572675924762481,1.0615672887308034,-0.026061486452817917,0.7514476180076599,1.0274951104693388,1.0489885903833198,-0.03160858899354935,0.9961978197097778,0.003597944974899292,0.90384348242028,1.0546433289403796,179.62235004061228,173.03562893547527,1.0,0.013203685798779756,-0.0018992972682750988,-0.1776627253857411,-0.031954065399947294,92.73303925870412,0.9392467084426559,88,2.933333333333333
0.8777248776199993,0.569656171557085,0.16807027161121368,0.9999754428863525,0.8124942837679897,0.710357366052367,-0.011957267299294472,0.9999918341636658,1.0015909722919742,0.7068417535314032,0.00012940727174282074,0.9999988675117493,0.8577371968895164,1.058432425449246,0.008201716467738152,0.9999939203262329,0.9584544397851208,1.0511561849475954,-0.008338713087141514,0.9999966621398926,0.8563868607708633,1.3176512584468996,0.11566466093063354,0.9240521788597107,0.969715606333818,1.3174535168224393,0.05175895616412163,0.9897245168685913,0.8574744958500927,1.5696561715570851,0.16055777668952942,0.9429180026054382,1.0094953596688272,1.57165368760338,0.09422042965888977,0.9779140949249268,0.7579388742572688,1.0605293176100483,0.0008483232813887298,0.7756268382072449,1.0282025482842994,1.0482862925921395,-0.02698497101664543,0.995956540107727,0.0018661320209503174,0.9080958183373186,1.0547943051984208,179.4542516411263,173.52740293752598,1.0,0.039316013879520814,0.00851106025188675,0.20289992899712891,0.0808414804932372,93.27369306033685,0.9411426269158513,89,2.966666666666667
0.8854474050581832,0.5691475814333409,0.1816416084766388,0.9999760985374451,0.8230188157821924,0.7067107756095595,-0.009711585938930511,0.9999924898147583,1.009000936259906,0.7107278480692965,0.017607761546969414,0.9999987483024597,0.8605986338754571,1.057567019585354,0.0035565937869250774,0.9999936819076538,0.9623398123955603,1.0515934097449828,-0.0036838494706898928,0.9999963045120239,0.856749035313308,1.3173402496012112,0.1108122244477272,0.930252194404602,0.9721607197157075,1.3191897585895196,0.04898675158619881,0.9893508553504944,0.8571703017594525,1.5691475814333409,0.15947288274765015,0.9463139176368713,1.0087324392337462,1.573516831744071,0.09198920428752899,0.9769805669784546,0.7586872875076708,1.0603695134198563,0.012428468093276024,0.7972729802131653,1.0302464369423172,1.0506433433447253,0.012990660965442657,0.9952294826507568,0.002133101224899292,0.9114692231355087,1.0545802146651684,179.0551376763528,173.91891446105592,1.0,0.026883990393497918,0.0012721407023110203,-0.09001050499005042,-0.05244982823583453,92.75338420330873,0.9399253589345548,90,3.0
0.894637070337059,0.5690957176855567,0.1739644855260849,0.9999776482582092,0.832157210184682,0.7060530219099659,-0.01177791878581047,0.9999931454658508,1.0127618530876143,0.7136718669999952,0.0034668364096432924,0.9999986886978149,0.8652218812939215,1.0574104118698784,0.005990966223180294,0.9999937415122986,0.9659354554179592,1.0546522872666786,-0.006127995438873768,0.9999961853027344,0.8596520473980425,1.3173835746374407,0.10518018901348114,0.9362232089042664,0.9746259381879566,1.3210498895902902,0.04697354882955551,0.989513099193573,0.8567415290601554,1.5690957176855567,0.14357812702655792,0.9502198100090027,1.0099758981116587,1.575668735521964,0.0833626240491867,0.9774868488311768,0.759079083987969,1.0607598196748953,0.018158312886953354,0.8169385194778442,1.0345032096106805,1.0504191529074183,-0.006536283530294895,0.9949126839637756,0.004046708345413208,0.9155786683559404,1.0560313495682785,179.4351207086892,173.9643302333757,1.0,0.030247468037346896,0.011984938007057872,0.023477079886478458,0.07462523324499425,93.80731662997634,0.9433416240795011,91,3.033333333333333
0.90919823952982,0.5692808469326586,0.176233172416687,0.9999788403511047,0.8418677687870341,0.7041604639849983,-0.007721702568233013,0.9999936819076538,1.0194644822228884,0.7147041390285047,0.005910883657634258,0.9999986886978149,0.8728882194135757,1.0568645694574372,0.006205989979207516,0.9999933838844299,0.9708191849343814,1.0550211181565756,-0.006344756577163935,0.999995768070221,0.8642186899319064,1.3174601918722382,0.09793032705783844,0.9412220120429993,0.9783707587279019,1.3222701565199688,0.0421745739877224,0.9892082214355469,0.8575117975103531,1.5692808469326585,0.1259932667016983,0.9527478218078613,1.009403834964534,1.5777184579854207,0.07372786104679108,0.9767466187477112,0.762484834538013,1.0608020763910013,0.02473350055515766,0.8345023393630981,1.0361519474779108,1.050398573676411,0.008822793141007423,0.9948657751083374,0.005599796772003174,0.9218537021739786,1.0559428438070064,179.6202118292802,174.69193689463953,1.0,0.04699558766402161,-0.0012687327914504118,0.12679958839254382,-0.10036356557434689,93.94784318064316,0.940384559863712,92,3.066666666666667
0.9111211586868868,0.5673557962228326,0.1731543242931366,0.9999794960021973,0.8467074731264247,0.7006002707240638,-0.00572633370757103,0.999994158744812,1.022777151812686,0.7137592134149373,-0.003466447116807103,0.9999985694885254,0.8775541659709682,1.0563667319572265,0.009044767357409,0.9999932646751404,0.9748996498836467,1.0555669240008132,-0.009182693436741829,0.9999954700469971,0.8677376022340368,1.3159487479474445,0.10391900688409805,0.9453938603401184,0.9803510108827128,1.3217810125815341,0.04959770292043686,0.9886464476585388,0.8573084876102349,1.5673557962228326,0.14706620573997498,0.9550876021385193,1.0083635699414122,1.5772326117854925,0.09249807894229889,0.97611004114151,0.7687996765794092,1.0598884651831042,0.027621572837233543,0.8501577377319336,1.0364621069542208,1.0493200147092923,-0.014028890058398247,0.9939618110656738,0.006996959447860718,0.9262269079273074,1.0559668279790198,179.79027362672642,174.9151104413836,1.0,0.04195141920449082,0.00968668761869522,-0.03839673099633589,0.08430086750808706,94.48468952339643,0.9466913396101893,93,3.1
0.9212154760948749,0.5678071188008609,0.17782387137413025,0.9999773502349854,0.8581083369709901,0.6977918675602816,-0.005198183003813028,0.9999945759773254,1.0294058005409603,0.7139602238493602,0.011106783524155617,0.9999980330467224,0.8845637099882054,1.0569554988584562,0.007452542427927256,0.9999931454658508,0.9797346252734972,1.0560734885928615,-0.007589302957057953,0.9999949336051941,0.8739224423160351,1.3169925154744349,0.10851211845874786,0.9490220546722412,0.9832003065052968,1.3233806968957815,0.05855707451701164,0.9874187111854553,0.8587840326532223,1.5678071188008609,0.15031369030475616,0.956949770450592,1.0096701479004702,1.5790121485025341,0.10265161097049713,0.9746523499488831,0.7821896734812352,1.0620434329490502,0.02373925969004631,0.8641719818115234,1.0366888903942981,1.0484881330139673,0.009023166261613369,0.9843732118606567,0.008592426776885986,0.9321491676308513,1.056514493725659,178.88934816443333,174.831076122333,1.0,0.041089306911573364,-0.000243887554619799,-0.0067181554612220995,-0.07541223641249074,93.68171871967853,0.9456926570382118,94,3.1333333333333333
0.9270450746375308,0.5705649424379489,0.16300290822982788,0.9999743103981018,0.8659695620978729,0.6958836049553271,-0.03428375720977783,0.9999949336051941,1.0349095700659807,0.7157305638054209,0.013260637409985065,0.9999973177909851,0.8924811038323542,1.0599684376643872,-0.0029609862249344587,0.9999929666519165,0.9869780086067249,1.0592634196664854,0.002813027473166585,0.9999943375587463,0.8822155923690425,1.3201659191041564,0.1033702939748764,0.9526089429855347,0.9889928433089354,1.3264177153551908,0.08064188808202744,0.9859590530395508,0.8642258363086404,1.5705649424379489,0.1527758240699768,0.9593682289123535,1.0116810527789395,1.583238413380309,0.13644669950008392,0.9738407731056213,0.7948101574723706,1.0654358943706643,-0.021345902234315872,0.8766608238220215,1.0389117128712804,1.049957968568444,0.0038942520041018724,0.9747346639633179,0.010529011487960815,0.9397295562195396,1.0596159286654363,178.1499877595687,175.3835553842474,1.0,0.04789165251715706,0.01013121752010113,0.05412473885037402,0.08343423280161165,93.73729083576991,0.945726402112953,95,3.1666666666666665
0.9335093183875379,0.5929777826703666,0.15775074064731598,0.9999629259109497,0.8883952426258752,0.7030744792954033,-0.05269511416554451,0.9999951720237732,1.0562641642442083,0.7258631934147881,0.03026687726378441,0.9999937415122986,0.9113056067131181,1.0746714282800223,-0.012937131337821484,0.9999927282333374,1.0042994004565378,1.0743382156280152,0.012804466299712658,0.9999930262565613,0.8958462604230091,1.3392636980427859,0.10433647781610489,0.9566998481750488,1.0046444647213384,1.3453591876266426,0.09656030684709549,0.9856533408164978,0.8765299548943571,1.5929777826703666,0.165187269449234,0.9628320336341858,1.0275965943478975,1.608548978556216,0.14981283247470856,0.9748938679695129,0.8236415060345791,1.0837405330969392,-0.020075218752026558,0.8852758407592773,1.0415347747401562,1.059933947771082,0.03812092915177345,0.8810313940048218,0.01191943883895874,0.957802503584828,1.0745048219540188,178.99005576589775,175.08893524540196,1.0,0.036270386488943485,-0.001884989050642929,-0.09589663534312882,-0.09477239311126308,93.32273713440179,0.9161067706979483,96,3.2
0.9486990049002961,0.6203527329930071,0.16805382072925568,0.9999387860298157,0.9166785048807928,0.7153405345610069,-0.06285752356052399,0.999995231628418,1.0794129428165862,0.7383599346843561,0.08981297165155411,0.9999882578849792,0.9421318534203629,1.0922872397614227,-0.036586470901966095,0.999990701675415,1.0325053306739227,1.0930316707148433,0.03644413501024246,0.9999884963035583,0.9163089555379861,1.362331944451448,0.08180030435323715,0.9595628380775452,1.0255903066790073,1.3684761079916379,0.12077943235635757,0.9803853631019592,0.8915134465594035,1.6203527329930072,0.13182762265205383,0.9653091430664062,1.0486632613181586,1.637573871470437,0.1572301685810089,0.9729474186897278,0.8622804474955063,1.1098528891067392,-0.029028793796896935,0.8847145438194275,1.0516676464708763,1.0683464005772296,0.1105840802192688,0.7951128482818604,0.011836409568786621,0.9873185920471428,1.092659455238133,179.97306916927647,173.66122999295365,1.0,0.0913897370575715,-0.002356310568757002,0.3821099622376774,-0.003077368583195363,94.33498694612918,0.883150328692893,97,3.2333333333333334
0.9458748172733508,0.6160921770102706,0.128652423620224,0.9999275207519531,0.9157611070749261,0.7128466603742261,-0.08615527302026749,0.9999953508377075,1.079805936321179,0.7363827314587656,0.04758162423968315,0.9999829530715942,0.943139120128118,1.0899860246774045,-0.028895538300275803,0.9999897480010986,1.0342665938457711,1.0923803738745634,0.028759833425283432,0.9999858736991882,0.9148595554071596,1.3611003462383862,0.09993636608123779,0.9624782204627991,1.0240653482754905,1.3660144849455438,0.1425630897283554,0.9767541885375977,0.8894661005936506,1.6160921770102705,0.1843535304069519,0.967959463596344,1.0459541626067168,1.6342612525163212,0.21717266738414764,0.9722444415092468,0.8627887034812982,1.1138593394417178,-0.02148880437016487,0.8854297995567322,1.0496179446471785,1.0646322829951955,0.08863476663827896,0.717433512210846,0.012134075164794922,0.9887028569869445,1.091183199275984,179.7321608252287,173.19999335102528,1.0,0.03125162592332119,0.011011118644520472,-0.46940368325702486,0.10470960697311911,95.65712458209106,0.8926093608238073,98,3.2666666666666666
0.9496334750952642,0.6154412524385898,0.12627927958965302,0.9998790621757507,0.9218016220629891,0.7132216594130247,-0.09171058237552643,0.9999952912330627,1.0849769682873902,0.7381630213832742,0.03913360461592674,0.9999721646308899,0.9487745665000555,1.0900653194898884,-0.028174404054880142,0.9999886155128479,1.0392602054223057,1.092861513303746,0.02803986333310604,0.999983012676239,0.918126399824148,1.3614796261573745,0.11060652881860733,0.9625115394592285,1.026993122082444,1.36657329639533,0.15646424889564514,0.9626479148864746,0.8910840188481177,1.61544125243859,0.20694422721862793,0.968251645565033,1.0465486715737853,1.6350509173341525,0.24730074405670166,0.9656119346618652,0.8730051376679117,1.1155670880980857,-0.03100130520761013,0.882614254951477,1.0489986655580719,1.0657983765263102,0.08757058531045914,0.6474699378013611,0.01285657286643982,0.9940173859611806,1.091463416396817,179.6355128211038,173.26787190911742,1.0,0.038969658798390046,0.0008321560616164627,0.05824643670833561,-0.07688002913807701,95.86401330900051,0.8946584520840384,99,3.3
0.9558336412024924,0.6290869303029101,0.06046202778816223,0.9998868107795715,0.9365403129675772,0.7192385965875451,-0.14752110838890076,0.9999954104423523,1.096894481685005,0.745974752805689,0.03796640783548355,0.9999687075614929,0.961193158072003,1.0985558386650212,-0.045796919614076614,0.999987781047821,1.0507863179390595,1.1015933256181,0.04564576596021652,0.9999806880950928,0.9289752698160647,1.3714057186324746,0.07892575860023499,0.9657588601112366,1.0377479352076606,1.3777659195455858,0.15450936555862427,0.962227463722229,0.9004695288794676,1.62908693030291,0.15808646380901337,0.971043586730957,1.055511504865032,1.6484207055224647,0.22407595813274384,0.9670441150665283,0.8925290397984924,1.1239404594742486,-0.11359188705682755,0.8870936632156372,1.0576424898021437,1.0745102811397633,0.06022823974490166,0.5850733518600464,0.013671696186065674,1.0059897380055312,1.1000745821415605,179.578368505174,173.54197476091267,1.0,0.030396319574251717,-0.0013314698646876713,-0.06801672310840473,-0.01661058320790614,95.660337981805,0.8780930136283366,100,3.3333333333333335
0.9586292938203321,0.6406090283947585,0.07702340930700302,0.9998943209648132,0.9538198590584607,0.7223356354401492,-0.13227061927318573,0.9999954700469971,1.1014617950859114,0.7492769834168446,0.07485034316778183,0.9999637007713318,0.973524893352346,1.1020759947018404,-0.05488591641187668,0.9999864101409912,1.0588972347433458,1.1056855445514873,0.05472571775317192,0.9999769926071167,0.9368402550526848,1.3770021648633555,0.0538940355181694,0.9688102006912231,1.0428331921669582,1.383564322742752,0.14633235335350037,0.9619810581207275,0.9066207556845082,1.6406090283947585,0.11202162504196167,0.9736746549606323,1.0599450628011788,1.6559733869472804,0.20058193802833557,0.9686662554740906,0.9077363272080827,1.1282740381862364,-0.10559038817882538,0.892037570476532,1.065950283907771,1.0778568567102158,0.0753951296210289,0.5291594862937927,0.013713091611862183,1.016211064047846,1.103880769626664,178.9394154021096,173.0970243738087,1.0,0.04208936046662006,-0.00976622955700762,0.08743913138025756,-0.06379628573872104,95.3914885962742,0.8559411388013171,101,3.3666666666666667
0.9597430894139278,0.6433463397551406,0.09090409427881241,0.99989914894104,0.9599693041958065,0.7232838671929888,-0.12522782385349274,0.9999954104423523,1.104217249665558,0.750370552005688,0.09704084694385529,0.9999585151672363,0.9789312497578259,1.0989231555010024,-0.060062654316425323,0.9999850988388062,1.061849606855826,1.1038723292777441,0.05990608409047127,0.9999737739562988,0.9435335311681939,1.376972601397889,0.04492940753698349,0.9714975953102112,1.0452290634233208,1.3798217704205444,0.14599046111106873,0.9603920578956604,0.9107945836713024,1.6433463397551404,0.09713422507047653,0.9760235548019409,1.0609898851685933,1.6562639717230936,0.19916680455207825,0.969723105430603,0.9172684063886712,1.1289705046758578,-0.11652135848999023,0.8935934901237488,1.0712383116744941,1.079410533167548,0.08974453061819077,0.4789371192455292,0.013770818710327148,1.0203904283068261,1.1013977423893733,179.75171531081466,173.29014012333656,1.0,0.022477913500510063,-0.02855162120820879,-0.14828869143612558,-0.1415968974901317,96.3055669447349,0.8408634489405585,102,3.4
0.9586722609843595,0.6371090388491842,0.10027126967906952,0.9999057054519653,0.9595629095593539,0.7198372062185437,-0.11833319813013077,0.9999954104423523,1.0961032972665483,0.7389971473226784,0.12598788738250732,0.9999513030052185,0.979038576745094,1.0892144948607296,-0.06894534081220627,0.9999830722808838,1.0598168497035927,1.0927329855173786,0.0687931478023529,0.9999685883522034,0.9401172865221774,1.3699009318994826,0.031183134764432907,0.9739698171615601,1.040580893986684,1.3677904908928018,0.1436321884393692,0.9584559202194214,0.9082539793474773,1.6371090388491842,0.07261736690998077,0.9781758785247803,1.054508077821462,1.6469411177275002,0.19044314324855804,0.9707945585250854,0.9178573143296412,1.12264598991415,-0.09738640487194061,0.8947098255157471,1.0624879203562874,1.057064572342547,0.12391625344753265,0.43288809061050415,0.009787946939468384,1.0194277132243432,1.090973740189054,178.90558328085982,173.1433808307228,1.0,0.03173187100726988,-0.041250657909214755,0.07531819793051527,-0.10326901971445583,95.51224199875469,0.8290042561429627,103,3.433333333333333
0.9601131605233864,0.6365199552862572,0.09843447804450989,0.9999127984046936,0.9607326686139032,0.71959824107285,-0.1237778291106224,0.9999955892562866,1.094794301038714,0.7387612987044794,0.11661110073328018,0.9999480247497559,0.9757404620303468,1.0852342602435465,-0.06832681596279144,0.9999818205833435,1.0600112309166259,1.0900521252148072,0.06818095594644547,0.9999647736549377,0.9383120037273115,1.3692883995593936,0.022681068629026413,0.9761467576026917,1.0393940436489633,1.3655970083543791,0.13721421360969543,0.9560840129852295,0.9124797292451087,1.6365199552862573,0.05759246274828911,0.980028510093689,1.0538576682494523,1.6463298052549726,0.17307326197624207,0.9710147976875305,0.9185964969569814,1.1214228859957,-0.13078506290912628,0.9006978273391724,1.0643161823746916,1.059840376369825,0.08561552315950394,0.39203494787216187,0.009793907403945923,1.0178758464734863,1.087643192729177,178.0150643936533,172.77158618746688,1.0,-0.00786850675879999,-0.020395681386805257,-0.28389759956222593,0.1494321427751941,95.6225363797848,0.8196624070413254,104,3.466666666666667
0.9591314199945022,0.6334334071694211,0.08967091888189316,0.9999189376831055,0.9615208585735915,0.7179964483048,-0.1405789852142334,0.9999957084655762,1.0908872693107063,0.7329589460686283,0.1343894898891449,0.9999414682388306,0.9758417823052277,1.0821022195913368,-0.08155952394008636,0.9999799132347107,1.0590509323563506,1.0864942208595916,0.08142383396625519,0.9999585747718811,0.9361721684975398,1.3660551603571476,0.0013321982696652412,0.978238582611084,1.0369426914635689,1.3612688365652983,0.13796566426753998,0.9537239074707031,0.915788695951911,1.6334334071694212,0.03154773265123367,0.9818675518035889,1.0513617013230865,1.642518416601339,0.1790591925382614,0.9718380570411682,0.9159717784219246,1.1185708281034792,-0.1287122219800949,0.9065377712249756,1.0607508591989925,1.0469072181441883,0.12166339159011841,0.3542902171611786,0.007664859294891357,1.017446357330789,1.0842982202254643,176.40646217582687,172.46506562108513,1.0,0.014464278260767007,-0.006147062423536815,0.16702967675009098,0.10630014255315426,95.27380382843577,0.8195571475123653,105,3.5
0.9514824844486046,0.6242968388231491,0.0952206403017044,0.9999223947525024,0.955102952648219,0.7119208560241079,-0.1393330693244934,0.999995768070221,1.0807916935556623,0.7240874103664894,0.14848199486732483,0.9999276995658875,0.972132771688835,1.0729515661220113,-0.08619716018438339,0.9999775290489197,1.0536204451271833,1.0765160259952467,0.08606012910604477,0.999951183795929,0.9280004023831976,1.3549723511522487,-0.01421645563095808,0.9798043370246887,1.0281825130814917,1.3494996858688513,0.14170637726783752,0.9422775506973267,0.9136279505890046,1.6242968388231491,0.0056243231520056725,0.9833381175994873,1.0422344311272935,1.626555860547458,0.18530793488025665,0.9696916937828064,0.9065447142560168,1.1085638634508928,-0.12890049815177917,0.9115076065063477,1.0515439263324964,1.0372049872444065,0.13895364105701447,0.32068800926208496,0.006286144256591797,1.0128766084080092,1.074733796058629,174.16081017055652,171.772799905861,1.0,0.03399313405831087,-0.002691772664297216,0.16292322107481486,0.02821135826918662,95.20529386050049,0.8238490702183496,106,3.533333333333333
0.9504149051618613,0.6210596762295202,0.049442000687122345,0.9999272227287292,0.9559728247755803,0.7109800045587205,-0.17098750174045563,0.9999958872795105,1.0773602417975705,0.719371838496016,0.1364712417125702,0.9999174475669861,0.969935187063275,1.0709279437182841,-0.09130095690488815,0.9999763369560242,1.0512856046398769,1.0741480653735938,0.09116388857364655,0.9999478459358215,0.9264237609857936,1.3535271559082958,-0.02375182695686817,0.9811717867851257,1.02655762661892,1.3473000520642948,0.1595275104045868,0.9289777278900146,0.9179132667457697,1.6237221347639048,0.01930420473217964,0.9846360087394714,1.0401782863851725,1.6210596762295202,0.22420302033424377,0.9679203629493713,0.9025152932748971,1.1061793230651389,-0.15616583824157715,0.917107343673706,1.0375100704367788,1.0369516012778925,0.11695225536823273,0.290914922952652,0.004343897104263306,1.010610395851576,1.072538004545939,173.0510635432848,171.97886183195638,1.0,-0.002875147948921913,-0.0015049136388442447,-0.272455950621744,0.008748943358085431,94.48816189830958,0.8269909022100375,107,3.566666666666667
0.949024589044542,0.6187454627786123,0.008564195595681667,0.9999315738677979,0.9551157144191997,0.7111003902908853,-0.19807647168636322,0.9999958872795105,1.073275036477463,0.7181422441366522,0.12273899465799332,0.9999061822891235,0.9687579262113033,1.068359700130097,-0.09492523968219757,0.9999751448631287,1.0487728765803905,1.0725684590338325,0.09480719268321991,0.9999449253082275,0.9263705822737499,1.3526323431109706,-0.02693864144384861,0.9823020696640015,1.025610729764891,1.3462687760104077,0.1578882783651352,0.915669322013855,0.924642492111524,1.6248484334457007,0.026333454996347427,0.9857444763183594,1.0387922401834295,1.6187454627786124,0.23035836219787598,0.9658311605453491,0.9005959734630948,1.1045362582388754,-0.16700179874897003,0.9193673729896545,1.0353627405176564,1.0364015611635413,0.10850413143634796,0.2635107934474945,0.0036497116088867188,1.008765401395847,1.0704640795819647,171.88294230783688,172.39319715907718,1.0,-0.004062503603942091,-0.005139455353303092,-0.008510552349868136,-0.025985279210128505,95.19778288825,0.8254595512773376,108,3.6
