nose_x,nose_y,nose_z,nose_visibility,left_shoulder_x,left_shoulder_y,left_shoulder_z,left_shoulder_visibility,right_shoulder_x,right_shoulder_y,right_shoulder_z,right_shoulder_visibility,left_hip_x,left_hip_y,left_hip_z,left_hip_visibility,right_hip_x,right_hip_y,right_hip_z,right_hip_visibility,left_knee_x,left_knee_y,left_knee_z,left_knee_visibility,right_knee_x,right_knee_y,right_knee_z,right_knee_visibility,left_ankle_x,left_ankle_y,left_ankle_z,left_ankle_visibility,right_ankle_x,right_ankle_y,right_ankle_z,right_ankle_visibility,left_wrist_x,left_wrist_y,left_wrist_z,left_wrist_visibility,right_wrist_x,right_wrist_y,right_wrist_z,right_wrist_visibility,trunk_lateral_inclination,center_mass_x,center_mass_y,left_knee_angle,right_knee_angle,person_height,center_mass_velocity_x,center_mass_velocity_y,center_mass_acceleration_x,center_mass_acceleration_y,body_orientation,torso_leg_ratio,frame,timestamp
0.8965609704192381,0.42629010625714525,-0.07132283598184586,0.999527633190155,0.8499330386970013,0.5399981193425617,0.15361151099205017,0.9999237656593323,0.8487797007775034,0.5483528905209916,-0.24611039459705353,0.9998921751976013,0.8684627605081734,0.8728134140366333,0.1283072978258133,0.9998279809951782,0.8589922645590106,0.8810455465536953,-0.12853145599365234,0.9998354315757751,0.89332119154496,1.1646153313174006,0.20002548396587372,0.9199727773666382,0.8847884507836897,1.1827608051193474,-0.13714301586151123,0.9691009521484375,0.8771556540976061,1.4262901062571454,0.2564481496810913,0.9368969202041626,0.8698680075424261,1.4618500720093834,-0.14764560759067535,0.9606610536575317,0.9330359255061691,0.9363668667752169,0.09426376223564148,0.9054521918296814,0.920398798358879,0.9479462725864484,-0.45224976539611816,0.9925787448883057,0.0050310492515563965,0.863727512533592,0.8769294802951643,171.5956822895376,172.05299707789496,1.0,0.24352916854603435,-0.507234136733304,1.2380557286094616,-2.624917700171352,127.81177771769784,0.796566767227938,0,0.0
0.957733618167728,0.4623706184036543,-0.15551480650901794,0.9995394349098206,0.898350039833575,0.5665761291584611,0.08795469254255295,0.999920666217804,0.8958888598036462,0.5807223068795155,-0.33592644333839417,0.9999025464057922,0.9093549079796612,0.9158850818804135,0.1395687609910965,0.9998419284820557,0.9146250850484942,0.9202967246025752,-0.13970108330249786,0.999850869178772,0.9301678023262394,1.1884750084693183,0.26848965883255005,0.8535780906677246,0.9345807887693868,1.2159882124660613,-0.1658162623643875,0.9677231907844543,0.9102236752784538,1.4623706184036542,0.36345618963241577,0.901702880859375,0.9178013313690889,1.5095452512254348,-0.17581439018249512,0.9619256258010864,0.9730402540046116,0.9657940835448187,0.06170295923948288,0.8275408148765564,0.9634663453450791,0.9883056479435514,-0.5038940906524658,0.9931967258453369,0.008157432079315186,0.9119899965140776,0.9180909032414943,171.46907201970794,172.86764646187444,1.0,0.07835990869936446,0.018328034984956033,-1.3743589817063226,4.280613925429967,131.73704580762484,0.8065374375709315,1,0.03333333333333333
0.9479834203990157,0.4644325999311383,-0.1023605614900589,0.9995614886283875,0.8789896314563396,0.5671809078280846,0.13487103581428528,0.9999179840087891,0.8890793957596289,0.5732366517758438,-0.2938447892665863,0.9999120235443115,0.8978531747445164,0.913035872549069,0.13794150948524475,0.9998528957366943,0.9067000243925568,0.9103847425194164,-0.13807417452335358,0.999864399433136,0.9169974846672627,1.1973451603857743,0.2323349267244339,0.7865954041481018,0.9208152994274246,1.209463374451123,-0.15779754519462585,0.96206134557724,0.8998946691995792,1.4644325999311383,0.3199008107185364,0.8500980138778687,0.9085606256438588,1.4906819872509527,-0.15818345546722412,0.9594195485115051,0.9567184729515488,0.9568455567966697,0.10353592783212662,0.7572649717330933,0.9523462587387341,0.976108899543074,-0.5066738128662109,0.9938216209411621,0.003541797399520874,0.9022765995685366,0.9117103075342426,172.48382936046443,174.80267950339052,1.0,0.02393053124014517,0.05037647644008617,-0.4125629863213082,0.2499237482619439,76.4400560887743,0.7945663534820729,2,0.06666666666666667
0.951452541448682,0.4560873507097712,-0.14207741618156433,0.9995743036270142,0.8845225884547284,0.565071379242097,0.09165643155574799,0.9999167323112488,0.8845661984959708,0.5718948294160275,-0.31667348742485046,0.9999204874038696,0.9012530229745304,0.9127636398137161,0.13403180241584778,0.9998617768287659,0.9041791553231963,0.9095950153520023,-0.13412287831306458,0.9998763203620911,0.9124191204879011,1.1906349566224612,0.2238154411315918,0.7148942947387695,0.9147922166623927,1.2025389766011338,-0.1416153907775879,0.9451797008514404,0.8947472161707656,1.4560873507097711,0.30813878774642944,0.7854660749435425,0.9049894907407008,1.48126322468162,-0.1390673816204071,0.9503233432769775,0.9540237083453746,0.9734648618938452,0.07243136316537857,0.6892603039741516,0.9458380021854715,0.9717253283417754,-0.49759626388549805,0.9942708611488342,0.004010200500488281,0.9027160891488634,0.9111793275828592,173.8901210677597,175.9108785959492,1.0,0.03581480097531226,0.028919879983200104,0.08946356727672333,-0.15814826505528393,45.47643716370515,0.8209688147686384,3,0.1
0.9649188270636311,0.4659684451484457,-0.13332602381706238,0.99959397315979,0.8927082123502796,0.576427105805292,0.11053081601858139,0.9999138712882996,0.8955923453867463,0.5835341652025143,-0.30718860030174255,0.9999281764030457,0.9151010944693343,0.9308263173458604,0.13524650037288666,0.9998722076416016,0.9208968520106456,0.9287918457215861,-0.13536614179611206,0.9998878240585327,0.9246702877152057,1.2029526248895193,0.2494693547487259,0.652129590511322,0.9326487854742906,1.2200700280804242,-0.12510287761688232,0.9352445602416992,0.9097529227446494,1.4659684451484456,0.35357874631881714,0.73708176612854,0.9224951668557091,1.5009746600736567,-0.09519291669130325,0.9461427927017212,0.9565139541339344,0.983623321990786,0.09468132257461548,0.6251682043075562,0.9589605918552767,0.9854848135893108,-0.4738352298736572,0.9947265386581421,0.00411418080329895,0.91799897323999,0.9298090815337233,174.73990627904175,175.61947275417603,1.0,0.011266406434724121,0.03502907673006514,-0.18530931122511388,0.041859030649864355,74.27296670979467,0.8420356895048454,4,0.13333333333333333
0.9678793186066287,0.4727676782547312,-0.16279299557209015,0.9996259808540344,0.8972015513422316,0.585283989912331,0.08672358095645905,0.9999175667762756,0.8984162583349341,0.5926894785803198,-0.340312659740448,0.9999352097511292,0.9214691877453219,0.9367684083419819,0.1394977569580078,0.9998825192451477,0.9222851006243374,0.9329336902809826,-0.1396014243364334,0.999898374080658,0.9296624811402323,1.2041676262520615,0.2514497637748718,0.5936629176139832,0.9349750771796539,1.222977932926495,-0.12735962867736816,0.9270329475402832,0.9158271620927767,1.4727676782547312,0.3525933623313904,0.6876917481422424,0.9270457830033059,1.5103618916817418,-0.10710485279560089,0.9409820437431335,0.9620618111205685,0.975571117015376,0.07796133309602737,0.5678818225860596,0.9606221353820087,0.9886708617695433,-0.4827756881713867,0.9950962066650391,0.004263550043106079,0.9218771441848297,0.9348510493114822,175.29632538342838,175.91433698144283,1.0,-0.00934678437311145,-0.00047193736839189757,-0.1669564912661993,-0.28823253795608533,15.961319268635007,0.834119849934931,5,0.16666666666666666
0.9772639296665265,0.4839175108351014,-0.14681324362754822,0.9996554255485535,0.9063493965791187,0.5926834931055808,0.0994928628206253,0.9999224543571472,0.9048474734243013,0.6003733459219138,-0.3267778754234314,0.9999415278434753,0.9315256875106221,0.9428418386287077,0.13973671197891235,0.99989253282547,0.9297496244931127,0.9373243824127899,-0.1398356854915619,0.9999080896377563,0.9369736170134582,1.2064460032161846,0.2477191686630249,0.5405091643333435,0.9426205223648436,1.2277488419522098,-0.16675986349582672,0.9249366521835327,0.9226397351220141,1.4839175108351015,0.3503970801830292,0.6440537571907043,0.9321164557828896,1.5226727028937728,-0.179300457239151,0.9396421313285828,0.9719064057695898,0.9782436717119816,0.09656964242458344,0.5191499590873718,0.9699483832011769,0.9957146072492351,-0.49409955739974976,0.995395302772522,0.0043905675411224365,0.9306376560018674,0.9400831105207488,175.85882174588923,175.42265675486803,1.0,0.008113866174828455,-0.019859500455421293,0.13490043499954368,-0.14909013351612294,13.730835004303465,0.8141396540573828,6,0.2
0.9951627114273465,0.49734928731060907,-0.133986234664917,0.9996830224990845,0.9149282989847857,0.6065201666752215,0.107536181807518,0.9999275803565979,0.9214333270715913,0.6126733765151129,-0.3276034891605377,0.9999472498893738,0.9463354557259189,0.9594381906350633,0.14379963278770447,0.9999018311500549,0.944407355846481,0.9550595715662701,-0.1439124047756195,0.9999168515205383,0.9528237103416889,1.2237127196999587,0.27211517095565796,0.4926660358905792,0.9588169352394862,1.247893164454913,-0.17780598998069763,0.9245160818099976,0.9381870521224466,1.4973492873106091,0.3890986740589142,0.6048641800880432,0.9476111949755174,1.544582213973968,-0.18862469494342804,0.9391037821769714,0.974570727861951,0.9968992964855916,0.10466434061527252,0.4768349528312683,0.9860104474307475,1.011400811485666,-0.4785034656524658,0.9956457614898682,0.003454744815826416,0.9453714057861999,0.9572488811006666,175.53180332355154,175.019902159793,1.0,-0.00743443663814341,0.009189838278659953,-0.11476352742260251,0.21499796067457053,18.680505120587203,0.820591326956186,7,0.23333333333333334
0.9795085192931364,0.48495007138255486,-0.15118266642093658,0.9997115731239319,0.89776728111983,0.5959896243948413,0.0916791781783104,0.999932587146759,0.9063320386894231,0.604541638343883,-0.3706511855125427,0.9999524354934692,0.9292679442842642,0.9433406617856163,0.14387087523937225,0.9999096989631653,0.9295941600791985,0.939882753468132,-0.1439664214849472,0.9999246001243591,0.9347215871448206,1.2055574720312783,0.26429280638694763,0.4492301642894745,0.9404761674710207,1.229858407407804,-0.1531781256198883,0.9193973541259766,0.920449358862705,1.484950071382555,0.38255423307418823,0.5641903281211853,0.9317417735098256,1.522298385085577,-0.1287253201007843,0.9328241348266602,0.9577849289451755,0.9812353843337555,0.08419295400381088,0.4374893009662628,0.9681889461104146,0.995096787536948,-0.48850423097610474,0.9958478808403015,0.004879951477050781,0.9294310521817314,0.9416117076268741,175.88421981493894,176.1400898637658,1.0,-0.006006545177931944,-0.002074247518010831,0.010416161735629948,-0.0884933890886807,10.571159404275102,0.8174011005329963,8,0.26666666666666666
0.9698438849803597,0.4766693832003807,-0.20074839890003204,0.9997375011444092,0.8900008000371417,0.5905302650319932,0.06670267134904861,0.9999370574951172,0.9004382794144226,0.5984860747939387,-0.38673827052116394,0.9999570846557617,0.9199049862625747,0.9371719018665322,0.1450784057378769,0.9999167323112488,0.9214817434011444,0.9340766286351947,-0.14516586065292358,0.9999315738677979,0.9255929187178845,1.198385686713746,0.2679094970226288,0.4100821912288666,0.9321918779234518,1.2243114498994359,-0.1318962574005127,0.9153485298156738,0.9126987449780052,1.4766693832003808,0.396213561296463,0.5275331139564514,0.9251125855376499,1.5143648119622548,-0.08479901403188705,0.9265041947364807,0.9497426409018781,0.974095688587408,0.07701828330755234,0.4023149609565735,0.9597361618446121,0.9874926835981608,-0.49751177430152893,0.9960953593254089,0.004575848579406738,0.9206933648318596,0.9356242652508635,176.09969935282967,176.48851934048105,1.0,-0.011391874128649901,0.011694469471844321,-0.04406403227065334,0.11154339202418743,31.925262565575373,0.8243995755026661,9,0.3
0.9687822419565563,0.47394563933336376,-0.24760723114013672,0.9997609853744507,0.8913501480169946,0.5888038043574186,0.027789171785116196,0.9999417662620544,0.8991449730097314,0.5974174809072234,-0.4085243344306946,0.999961256980896,0.9189884067286409,0.9367588312907508,0.1434420943260193,0.9999231696128845,0.918819977969684,0.9337102396973127,-0.14352020621299744,0.9999378323554993,0.92420514332982,1.1933299726947686,0.26376834511756897,0.37415778636932373,0.9306483974086402,1.2214902880944418,-0.13086172938346863,0.9100441336631775,0.911347621068005,1.4739456393333636,0.39845338463783264,0.4937466084957123,0.9241354736587825,1.5119193368068444,-0.07407958805561066,0.9188578128814697,0.9509520857448348,0.9733158431057642,0.06458266824483871,0.37494295835494995,0.9593455730074228,0.9866731650284546,-0.5222276449203491,0.9962887167930603,0.004959523677825928,0.9189041923491624,0.9352345354940317,176.2117941065881,176.36168413380472,1.0,-0.0059998102356219815,0.004540136500410595,0.040062275395692855,-0.053182895040983474,1.3792345225705607,0.8319471158392633,10,0.3333333333333333
0.9621840023447632,0.47008898178536174,-0.21344220638275146,0.9997825026512146,0.8842318486495323,0.5853841346134543,0.05722386762499809,0.9999449253082275,0.8962717174473913,0.5936477363965696,-0.3741261065006256,0.9999650120735168,0.9126352323313767,0.931302433783038,0.1437385529279709,0.9999287724494934,0.9148721050910166,0.9282102619214518,-0.1438433825969696,0.9999434947967529,0.9184669762201524,1.1887584789965286,0.2513708472251892,0.34532055258750916,0.9255459455085524,1.2145270925873632,-0.1306704729795456,0.9109233617782593,0.9044394738448649,1.4700889817853617,0.39553722739219666,0.47544798254966736,0.918883816141166,1.5036399112539676,-0.08510544896125793,0.9187925457954407,0.9427253300823457,0.967135636457114,0.08385857939720154,0.34450459480285645,0.9548333510233785,0.9812889423353598,-0.5093244314193726,0.9965247511863708,0.00478440523147583,0.9137536687111967,0.9297563478522449,175.84791376932998,176.54495886036707,1.0,-0.000546387284901999,-0.0023632136424852858,0.041481331633862674,-0.05263939264279728,40.57595561601233,0.8296539442586384,11,0.36666666666666664
0.9702985468885332,0.4795921756443739,-0.17957496643066406,0.9998015761375427,0.8893849017992732,0.5934565751532331,0.0759064108133316,0.9999486207962036,0.9025922500376882,0.5989203967739997,-0.3613772988319397,0.9999683499336243,0.9161196240354348,0.9364131682581214,0.14291320741176605,0.9999334812164307,0.9192329687164215,0.9334531627867466,-0.14301420748233795,0.9999483227729797,0.9232135801011646,1.1961158826414944,0.21444348990917206,0.3180646300315857,0.9312813746560086,1.220665986745574,-0.14129897952079773,0.9088972210884094,0.909362558972739,1.479592175644374,0.286735475063324,0.44954368472099304,0.9230829003294103,1.5115247039089186,-0.1286749541759491,0.9144197106361389,0.9453835120204179,0.9732631049410301,0.08618243038654327,0.317595899105072,0.9598018468373064,0.9861766047615653,-0.4689773619174957,0.9966435432434082,0.0031475424766540527,0.9176762963759282,0.934933165522434,175.63799420204273,175.98330830870148,1.0,-0.00500390464204354,0.0035939269668123657,-0.032637652713072625,0.04373202990109743,50.90369116863384,0.8176025149836672,12,0.4
0.9805038559425051,0.4869629193152423,-0.18379434943199158,0.9998193979263306,0.8962381781052191,0.5988271099885029,0.07768978178501129,0.9999522566795349,0.9096416077318183,0.6035646773731467,-0.3600212037563324,0.9999713897705078,0.9231601338956383,0.9416111305023755,0.14317427575588226,0.999937891960144,0.9258113159078845,0.9379509772154728,-0.14326545596122742,0.9999527931213379,0.9303234337800831,1.2024764938258632,0.2052718698978424,0.2915847599506378,0.9382655118647433,1.2256978457347767,-0.14810392260551453,0.9045938849449158,0.9164814071135499,1.4869629193152423,0.2933562397956848,0.41874080896377563,0.9294614608002462,1.5219551857453772,-0.13117411732673645,0.905581533908844,0.9529110249555147,0.9809556932543838,0.08682674914598465,0.29717302322387695,0.9672224036243733,0.9928744401033033,-0.469442218542099,0.996778130531311,0.0027085840702056885,0.9244857249017614,0.9397810538589242,175.64146929171847,175.8194926823946,1.0,-0.0012516946388290051,-0.017133658283086037,0.028765068597879594,-0.15751407111712018,40.40792137862299,0.8080125778549,13,0.43333333333333335
0.9840873897797953,0.48900458640486855,-0.18860387802124023,0.9998352527618408,0.9010978319425464,0.6018467757968897,0.07255969941616058,0.9999556541442871,0.9107917659237671,0.6056531645692512,-0.36726993322372437,0.9999741315841675,0.9244965401661575,0.9431606592534864,0.1431601643562317,0.9999420642852783,0.9265776966026551,0.9396188516904098,-0.14324699342250824,0.9999568462371826,0.9316201373807526,1.2048905088420179,0.20956119894981384,0.26782429218292236,0.9391005460269262,1.2278011850461352,-0.1446690708398819,0.9014052152633667,0.917798026669932,1.4890045864048684,0.31046876311302185,0.3939937353134155,0.9303441554825126,1.5226514450784685,-0.12229885160923004,0.8999138474464417,0.9544936500770751,0.983991871213413,0.08224387466907501,0.27803876996040344,0.9700342598477685,0.9942824047649881,-0.4771352708339691,0.9968963265419006,0.0021733343601226807,0.9255371183844062,0.9413897554719481,175.65570888767687,175.81074390379447,1.0,-0.0013092543594933473,0.002820796946204551,-0.00042989190389237735,0.15361574506266007,34.36014362524794,0.8081582462589036,14,0.4666666666666667
0.9825258251215365,0.4897045214215512,-0.17980840802192688,0.9998491406440735,0.9015941613426637,0.6041595711123907,0.08309207111597061,0.9999585747718811,0.9111943516996326,0.6060658542229843,-0.3632368743419647,0.999976634979248,0.9242897423006007,0.9430086993865319,0.14421412348747253,0.9999463558197021,0.9275019117882258,0.9396757826330053,-0.14429731667041779,0.9999606609344482,0.931151359619954,1.2056046768953967,0.21140575408935547,0.24782422184944153,0.9410013934985895,1.2287651922263598,-0.1642729490995407,0.9034789204597473,0.9152397503756393,1.4897045214215512,0.3156920075416565,0.37681594491004944,0.9310660955609725,1.5220929665239424,-0.15535686910152435,0.9001194834709167,0.9552320379962529,0.9863712654903114,0.0912550613284111,0.26031920313835144,0.9708960996911135,0.9941126576165356,-0.47641611099243164,0.9969926476478577,0.0010887384414672852,0.9258958270444132,0.9413422410097686,175.29758364616876,175.38650388821313,1.0,0.0047148295457399465,0.001661117703168074,0.04578720342279391,-0.008808846010031846,47.774954454923595,0.8062389704060009,15,0.5
0.9791449930292063,0.4872982028378612,-0.1591574102640152,0.9998617172241211,0.8993054821603598,0.6019864757543519,0.10144934803247452,0.9999609589576721,0.9093438623955227,0.6047275194897436,-0.3492845296859741,0.9999788403511047,0.9222420954719153,0.9418193578872847,0.14484629034996033,0.9999493956565857,0.9261436365645072,0.9376112663936521,-0.14493349194526672,0.9999638795852661,0.9290709638146616,1.203960143866269,0.2057938277721405,0.23062948882579803,0.939685479705041,1.226963710950878,-0.15964224934577942,0.9046024084091187,0.9140474951114895,1.4872982028378612,0.28884392976760864,0.3622312843799591,0.9309577482123707,1.5188158324535455,-0.14509519934654236,0.8990294337272644,0.9529863725643222,0.9841647558462462,0.095168337225914,0.24631553888320923,0.968771219165731,0.9912991333182904,-0.4700610041618347,0.9971820712089539,0.0015690326690673828,0.9241928660182113,0.9397153121404684,175.4726015084508,175.6075842793862,1.0,0.0029861872208211274,0.0038488185088982213,-0.013370351334062534,0.017054772061513086,46.696459707232094,0.8089916962585251,16,0.5333333333333333
0.97747021202937,0.4857990179097838,-0.1685045212507248,0.9998737573623657,0.8983331259207779,0.6006474496030394,0.093617744743824,0.9999633431434631,0.908372448325021,0.6042472752204784,-0.3508746325969696,0.9999808669090271,0.9212465534455871,0.9420362081476263,0.14531928300857544,0.9999521970748901,0.9252844156585056,0.9373867692562275,-0.14540517330169678,0.9999668002128601,0.9280507600322367,1.2032489282976788,0.20964059233665466,0.21555905044078827,0.9388736910581925,1.2261703645647064,-0.15757109224796295,0.9061761498451233,0.9141192929195906,1.4857990179097837,0.29694053530693054,0.34947970509529114,0.9307221436053807,1.5175291345300717,-0.14105018973350525,0.8985152244567871,0.9524002486454435,0.9835817144189655,0.08986671268939972,0.23617666959762573,0.9687750061924739,0.9902700542675493,-0.48431849479675293,0.9973536133766174,0.0020629465579986572,0.9232654845520464,0.9397114887019269,175.6851164168849,175.70323686269802,1.0,0.0008782141449284455,0.008014344888810419,-0.015959036661391694,0.03161980697693755,44.81291760897961,0.8134770848500872,17,0.5666666666666667
0.9811621518803919,0.4886633409710747,-0.1647081822156906,0.9998841285705566,0.9017599168492584,0.6029281175368639,0.09188465774059296,0.999965488910675,0.9123848962306974,0.6070130459638358,-0.35012704133987427,0.9999826550483704,0.9250083622619574,0.9481311127508522,0.1450030505657196,0.9999548196792603,0.9297353892178811,0.9438656283681333,-0.1450948864221573,0.9999694228172302,0.9314205781381868,1.2076836137666425,0.22394104301929474,0.20367643237113953,0.9424747367818842,1.2309846756590737,-0.14947286248207092,0.9084414839744568,0.9176534344571963,1.4886633409710748,0.3261488974094391,0.3398979902267456,0.9343096822256938,1.5229470490297896,-0.11901958286762238,0.8989952206611633,0.9591286877992823,0.9864255746158057,0.08688409626483917,0.23151087760925293,0.9738894895241006,0.9935361072240338,-0.482712984085083,0.9975151419639587,0.002332240343093872,0.9273718757399192,0.9459983705594928,175.77972801022204,175.85755431917033,1.0,0.005322605206693164,0.02238663455014435,0.03576171118765097,0.11549087729576815,51.791030646394724,0.8225777235675903,18,0.6
0.9900986098745392,0.4950761348363408,-0.16191807389259338,0.9998929500579834,0.9110928691178602,0.6082714264100059,0.09434262663125992,0.9999674558639526,0.9195334501503631,0.6138917115813206,-0.3429628312587738,0.9999842643737793,0.9322691297706454,0.9561226987048629,0.14450089633464813,0.9999571442604065,0.9368124312286558,0.9519667999463823,-0.14459386467933655,0.9999717473983765,0.9383761408756984,1.21688785375748,0.22377116978168488,0.18871763348579407,0.9498809068127111,1.2410767438224422,-0.1519286334514618,0.906748354434967,0.9247199326790485,1.4950761348363408,0.3255317807197571,0.32304656505584717,0.9413866659820659,1.534150358121284,-0.12267933040857315,0.8948853611946106,0.969261984179408,0.993793139584286,0.09637508541345596,0.22391344606876373,0.9829232427100008,1.0011679949395653,-0.4772748351097107,0.9976423382759094,0.003183901309967041,0.9345407804996506,0.9540447493256226,175.8480194569417,175.75169654427253,1.0,-0.0006869072385558672,0.004710165623928,-0.044639254112250074,-0.1316913721683376,51.0335915772091,0.8247269030196055,19,0.6333333333333333
0.9901034441985085,0.4938619354797364,-0.1658441722393036,0.9999006390571594,0.9098408065503085,0.6072733415779681,0.09167146682739258,0.9999692440032959,0.9177511803707585,0.6133930471391358,-0.3450295329093933,0.9999856948852539,0.9310474792098578,0.9563751734974164,0.1444987952709198,0.9999596476554871,0.9351857304189357,0.9526774322482182,-0.1445808708667755,0.9999739527702332,0.9375381985853148,1.2152627613544909,0.22369149327278137,0.17782114446163177,0.9482630875083594,1.2395495368053004,-0.15147489309310913,0.9081825017929077,0.9239123314790697,1.4938619354797364,0.32509350776672363,0.31435778737068176,0.9398340402626943,1.5316802355745989,-0.12155632674694061,0.8949373364448547,0.971802057117427,0.9887352683798789,0.09839681535959244,0.2161889672279358,0.9838058222011241,0.9989337095545434,-0.47262364625930786,0.9977061152458191,0.0034720003604888916,0.9331166048143967,0.9545263028728173,175.76378613971022,175.73718467992666,1.0,-0.00022744118601531222,0.014044008906833064,0.003381539433297657,0.06889969041555269,51.69380565505261,0.8314867998568685,20,0.6666666666666666
0.9889199940847301,0.4930914873744776,-0.14448966085910797,0.9999074339866638,0.9068693433787968,0.6043428010188622,0.10967786610126495,0.9999704360961914,0.9175542982633184,0.6126474789835266,-0.3364468812942505,0.999987006187439,0.9282147986074136,0.9566891197131618,0.14523330330848694,0.999961256980896,0.9337434139357085,0.9541341974917198,-0.1453261375427246,0.9999758005142212,0.9372265591422565,1.2143127702134882,0.2212473601102829,0.1666315495967865,0.9478820216411138,1.2385221355048126,-0.15091153979301453,0.9083210229873657,0.9224883428984172,1.4930914873744776,0.31469643115997314,0.3027610182762146,0.9388106466042877,1.530053528155205,-0.12327782064676285,0.8932192325592041,0.9707459673885585,0.9862227527353138,0.11313633620738983,0.20819315314292908,0.9848910823107294,0.9961403808170188,-0.4592910706996918,0.9978315234184265,0.004716277122497559,0.9309791062715611,0.9554116586024408,174.97034837014616,175.3715740839759,1.0,-0.00917712136420708,0.013721861153622545,-0.06732913297518446,-0.002319586519573627,68.66386087626772,0.8377706345935506,21,0.7
0.9865449224237962,0.49178625223457406,-0.1435403972864151,0.9999143481254578,0.9027651977208078,0.600798709736315,0.10688712447881699,0.9999717473983765,0.9172789891622373,0.6109981872155354,-0.3366013169288635,0.9999881982803345,0.9204096959890521,0.9546711758057552,0.14506404101848602,0.9999624490737915,0.9300477295387555,0.953384450588956,-0.14516322314739227,0.9999774098396301,0.9353576302564572,1.2130963941543669,0.20964188873767853,0.15805500745773315,0.9469855810562557,1.2372026796882296,-0.1475439816713333,0.9095844030380249,0.9207075345084398,1.491786252234574,0.2815331220626831,0.2968985438346863,0.9363743640702685,1.526311023396184,-0.12495559453964233,0.8929811716079712,0.968188961738062,0.9838951541411175,0.11531989276409149,0.19875147938728333,0.9846184463486568,0.9935961054237389,-0.45541176199913025,0.9979861378669739,0.005807101726531982,0.9252287127639037,0.9540278131973556,173.68042355852805,174.48272543126086,1.0,-0.026014562068931938,0.008023791808214694,-0.1295913317574381,-0.043527201037293,85.25016665056381,0.8401141297054572,22,0.7333333333333333
0.9867743619974398,0.4924352809225292,-0.13058659434318542,0.9999188780784607,0.9027006546687932,0.5997566627902223,0.11212104558944702,0.9999725818634033,0.9207600105872518,0.6100844671963468,-0.3304639160633087,0.9999892711639404,0.9140071570198613,0.9554866987574634,0.14525873959064484,0.9999630451202393,0.9287420070253335,0.9544828254709765,-0.14536741375923157,0.9999787211418152,0.935555155797418,1.2132372887947172,0.216959148645401,0.14810097217559814,0.9498529702480326,1.2386501473856613,-0.14019539952278137,0.9089142084121704,0.9206700911760847,1.4924352809225292,0.28507643938064575,0.28734132647514343,0.936861342540774,1.5262027938139004,-0.11175123602151871,0.8905740976333618,0.9644226365156447,0.983936404888999,0.12046537548303604,0.18949900567531586,0.9857500762718637,0.9935614456549952,-0.4448358118534088,0.9981256723403931,0.005880683660507202,0.9213745820225974,0.9549847621142199,172.16941616450674,173.16440262504395,1.0,-0.029447457050659907,0.008126465331927582,-0.02681423705485769,0.0008069677412567883,87.92298090598699,0.842645052890656,23,0.7666666666666667
0.9881969881116622,0.4957860911579168,-0.13299362361431122,0.9999213218688965,0.9040289801916593,0.6001441525224255,0.10872087627649307,0.9999733567237854,0.9215184799456136,0.6094360782044206,-0.33104079961776733,0.9999902248382568,0.9128828507607867,0.9567957007495522,0.14527186751365662,0.9999629855155945,0.9258023843133292,0.9557809097594413,-0.14538733661174774,0.999979555606842,0.936834999922169,1.2089338924100375,0.23536276817321777,0.13879354298114777,0.9516114720543847,1.240127106214109,-0.13310281932353973,0.9062584042549133,0.9238468073366213,1.4957860911579168,0.3376106023788452,0.2716430723667145,0.9380758940179167,1.5281806808051515,-0.09402130544185638,0.882193922996521,0.970176769756021,0.9846540771856463,0.119332455098629,0.18914605677127838,0.9880100887897567,0.9951109003238033,-0.43368133902549744,0.9982080459594727,0.0052835941314697266,0.9193426175370579,0.9562883052544967,171.98092064097705,172.12334044744293,1.0,-0.025722942601193087,-6.337210686139917e-05,0.029369765037298944,-0.06397448891309775,86.93088285930295,0.8377221969589018,24,0.8
0.9935596671423066,0.5083363713586679,-0.11396819353103638,0.9999246597290039,0.9077969360169484,0.6052553739609519,0.11347679048776627,0.9999738335609436,0.9279292624478426,0.6132036170677851,-0.31998947262763977,0.9999911189079285,0.913900826109433,0.9654760433425065,0.14429791271686554,0.999963104724884,0.9272177247042988,0.9645906232995857,-0.14443610608577728,0.9999805092811584,0.9429996234305503,1.2122644209485096,0.2332199364900589,0.131887286901474,0.9572701890277531,1.2468641549012192,-0.11376242339611053,0.9009238481521606,0.9332976019777295,1.508336371358668,0.3342881500720978,0.26172372698783875,0.9426996738311405,1.5353907088399876,-0.06279908865690231,0.8768565654754639,0.9719867822069435,0.9893414152618422,0.12131039053201675,0.18535763025283813,0.9931546087998451,1.0000521857536895,-0.4179612100124359,0.9983323216438293,0.00449824333190918,0.9205592754068659,0.9650333333210461,171.39844706748102,171.03188809387723,1.0,-0.02413469169743821,0.032434536660126446,0.013155474912718807,0.25000663507652815,87.16686701423927,0.8301747638117948,25,0.8333333333333334
1.0014983561216035,0.5144945577417903,-0.12706831097602844,0.9999231100082397,0.911322965043044,0.6098848582090791,0.10854866355657578,0.9999734163284302,0.9327867869791764,0.618986739976486,-0.3240908086299896,0.9999918937683105,0.9168101009902386,0.9721273834228087,0.1429433822631836,0.999963641166687,0.9244126751645755,0.9748480632216845,-0.14308352768421173,0.9999816417694092,0.9482687078055442,1.217170084933629,0.2409035861492157,0.12312816828489304,0.9620379799922466,1.2539872733291024,-0.09992514550685883,0.8935045599937439,0.936629251637033,1.5144945577417903,0.3604152500629425,0.24831053614616394,0.9461931256609423,1.5415800959780983,-0.03751910477876663,0.8704158663749695,0.9616085492037082,0.9924166666930965,0.11720512807369232,0.1723106950521469,0.9968314942975672,1.0068770243216194,-0.4242468774318695,0.9984228610992432,0.005131661891937256,0.9206113880774071,0.9734877233222465,170.44254613680627,169.16983455663734,1.0,-0.026484814440940807,0.03688232738188832,-0.017382260728860024,0.03328403878833383,110.55824004162844,0.8398471915292768,26,0.8666666666666667
1.0185701414810306,0.5268230194811788,-0.13183395564556122,0.9999198317527771,0.9234289949203751,0.6216342268183449,0.1066223606467247,0.9999732375144958,0.9438456767114771,0.628794707497685,-0.32517704367637634,0.9999925494194031,0.9231889228262562,0.9924940692225284,0.14283901453018188,0.99996417760849,0.9276349471412312,0.9944166714505189,-0.1429801732301712,0.999982476234436,0.9549637224094987,1.2397187553285318,0.2629998028278351,0.11475830525159836,0.9714437335560077,1.274090746931765,-0.07896021753549576,0.8833073377609253,0.944343410551371,1.526823019481179,0.4004148840904236,0.23673036694526672,0.953498770936416,1.5551920360879954,0.008292125537991524,0.8606958389282227,0.9711169924510012,1.0008629056686704,0.12080557644367218,0.16290825605392456,1.0049944483328235,1.0174993048089949,-0.43144145607948303,0.9984331727027893,0.004003584384918213,0.9254119349837437,0.9934553703365236,170.5576841339605,167.44470632519182,1.0,-0.021919446962779608,0.0891746079886373,0.03611753945237095,0.39220760676740246,113.34809998092695,0.8682295992148829,27,0.9
1.0333498876177087,0.5401081146500902,-0.1617661565542221,0.9999226927757263,0.9376024219091806,0.6306864732651174,0.07905366271734238,0.9999741911888123,0.9574885224852451,0.6364531898454325,-0.3605348467826843,0.9999932050704956,0.9248137938587994,1.0101407128503075,0.1428680270910263,0.9999633431434631,0.9288219692855595,1.013947033849687,-0.14301198720932007,0.9999825954437256,0.9629232218524723,1.260902060350067,0.2773377299308777,0.10669358819723129,0.980050967705495,1.29385581671532,-0.04395595192909241,0.8642386198043823,0.9523927192892273,1.5401081146500903,0.4292027950286865,0.22746159136295319,0.9585934551335273,1.5686403131989632,0.0747365728020668,0.8479382991790771,1.065521699915233,0.9937154805954533,0.09188045561313629,0.1687631905078888,1.0131238160332283,1.0284977500164048,-0.5278406143188477,0.9985080361366272,0.003197908401489258,0.9268178815721795,1.0120438733499972,169.19866660086473,165.1634124688312,1.0,-0.04450275584803972,0.0742031167912048,-0.15999614335248016,-0.11218108531441891,131.59004398991567,0.8908479045714647,28,0.9333333333333333
1.0567889111333004,0.5637536661308037,-0.07994630187749863,0.9999198317527771,0.9532478662653542,0.6428955461090926,0.1191193088889122,0.9999668002128601,0.9806148039083495,0.6543154252209719,-0.2727673649787903,0.9999936819076538,0.9274278940845405,1.0268268911816476,0.1364736557006836,0.9999637603759766,0.9389055593136842,1.0326494836545774,-0.13660839200019836,0.9999833703041077,0.9773418942638467,1.2851176302169773,0.26202934980392456,0.10152111947536469,0.9955153280267962,1.314337215880149,-0.0466826930642128,0.866348385810852,0.967273140788972,1.5637536661308036,0.391525536775589,0.222543403506279,0.972286836753564,1.5927447265256995,0.017141055315732956,0.848442554473877,0.9782913545475137,0.6462440306095082,0.37879663705825806,0.156931072473526,1.028381386846079,1.0480778858640698,-0.45025762915611267,0.9982525110244751,0.006237119436264038,0.9331667266991124,1.0297381874181124,166.9930318622436,163.8674998386686,1.0,-0.060975980139519104,0.01673550568297774,-0.12225039690099598,-0.45374113565373303,113.05113723643446,0.8769772671514716,29,0.9666666666666667
1.0846944085379817,0.5847958907115396,-0.002218890469521284,0.99991375207901,0.9709617518414427,0.6618702391654017,0.1952458769083023,0.9999575018882751,1.0086662995884996,0.6723294646289861,-0.2443808615207672,0.9999942183494568,0.9305785195658187,1.0461170584916557,0.14079469442367554,0.9999653697013855,0.9536029063159946,1.0530807930445396,-0.14094117283821106,0.999984622001648,0.9964130361164213,1.311458188176754,0.2636640667915344,0.1069583147764206,1.0170497836511274,1.33876173064418,-0.07083693146705627,0.8762180805206299,0.9849241419362488,1.5847958907115396,0.3848666250705719,0.24087053537368774,0.9914763871278566,1.623828214535428,-0.009606067091226578,0.8596479296684265,0.9580988168346303,0.9544834935491258,0.258865088224411,0.14233896136283875,1.0463551662544914,1.074105897565618,-0.39338427782058716,0.998371958732605,0.005605608224868774,0.9420907129409066,1.0495989257680978,163.65874065848251,162.3521138997356,1.0,-0.06820322878003468,0.0018082697959012934,-0.04668184759962125,-0.11734678215538653,100.82836483220942,0.8734501351067574,30,1.0
1.1009806540502431,0.6016898292466585,-0.009604467079043388,0.9999107718467712,0.979342373066716,0.6801998598905569,0.18978753685951233,0.999953031539917,1.0188624466801994,0.6889618544645655,-0.23898598551750183,0.999994695186615,0.9309014155715107,1.0565529401693237,0.1408262997865677,0.9999663233757019,0.9529275298920314,1.0644554982199468,-0.14097587764263153,0.9999855756759644,1.0040196305610698,1.3257671171294327,0.228478342294693,0.1040150597691536,1.0252087186977978,1.3489720153125369,-0.07875417172908783,0.8759858012199402,0.9917819043679097,1.6016898292466586,0.3139137029647827,0.2341398000717163,0.9989914226666242,1.638220811765249,-0.011266090907156467,0.8583788871765137,0.9589125472353933,1.0769540807659674,0.20939895510673523,0.12891165912151337,1.0532501043201308,1.0950542397449166,-0.33640190958976746,0.9983723759651184,0.004660844802856445,0.9419144727317711,1.0605042191946352,162.26556688209422,160.5665165134647,1.0,-0.055366345581083,0.02276982730573176,0.10156621620670615,0.159358754003629,102.4027377964115,0.8640627146233361,31,1.0333333333333334
1.1188930057300492,0.6312649555858331,0.040704336017370224,0.9999116063117981,0.9946317381981675,0.704039642232941,0.20782570540905,0.9999520778656006,1.0426637223502135,0.7153697571822586,-0.21820512413978577,0.9999951124191284,0.9329863191789466,1.0792068748504549,0.14087024331092834,0.9999670386314392,0.9644614261687698,1.0892471885508248,-0.1410263627767563,0.9999863505363464,1.0201005239988605,1.3546235674805667,0.24583856761455536,0.10873142629861832,1.043517166687941,1.3777862862497916,-0.06612861156463623,0.8818992972373962,1.0065397096476323,1.6312649555858332,0.3322111964225769,0.24144336581230164,1.0171575377862907,1.669795031403274,-0.01494115125387907,0.8627648949623108,0.9474648284870484,1.1133431660914992,0.23500701785087585,0.11754193902015686,1.0716837943690576,1.1291591942778525,-0.31612125039100647,0.9983864426612854,0.005922853946685791,0.9487238726738582,1.0842270317006397,159.64149258556878,159.51965383817338,1.0,-0.07758935655085071,0.04052596223972188,-0.16925376710762063,0.1382378797803252,98.36113136515073,0.8491781229627416,32,1.0666666666666667
1.134926034366515,0.6515617436146248,0.04971417039632797,0.9999119639396667,1.006807399835998,0.7239067517647921,0.21860799193382263,0.9999518990516663,1.0579616264225997,0.7376362384707641,-0.2011023312807083,0.9999954700469971,0.9315338031519137,1.0988560098227973,0.1404626965522766,0.9999682903289795,0.9674837151049404,1.108238298069812,-0.14063866436481476,0.9999871253967285,1.0324985652577015,1.3739955721685333,0.24217060208320618,0.11642150580883026,1.0582738845271837,1.3987283764869993,-0.0646904855966568,0.8873699903488159,1.0173793856896094,1.6515617436146248,0.31990164518356323,0.25272077322006226,1.0303757873334145,1.6910750342372831,-0.014254763722419739,0.8683100938796997,0.9618950453758355,1.1207807999475452,0.24897246062755585,0.10741904377937317,1.0833848616924586,1.157160196661424,-0.2940741777420044,0.9980491399765015,0.007089048624038696,0.949508759128427,1.1035471539463046,156.7311149471603,157.19269291613475,1.0,-0.0845390793095103,0.04493091159059213,-0.045987512305682654,0.029974320991066422,93.275300148342,0.8531599524739611,33,1.1
1.1304730553957871,0.649530127840852,0.08810532093048096,0.9999165534973145,1.0024531607413838,0.7262422236229485,0.24282041192054749,0.9999531507492065,1.0580494803682212,0.7372881696791539,-0.17833340167999268,0.9999958276748657,0.9203770239265626,1.0975779246561215,0.14039848744869232,0.9999698400497437,0.9616099362950458,1.1047123968680168,-0.14057469367980957,0.9999879598617554,1.0210827946059653,1.3739115945085145,0.23592254519462585,0.13717839121818542,1.0555536849411646,1.3939754086350753,-0.07076559215784073,0.8961069583892822,1.0112386640289088,1.649530127840852,0.3059178292751312,0.2780216932296753,1.0280113332417817,1.68542462595533,-0.016026606783270836,0.8769149780273438,0.9547786759919028,1.1255867296955182,0.26925116777420044,0.09946595132350922,1.0776579882289195,1.1584201493133346,-0.27112534642219543,0.9979217648506165,0.005729198455810547,0.9409934801108042,1.1011451607620693,157.9309338807368,156.60929647751897,1.0,-0.03320037440521648,0.020021457488845387,0.3984907337996597,-0.19320945555951657,87.35294310210176,0.8565618719523329,34,1.1333333333333333
1.1361554441863193,0.652996979077004,0.029234629124403,0.9999235272407532,1.0146040348165708,0.7373634449724189,0.21889352798461914,0.9999551773071289,1.0593949070343314,0.7470113562504566,-0.20660236477851868,0.9999961853027344,0.9226725684776221,1.1026272802488486,0.14027369022369385,0.9999710321426392,0.9518825953009131,1.1107872664978609,-0.1404450237751007,0.9999886751174927,1.0235538048553627,1.3755789757022325,0.21337798237800598,0.1560106873512268,1.0593755653905,1.3957966348187696,-0.10212142765522003,0.9050644040107727,1.013588483386593,1.652996979077004,0.2900768518447876,0.2914324998855591,1.0281393862470436,1.6880783460914308,-0.060556888580322266,0.8861914277076721,0.973108840553072,1.1300830890539364,0.23895525932312012,0.09568620473146439,1.0775812330332482,1.166626707367779,-0.29229703545570374,0.9980080127716064,0.00499492883682251,0.9372775818892676,1.1067072733733547,157.65872714026358,153.23568237956061,1.0,-0.04025009773848761,0.02622745281574364,-0.05171125296029058,0.04564711172639213,91.48092923871123,0.8691035390390273,35,1.1666666666666667
1.1648378524113714,0.6940016367157593,0.02676885947585106,0.9999228119850159,1.0431639097155356,0.7790267375269145,0.20273225009441376,0.9999571442604065,1.0866288415791163,0.786596651144825,-0.22091694176197052,0.9999964237213135,0.9388015425217232,1.141511025002535,0.1399390548467636,0.9999721646308899,0.9667884027840331,1.1506427970201698,-0.14009270071983337,0.9999892711639404,1.0503338172221597,1.4077673860346842,0.2262589931488037,0.16492785513401031,1.087682271624147,1.4302442963145698,-0.09970861673355103,0.9128156900405884,1.0378352926908012,1.6940016367157593,0.31573933362960815,0.30775144696235657,1.0549960916671726,1.7304159373383141,-0.04267533868551254,0.8948031663894653,1.0078712307122109,1.218090634742628,0.2143079787492752,0.09351971000432968,1.100546765468943,1.211004256015473,-0.3139816224575043,0.9978973269462585,0.0038244426250457764,0.9527949726528782,1.1460769110113525,154.77139728742694,150.40280375681678,1.0,-0.05812003777666875,0.09060913398462497,-0.12765999807933404,0.4821767309852098,92.00930644857307,0.8701883922810244,36,1.2
1.1985124697562732,0.7457763346344846,0.029425781220197678,0.9998958110809326,1.0777967836766584,0.8412536500839946,0.19933058321475983,0.9999580979347229,1.1190795657365895,0.848055528756002,-0.22615787386894226,0.9999964833259583,0.9565486730451833,1.2055267589539942,0.14001446962356567,0.9999735355377197,0.9862330136171926,1.212493021730618,-0.14016084372997284,0.9999898076057434,1.0793383710009417,1.453040464569906,0.24533197283744812,0.17474311590194702,1.127195301386766,1.4686095360167457,-0.09904123097658157,0.9207766652107239,1.0587120566196244,1.7457763346344846,0.3324797749519348,0.33694586157798767,1.089598395163703,1.7827645819613127,-0.04141174256801605,0.9042985439300537,1.0411059354030046,1.2800257081176627,0.19987976551055908,0.08968067169189453,1.1315917250841208,1.2763862780855015,-0.31742167472839355,0.9965637922286987,0.0033344626426696777,0.971390843331188,1.209009890342306,149.58390642789783,144.34785384701036,1.0,-0.08003680288316273,0.21183979796981314,-0.15297215875174205,0.8997723351949457,84.79707412331649,0.9136240300418464,37,1.2333333333333334
1.2344108731744323,0.7987737424298093,0.02882879041135311,0.9998810887336731,1.11257641569235,0.8890794402623322,0.19631530344486237,0.9999595284461975,1.1510059735038003,0.8961123512603565,-0.22188079357147217,0.9999966621398926,0.9775152718681807,1.2501881512192323,0.13948094844818115,0.9999748468399048,1.0026842698568097,1.2558465878197225,-0.13961566984653473,0.9999903440475464,1.106193174261965,1.5005501153451501,0.24447672069072723,0.19417479634284973,1.1626933887731388,1.5112250829555909,-0.09749443829059601,0.9284167289733887,1.0865505626504115,1.7987737424298094,0.33521783351898193,0.3735809028148651,1.1250958287657356,1.8361056992851381,-0.04353668540716171,0.9134218692779541,1.0625157940582535,1.3020997300390027,0.20185211300849915,0.08840002119541168,1.1610669607961732,1.3325328923394342,-0.29479438066482544,0.996576726436615,0.0033475160598754883,0.9900997708624952,1.2530173695194775,149.02994588327778,141.32920054340332,1.0,-0.07224015974001335,0.054460996686273785,0.07101193573603785,-1.1406533656201245,82.1637425594237,0.8951874244996704,38,1.2666666666666666
1.2572201274336121,0.8347116046693489,0.03806692734360695,0.9998194575309753,1.1336547895599105,0.9208667752739884,0.19587086141109467,0.9999604225158691,1.1722965546663235,0.9309820129016512,-0.21315176784992218,0.9999964833259583,0.990364674485679,1.2793260831435769,0.1362191140651703,0.9999759197235107,1.0142308398327948,1.2854730941572377,-0.13635608553886414,0.9999905824661255,1.129279476969197,1.5308595169144288,0.21921417117118835,0.22287936508655548,1.187898325777542,1.5368631734119882,-0.09583594650030136,0.9353060722351074,1.1046616897246597,1.834711604669349,0.3001531660556793,0.41235095262527466,1.1508789048787256,1.8707592019429835,-0.04142787680029869,0.9216057658195496,1.0837381853794734,1.3557372315549459,0.18401095271110535,0.0921105369925499,1.1788987769038641,1.3732942663554992,-0.2746092677116394,0.9959360957145691,0.004723072052001953,1.0022977571592369,1.2823995886504072,146.4574424730146,139.03556209060267,1.0,-0.05345643390202578,0.03888733634800984,0.1542052668558267,-0.1270473956312424,82.65477254991741,0.8821919032955023,39,1.3
1.2722979945329704,0.8698400602746902,0.06755540519952774,0.9996979832649231,1.1420616841234845,0.9500170024919974,0.21547213196754456,0.9999604821205139,1.1865514197290805,0.9622553723254996,-0.19383832812309265,0.9999960660934448,0.988295191173203,1.3052281031453932,0.13566280901432037,0.9999762773513794,1.0186517627962732,1.3122818597721815,-0.13582128286361694,0.9999904036521912,1.1355730188704725,1.5586314605996727,0.23875291645526886,0.24167385697364807,1.2034255934703195,1.5558607942047185,-0.06925348937511444,0.9414782524108887,1.110376508119102,1.8698400602746903,0.3302139937877655,0.4429074823856354,1.1652810857921259,1.893258594302579,0.002468567807227373,0.9288389086723328,1.0963315387084038,1.4076828003721358,0.20665240287780762,0.09430735558271408,1.19186428658054,1.4048224533429716,-0.24654702842235565,0.9954215288162231,0.005645006895065308,1.003473476984738,1.3087549814587873,145.20611461332533,136.36662832130895,1.0,-0.08206674895951019,0.07793105795155351,-0.2057656436644193,0.2838859743302955,79.67411835287368,0.8748248778071229,40,1.3333333333333333
1.2875393794061243,0.891627952805715,0.044959891587495804,0.9995207190513611,1.1551263694565863,0.9827575035409837,0.21169015765190125,0.9999586939811707,1.197223913282695,0.9919091065475326,-0.20676462352275848,0.9999949932098389,0.9870376754906133,1.3259893324905019,0.1372075229883194,0.9999762773513794,1.0184340375373362,1.336441339387893,-0.13737110793590546,0.9999900460243225,1.1501397334292982,1.5795085272273741,0.2550509572029114,0.24158093333244324,1.2167346138433353,1.5752289437253797,-0.04452093690633774,0.9468123912811279,1.1265752824924602,1.8916279528057152,0.36321398615837097,0.46100905537605286,1.179165632252004,1.9139409717715785,0.04939635097980499,0.9352262616157532,1.1353802898418441,1.4367154317580872,0.19942842423915863,0.09481137990951538,1.2055322708279244,1.4422133633973409,-0.273281067609787,0.9942351579666138,0.004171401262283325,1.0027358565139748,1.3312153359391974,142.9271830601572,133.96293240973446,1.0,-0.09893508185681821,0.0531116345231661,-0.1235553259319588,-0.20024736617303093,82.32078229421771,0.8863273549930385,41,1.3666666666666667
1.307774368967185,0.9235789838082716,0.08428077399730682,0.9989848136901855,1.1625058408492188,1.0196522507825092,0.2535743713378906,0.99994957447052,1.2087021288918742,1.0267939295198765,-0.18123945593833923,0.9999934434890747,0.9919078263290022,1.3643193085791046,0.13753841817378998,0.9999767541885376,1.0244935642103747,1.373502150915375,-0.1377231925725937,0.9999900460243225,1.1584180609730463,1.6470604976659544,0.22916677594184875,0.23975278437137604,1.2367356782909125,1.6075725999188348,-0.0453159436583519,0.9513208866119385,1.144798999313827,1.9235789838082715,0.32441192865371704,0.476544588804245,1.1991829493949555,1.9432979966527204,0.06473956257104874,0.9403961896896362,1.1360829594425128,1.4753474104199753,0.23978659510612488,0.0879874974489212,1.2230780489066682,1.4694343132128838,-0.24617525935173035,0.9921292662620544,0.0032007694244384766,1.0082006952696885,1.3689107297472398,146.6859270948938,131.4176831748734,1.0,-0.09227969962987438,0.11955267084251651,0.06631599085963179,0.5211493413041757,79.40434799914591,0.913077284993729,42,1.4
1.3304141457623757,0.9654137895893171,0.06982262432575226,0.9988266825675964,1.184983062181681,1.0573619267019705,0.2516034245491028,0.9999417662620544,1.2300400106749667,1.0688330850346988,-0.1905917227268219,0.9999915957450867,1.0157840221106782,1.41037782633547,0.14345665276050568,0.9999775290489197,1.0442469870997186,1.4228923501866244,-0.14361700415611267,0.9999902844429016,1.2126334072605451,1.6697335723271598,0.22649741172790527,0.23605453968048096,1.2681980404005908,1.648198769788481,-0.11405153572559357,0.9559293985366821,1.185722266133191,1.9654137895893171,0.32483991980552673,0.49187642335891724,1.2285288825675271,1.9933899733705254,-0.036166541278362274,0.9459550380706787,1.136272562029498,1.4992472648806208,0.23331156373023987,0.0814274251461029,1.2548154767930246,1.5170426933908936,-0.2417854368686676,0.9877547025680542,0.005015134811401367,1.0300155046051984,1.4166350882610472,137.6013197574119,128.61721803786293,1.0,-0.02594289018278406,0.09817959572847532,0.505888036789189,-0.17962403158139023,88.12580466988547,0.9187930684073278,43,1.4333333333333333
1.340626480269319,0.988350131155194,0.030629094690084457,0.99860680103302,1.2024783737434523,1.0938955277197124,0.23912465572357178,0.9999309778213501,1.241302776177705,1.0978009979330499,-0.21499724686145782,0.999986469745636,1.028318415438361,1.4520052588098464,0.14852572977542877,0.9999774098396301,1.0539828449574093,1.4650557597393887,-0.1486697942018509,0.9999897480010986,1.2663289999460603,1.6721055755861822,0.2022995501756668,0.22560793161392212,1.2911426500294176,1.67411429304605,-0.1408805102109909,0.9599239826202393,1.2171668691656055,1.9883501311551939,0.2959447205066681,0.4930357336997986,1.2480278597548229,2.0249767848070888,-0.06207258626818657,0.9507888555526733,1.2311244434741297,1.5253034350868862,0.20381435751914978,0.07811275124549866,1.2749329025357963,1.5406840759667724,-0.25696703791618347,0.979352593421936,0.0016809403896331787,1.0411506301978852,1.4585305092746175,123.92486079740873,124.39095404757016,1.0,-0.03787789359631143,0.14491231098536536,-0.08542582127774982,0.3348911996138138,91.01847855585414,0.9601237000364257,44,1.4666666666666666
1.3428248144394657,0.9921549521257086,-0.0014047863660380244,0.9981634616851807,1.2064840877579837,1.1019627758130977,0.23164865374565125,0.9999088644981384,1.241367509924362,1.101945623537977,-0.22494392096996307,0.9999804496765137,1.033442839383457,1.4627590774770352,0.14733923971652985,0.9999765753746033,1.053793006899381,1.4719331141823482,-0.14748504757881165,0.999988853931427,1.271847727795755,1.6690515041850857,0.17584191262722015,0.215333491563797,1.2947905276664808,1.6787988574223727,-0.14493899047374725,0.9631696343421936,1.2224820911498289,1.9921549521257085,0.2592661380767822,0.48760294914245605,1.2514137432916896,2.0327412627213284,-0.06298147886991501,0.9546771049499512,1.2504197446435945,1.5384217212523355,0.1845489889383316,0.07441198080778122,1.2783739254307964,1.5505862258758807,-0.2839111089706421,0.9740561246871948,7.361173629760742e-06,1.043617923141419,1.4673460958296916,122.18292225324659,123.65495568418379,1.0,-0.004048041203380767,0.03431974103188832,0.2532569869776543,-0.8283727833228806,88.64346796537791,0.970902349740804,45,1.5
1.3432636448726112,1.0246926983114113,0.09797437489032745,0.9976567029953003,1.2066950615732774,1.1289659811701394,0.27604323625564575,0.9999025464057922,1.2540311685158179,1.132717482914351,-0.16963762044906616,0.9999796152114868,1.0401469344653649,1.5136511548783569,0.14665302634239197,0.9999760389328003,1.0684883594529768,1.5153276025880118,-0.14680977165699005,0.999988317489624,1.2906590451236195,1.6957802928807089,0.18344780802726746,0.21672578155994415,1.3206813648190212,1.7040610269318677,-0.13296334445476532,0.9663306474685669,1.2417707240701186,2.0246926983114113,0.25539422035217285,0.49720168113708496,1.2719496063347842,2.0673350340160064,-0.0477486178278923,0.958007276058197,1.2073752405261293,1.5569046351838023,0.314652681350708,0.07068391144275665,1.2990664127407203,1.5817584136498843,-0.2338462769985199,0.9735589027404785,0.0015839040279388428,1.0543176469591709,1.5144893787331843,117.56383910584994,119.16965467218122,1.0,-0.050273350340735386,0.17735745056193208,-0.3566839958093509,1.1009319461810483,69.97517315447494,0.9997621851713623,46,1.5333333333333334
1.3302919429775124,1.0348756811301858,0.11048950254917145,0.9967342615127563,1.195062578763795,1.154477783583173,0.2793038487434387,0.9998948574066162,1.2486254700472932,1.15531587397963,-0.15620359778404236,0.9999780654907227,1.032841129280887,1.5482443825354641,0.14624440670013428,0.9999733567237854,1.0661693538349284,1.5416407947539528,-0.146424800157547,0.9999864101409912,1.2949128544144712,1.7065748854726814,0.19645540416240692,0.20724661648273468,1.326556458406014,1.7081143278138422,-0.12285544723272324,0.9685735106468201,1.2453264421314432,2.034875681130186,0.27871525287628174,0.4873301088809967,1.278305090010852,2.076070834773354,-0.01712093874812126,0.959540843963623,1.2304440786895747,1.5852895809058654,0.32037514448165894,0.0700053870677948,1.3055164674443689,1.5970669602098906,-0.2045346200466156,0.9730411767959595,0.0003521740436553955,1.0495052415579078,1.5449425886447086,112.54924284650016,115.12128006750513,1.0,-0.07221199901387755,0.17108568625077836,-0.15959626022575388,-0.05232043219039935,56.40231690146784,1.0530378725379366,47,1.5666666666666667
1.3196804813440521,1.0426316297953233,0.15505167841911316,0.9965790510177612,1.1752805406634186,1.1618429100435193,0.27717551589012146,0.9998936653137207,1.2426199823536987,1.1678520216747783,-0.12559561431407928,0.9999781847000122,1.0260469829032501,1.5685763416112042,0.13646063208580017,0.999972939491272,1.0682992165102059,1.5673458136097507,-0.13668200373649597,0.9999860525131226,1.2950757592747204,1.713403734856101,0.20972061157226562,0.21611104905605316,1.3313461487940732,1.7165381496785954,-0.0918145626783371,0.9709786772727966,1.2453783471354805,2.042631629795323,0.2947614789009094,0.4981929063796997,1.283456368334821,2.082350402459689,0.03566225618124008,0.9617477059364319,1.1801370112194907,1.6076949435366061,0.3635806143283844,0.06663750857114792,1.3059325133278128,1.5972579530276336,-0.1459246575832367,0.9727238416671753,0.002515435218811035,1.047173099706728,1.5679610776104775,109.7110298511064,112.10222929199438,1.0,-0.049715785229357067,0.13358216441621626,0.1780153292763914,-0.29829107586592907,68.18335726658304,1.0956364155910185,48,1.6
1.2936545056172055,1.0641848154331333,0.11920293420553207,0.9967209100723267,1.1706199520061757,1.1947614715564108,0.2871837913990021,0.9998856782913208,1.2156003310861634,1.1995974015275863,-0.13346657156944275,0.999976634979248,1.0339989229987254,1.6032262555212502,0.13708403706550598,0.9999703168869019,1.070607110007011,1.603022797965856,-0.13729509711265564,0.9999843239784241,1.296897739916063,1.7319184831620527,0.18868772685527802,0.213251993060112,1.3452974721405957,1.734807609226239,-0.11341402679681778,0.9732069373130798,1.2557505357128083,2.0641848154331335,0.2542453408241272,0.499112069606781,1.2921505888074603,2.1020366979011427,-0.029899561777710915,0.9645617604255676,1.195656310691486,1.6364368884087828,0.31026917695999146,0.0680384486913681,1.3129737645511181,1.6144079316791256,-0.20150689780712128,0.97255539894104,0.0020032525062561035,1.0523030165028682,1.6031245267435532,109.02286612510683,107.39481897528742,1.0,-0.04520334557364426,0.14316481040511947,0.03863488189437471,0.06273279887842513,71.18779906556156,1.1169300270672071,49,1.6333333333333333
1.3033312117636264,1.076129185939521,0.034845009446144104,0.9969980120658875,1.1636950218944258,1.2274458760939615,0.2732136845588684,0.9998800754547119,1.2018342171277536,1.2142961960226213,-0.18806663155555725,0.9999741315841675,1.040560042304042,1.6331056336214096,0.1391882300376892,0.9999691247940063,1.0716481297046099,1.6255174763219218,-0.1393633782863617,0.9999832510948181,1.3077675500558756,1.74125069573304,0.18102189898490906,0.2012387216091156,1.3527015570816578,1.7425518576180705,-0.13084235787391663,0.9749356508255005,1.2630857869590901,2.076129185939521,0.2615599036216736,0.48729920387268066,1.2990434991254676,2.1125430500647036,-0.043894212692976,0.9669498801231384,1.2529135403904326,1.6388013102212482,0.18978670239448547,0.07102169841527939,1.317595367163253,1.6288782684981051,-0.2494678944349289,0.9723718762397766,0.005415916442871094,1.0561040860043258,1.6293115549716657,104.4344139828436,104.35569072797001,1.0,-0.017508451674187825,0.13055187769966728,0.2154969073335311,-0.10359514021188093,59.3978555474101,1.172927906855537,50,1.6666666666666667
1.2992856619567212,1.0949620212589575,-0.008433425799012184,0.9971961379051208,1.1511037868304521,1.228490468811759,0.22851809859275818,0.9998681545257568,1.1829352586633557,1.2218980342081123,-0.2244146764278412,0.9999710321426392,1.0437144559731861,1.652971640876441,0.13923650979995728,0.9999692440032959,1.0660784333553794,1.6494068256608203,-0.1394059807062149,0.9999830722808838,1.2936855555069737,1.7539616919136822,0.18569009006023407,0.198992058634758,1.357533142050684,1.751234972030387,-0.12864255905151367,0.976666271686554,1.2630175229583194,2.0949620212589575,0.2904044985771179,0.4949774146080017,1.3087494460895541,2.124046402835905,-0.02431601472198963,0.9692057967185974,1.236520615217265,1.66385102040653,0.17762130498886108,0.06804920732975006,1.3196791695406473,1.6404991527016244,-0.2942374348640442,0.9734530448913574,0.0027005672454833984,1.0548964446642828,1.6511892332686307,106.85995026567575,101.8033424825232,1.0,-0.05233370214272747,0.09849660541290707,-0.26220233087243877,-0.24734865710023518,66.74590618330967,1.1837622520346676,51,1.7
1.2847427389397457,1.1105774646069513,-0.03030376136302948,0.9973537921905518,1.1460695118774684,1.2382249033775048,0.20231208205223083,0.9998689293861389,1.163865988060346,1.238273742616915,-0.24396701157093048,0.9999663829803467,1.0517245678093974,1.6787790424810451,0.13892009854316711,0.9999687671661377,1.0698079195246666,1.6834896091218206,-0.1390928328037262,0.9999818801879883,1.3068723409747431,1.7607988984918208,0.18467475473880768,0.19847260415554047,1.3652809913573614,1.7626072703294433,-0.133860781788826,0.9780027270317078,1.2731621192885956,2.1105774646069513,0.2848946452140808,0.4979458451271057,1.3202459327033413,2.139542360193644,-0.015268268063664436,0.9706745147705078,1.27664862499208,1.6645078647308533,0.16844770312309265,0.07298555225133896,1.3295013352325393,1.6561946341955636,-0.30661946535110474,0.9741050601005554,1.9848346710205078e-05,1.060766243667032,1.6811343258014328,102.31560166387501,98.17698086713867,1.0,-0.019274500288556894,0.12656165124837765,0.252773501640727,0.20597143827690845,92.51325561163944,1.2192275903456449,52,1.7333333333333334
1.2661358630211985,1.1022607220290739,-0.013300783932209015,0.9974592924118042,1.125834326985142,1.2263332058588279,0.2130812108516693,0.9998703598976135,1.141133977267551,1.228706692294364,-0.2373398244380951,0.9999660849571228,1.0465306600108473,1.6809212554681363,0.13959690928459167,0.9999672174453735,1.0582729367328554,1.6830879314842353,-0.13977470993995667,0.9999809265136719,1.3218911904766437,1.7459055711241098,0.1880488097667694,0.19481192529201508,1.3615148658170937,1.7592215550356654,-0.1439490169286728,0.9792214035987854,1.2726912553319227,2.1022607220290737,0.29377710819244385,0.4860301613807678,1.3184963945122592,2.13774584551994,-0.022814767435193062,0.9715171456336975,1.2729701271722966,1.6558661438600812,0.1981976330280304,0.07317792624235153,1.3178952968059068,1.6504613908235053,-0.34362080693244934,0.9758874177932739,0.0009658932685852051,1.0524017983718512,1.6820045934761858,95.41787677870128,97.60996983028913,1.0,-0.05233252883600775,0.023711466648951598,-0.24977204343565418,-0.7751892379395079,90.55882007961213,1.2333415116107875,53,1.7666666666666666
1.2222507391971438,1.0877334325461798,-0.026937436312437057,0.997653603553772,1.10243403429968,1.2183932254158076,0.2093987911939621,0.9998785257339478,1.1124340219150726,1.220509244854396,-0.2437969148159027,0.999966561794281,1.0393346784959578,1.683533214824783,0.14126214385032654,0.9999675750732422,1.0401806928779838,1.693496412871337,-0.14142391085624695,0.9999807476997375,1.3252297690700552,1.7282977422787984,0.2004125416278839,0.18710778653621674,1.3525222382016036,1.7500730873959156,-0.15798541903495789,0.9807367324829102,1.2756177606051031,2.08773343254618,0.3001708984375,0.4750944674015045,1.311644437632101,2.127059368966374,-0.03965674713253975,0.9731889963150024,1.2819659646221306,1.6441838205012895,0.2095552235841751,0.09186296164989471,1.2984801828434287,1.639490200023793,-0.33465901017189026,0.9775901436805725,0.000865638256072998,1.0397576856869708,1.68851481384806,91.04019720439555,94.0784919775398,1.0,-0.05521467915902949,0.1181679455444942,-0.02437776082155011,0.7306787808912847,167.42103553069336,1.2818934545480813,54,1.8
1.2025425083606185,1.0806483466047387,-0.040527164936065674,0.9978563785552979,1.096635190129215,1.219434506012244,0.1851709485054016,0.9998874068260193,1.089291762291215,1.2186847867937853,-0.24050407111644745,0.9999676942825317,1.0385839560232517,1.6839158498646953,0.1362004578113556,0.9999687075614929,1.0367172844562695,1.7004666170485512,-0.1363416612148285,0.9999811053276062,1.3202597564276874,1.7148350490611404,0.20000772178173065,0.19375567138195038,1.3479390820086925,1.7449134470879597,-0.1479404866695404,0.982353687286377,1.2707832270625832,2.0806483466047387,0.29899173974990845,0.49237650632858276,1.3116742293497279,2.1207297799702656,-0.032250478863716125,0.9754449725151062,1.2786206328510517,1.6302289229355902,0.17023126780986786,0.12490978091955185,1.2812859783694166,1.6338117702140376,-0.31087276339530945,0.9793581366539001,0.000307619571685791,1.0376506202397606,1.6921912334566231,88.56164858224498,92.61591955874773,1.0,0.007279736397818822,0.06364287738664914,0.4550424545984752,-0.3954894122155421,179.31095722664776,1.3173351477677733,55,1.8333333333333333
1.205447418729137,1.0814526527632355,-0.04354998469352722,0.9980521202087402,1.1062481828293615,1.2272421773535236,0.16483205556869507,0.9998963475227356,1.0887936579797899,1.2243070279857389,-0.2314181625843048,0.9999692440032959,1.0447459515331823,1.6766855040620137,0.1261846125125885,0.9999686479568481,1.0441142025104486,1.698782590354531,-0.12628914415836334,0.9999806880950928,1.3233928636977812,1.71854277335636,0.2019154280424118,0.19794705510139465,1.3514958628232088,1.7499822288723141,-0.1443897783756256,0.9835776686668396,1.2712018293190979,2.0814526527632355,0.2832653820514679,0.5116657018661499,1.315202995804266,2.1265362557224488,-0.024644294753670692,0.9774035811424255,1.2817105380456537,1.629306949326649,0.1489589959383011,0.16579316556453705,1.279113622763824,1.6376917169647847,-0.2906636595726013,0.9810805320739746,0.001201033592224121,1.0444300770218153,1.6877340472082725,90.35913057180765,93.95151335206185,1.0,0.03065412888526576,-0.07096806496107545,0.18209914977046798,-1.0509512040141333,173.8456124080487,1.293570588413929,56,1.8666666666666667
1.1964676346454912,1.0858998805957294,-0.050022829324007034,0.9982256889343262,1.085630045401749,1.2292970705302613,0.16205444931983948,0.999903678894043,1.0821968979499996,1.2285192068603181,-0.23415732383728027,0.9999706745147705,1.05013573061834,1.69127967949087,0.1252492368221283,0.9999680519104004,1.0519462778930413,1.7115047208707268,-0.12538015842437744,0.9999802708625793,1.3250818258379358,1.717105778765318,0.21379689872264862,0.20690712332725525,1.3589159656737992,1.7586883782919491,-0.13768386840820312,0.9848548769950867,1.2782873932323517,2.085899880595729,0.2979561686515808,0.5344838500022888,1.3228904769417624,2.135441592912446,-0.0024073829408735037,0.9792604446411133,1.2869250492463877,1.6320647709938594,0.1601843684911728,0.18952742218971252,1.2863055416267664,1.645923635468181,-0.2960216701030731,0.9827309846878052,0.0003165006637573242,1.0510410042556906,1.7013922001807984,88.13480202001482,93.2763540289459,1.0,0.005273724497611171,0.03116137216490735,-0.19444333340537406,0.7801715225021808,170.49108588005453,1.319342995637212,57,1.9
1.187146600853791,1.0881188262789496,-0.06447013467550278,0.9983784556388855,1.08114452006312,1.2308401203350945,0.13631463050842285,0.9999111890792847,1.0693967778150053,1.2342477345365863,-0.2432253062725067,0.9999722242355347,1.0563020886197083,1.6908078141724376,0.12272827327251434,0.9999656677246094,1.054918860767842,1.7164970448689032,-0.12285025417804718,0.99997878074646,1.3255745565981378,1.7126552349012314,0.22991609573364258,0.20764824748039246,1.361284955072636,1.7634370443312997,-0.13658496737480164,0.9858083128929138,1.2803700182241775,2.08811882627895,0.32072457671165466,0.5511670112609863,1.3257953266375724,2.1386211111680704,-0.0028719601687043905,0.9807710647583008,1.2881551365608845,1.6191455362222236,0.11643373966217041,0.2317160665988922,1.288666594496554,1.6499868022700976,-0.29977187514305115,0.9843047261238098,0.0013827681541442871,1.0556104746937751,1.7036524295206705,87.77335928504255,93.30717731895359,1.0,0.013787702811077385,-0.01864718055580873,0.06778730916465515,-0.3979066171190959,179.9906067199807,1.3149915464635997,58,1.9333333333333333
1.1725911171526227,1.0867553645188965,-0.07539540529251099,0.9985123872756958,1.0591446177965418,1.2316496245682826,0.1385425329208374,0.9999170899391174,1.0533215592864833,1.2392305681427855,-0.25318294763565063,0.9999729990959167,1.0533666332624947,1.7039084642980709,0.12472013384103775,0.9999646544456482,1.0565183612952265,1.7212546040240195,-0.12485560029745102,0.9999781847000122,1.2975401428169664,1.7152778241690623,0.23839449882507324,0.2182166874408722,1.36068173581203,1.7613287455758315,-0.13618671894073486,0.9869664311408997,1.279744291076285,2.0867553645188965,0.3359365165233612,0.5762659907341003,1.3271684271333297,2.1365947022221543,0.001417516265064478,0.9824090003967285,1.287209393064231,1.6136009180996314,0.10701283067464828,0.24545904994010925,1.289754971553109,1.6468260176092426,-0.3102209270000458,0.9855767488479614,0.0030776262283325195,1.0549424972788606,1.7125815341610453,89.92322499353058,92.40231633195874,1.0,-0.0014675655916721036,0.07204308693445884,-0.11339001379372318,0.6742964177024315,169.00095145172563,1.354448968461838,59,1.9666666666666666
1.151255963296477,1.0868021638538787,-0.11179642379283905,0.9986428618431091,1.0637920016016125,1.2330217558501406,0.10309569537639618,0.9999238848686218,1.0399774291485395,1.2450756261061375,-0.29256129264831543,0.9999744296073914,1.0556381638324024,1.6995864388664061,0.12608702480793,0.9999645352363586,1.0571933666938873,1.7257768052580786,-0.12622445821762085,0.9999776482582092,1.3009999708008733,1.7118921423973013,0.2405022382736206,0.2148091346025467,1.362311370515075,1.758998350800957,-0.14522556960582733,0.9874147772789001,1.2844200152438565,2.086802163853879,0.33950453996658325,0.5686460137367249,1.3296695416406394,2.1386145065821967,-0.0021819802932441235,0.9825688600540161,1.2881608867473253,1.6110873423844743,0.04021935909986496,0.2589520215988159,1.2912629078343905,1.650020737263977,-0.36834990978240967,0.9864770174026489,0.004884243011474609,1.0564157652631447,1.7126816220622423,90.33897784506661,91.29937216145774,1.0,-0.004045385539752934,-0.02422527387177629,-0.019842117309199343,-0.7428528334649268,175.6005077361681,1.340988844119866,60,2.0
1.1250059754009971,1.0836149958956693,-0.1147746667265892,0.9987651705741882,1.0281909154548945,1.2305025231588946,0.10733549296855927,0.9999299049377441,1.01809476062177,1.2453946887996497,-0.29694733023643494,0.9999760985374451,1.052149560694384,1.6956465061280486,0.12614521384239197,0.9999657869338989,1.0521464080288274,1.7226963766048167,-0.12627452611923218,0.9999783039093018,1.2996920945518127,1.7068658897130136,0.2324383556842804,0.22064590454101562,1.357538961814035,1.749662958056644,-0.14935562014579773,0.9881334900856018,1.2840155750476638,2.0836149958956693,0.34372952580451965,0.5724745988845825,1.3279062517504625,2.132009585276377,-0.0044069793075323105,0.9833940267562866,1.281744482761958,1.603209472190997,0.0732894241809845,0.2758852243423462,1.2832348870744525,1.6415831308051203,-0.3574587404727936,0.9875993728637695,0.0060533881187438965,1.0521479843616057,1.7091714413664327,90.21234252725299,90.61451697193998,1.0,-0.0070549188932777975,0.014126332803841724,-0.022665007833991425,0.28703894031158944,177.04473582048175,1.3326347880241018,61,2.033333333333333
1.1099226491345937,1.0797610549841044,-0.14104866981506348,0.9988754391670227,1.0210219165782475,1.22706774966995,0.09352215379476547,0.99993497133255,1.0032545384115463,1.2448929729715499,-0.31106388568878174,0.9999777674674988,1.0503902791506754,1.6889372386136678,0.12679168581962585,0.9999670386314392,1.050438836887177,1.7179510712063373,-0.1269247829914093,0.9999790787696838,1.3001118948684052,1.7037570012906558,0.2290225774049759,0.22652681171894073,1.3539306866100507,1.7365577522974793,-0.1508747786283493,0.9882549047470093,1.2806680315973382,2.0797610549841044,0.3346715271472931,0.5769580602645874,1.3246269701807964,2.1260873294802574,-0.003759403247386217,0.983220636844635,1.2618201706643555,1.5959605813560376,0.05993135645985603,0.27734795212745667,1.2777952271986508,1.633944285701436,-0.3825623095035553,0.9886298179626465,0.007264316082000732,1.0504145580189264,1.7034441549100026,90.4360087522933,89.20616608010022,1.0,0.007653709955580902,-0.010438574583817225,0.11540687971932158,-0.19269384978828963,176.45758797305567,1.3261020633708798,62,2.066666666666667
1.091921341472005,1.065656638276593,-0.1278609335422516,0.9989771842956543,1.0041749979993182,1.22066582979347,0.09518080949783325,0.9999398589134216,0.9900540336576399,1.2403701123272062,-0.2970315217971802,0.9999793171882629,1.0431463905014167,1.6784101965490092,0.12600377202033997,0.9999677538871765,1.0438627144523875,1.7067887961240658,-0.12613128125667572,0.9999796152114868,1.2943084924910166,1.6926286169675533,0.22878167033195496,0.23266394436359406,1.3445155104033273,1.7238993817566581,-0.1427038013935089,0.9883499145507812,1.2722514663072846,2.065656638276593,0.33032602071762085,0.5868472456932068,1.3160372761505807,2.1112865610974803,0.004622387699782848,0.9836699366569519,1.2534027929372085,1.586745566874113,0.07328914105892181,0.28152936697006226,1.2676377707220159,1.6217571345182888,-0.3576658368110657,0.9895700812339783,0.00808638334274292,1.0435045524769022,1.6925994963365374,89.8561455420241,89.05281495489254,1.0,0.0031498738528738233,0.007934636227255492,-0.03482619054657153,0.1432042225686623,176.5796285075033,1.3420385489499569,63,2.1
1.0761028640844175,1.0563637056230346,-0.12066137790679932,0.999064564704895,0.9855743713101341,1.2159512436967295,0.10466258227825165,0.999943733215332,0.979722773553973,1.2346978965835358,-0.2988833487033844,0.9999804496765137,1.0386238701674624,1.6714707521668548,0.12731420993804932,0.9999688863754272,1.0397094028103138,1.6978829222180227,-0.12745262682437897,0.9999803304672241,1.2931778776571896,1.686098337056223,0.2337763011455536,0.24305319786071777,1.3392992090964426,1.7161451404415988,-0.14226020872592926,0.9884417653083801,1.2661945344175938,2.0563637056230344,0.3342471718788147,0.5977355241775513,1.309952674737831,2.102197354287048,0.0036667592357844114,0.9837584495544434,1.2449982410149911,1.5803994930711458,0.07978063076734543,0.27548739314079285,1.256786873974633,1.6126133139443817,-0.3624480664730072,0.990182638168335,0.00772935152053833,1.039166636488888,1.6846768371924388,89.1207029225703,89.14119265328584,1.0,0.004014172442647176,-0.00036028934682051005,0.006813601860611978,-0.06401543663277572,175.71081055559387,1.3490466264128818,64,2.1333333333333333
1.0720737256856212,1.055955626303827,-0.13986310362815857,0.9991458654403687,0.9818699203677266,1.2155588032699267,0.08177676051855087,0.999947726726532,0.9729981873244522,1.2359667954607667,-0.3197254538536072,0.999981701374054,1.0438734832825411,1.6699115225867582,0.12758556008338928,0.9999706745147705,1.042233374678099,1.6973644084870563,-0.12772133946418762,0.9999814033508301,1.3039421285048505,1.6867207569127225,0.21485646069049835,0.2542200982570648,1.3401939051205556,1.7164875429502358,-0.14196249842643738,0.9875214099884033,1.2705322143749709,2.055955626303827,0.3186127841472626,0.5970868468284607,1.3100487436577313,2.1029132017180383,0.003506466280668974,0.9823550581932068,1.2397663033125628,1.5813414666224603,0.05859900265932083,0.26747578382492065,1.2513950606542454,1.6091978758945948,-0.3789210915565491,0.9905661940574646,0.008416414260864258,1.0430534289803202,1.6836379655369071,88.52782023150114,89.2115878341784,1.0,0.03142561059796532,-0.00471617063050117,0.20787987440882244,-0.033033136280014114,168.81015397581962,1.3464534615074684,65,2.1666666666666665
1.0654583561888207,1.0583080162544494,-0.17110510170459747,0.9992209076881409,0.984903353337828,1.215367987488133,0.0504273846745491,0.9999515414237976,0.9700950198450028,1.2386250090729813,-0.3432357907295227,0.9999828934669495,1.0459990228263574,1.6695598854691824,0.12728609144687653,0.9999721050262451,1.0452409729702792,1.696802446617466,-0.12740616500377655,0.9999822378158569,1.300712730088101,1.6912711960193716,0.21811112761497498,0.2539433538913727,1.3392018159685195,1.7160066170472383,-0.14052633941173553,0.9850336909294128,1.2699917774413,2.0583080162544496,0.3268052041530609,0.5829410552978516,1.3093384361105023,2.1021209290299656,0.003565038787201047,0.978764533996582,1.2367713402842904,1.58450085602,0.021868564188480377,0.25564342737197876,1.2483941454804275,1.6067110812429966,-0.4120943546295166,0.990702748298645,0.00959688425064087,1.0456199978983183,1.6831811660433242,90.08750639417902,89.31512144453852,1.0,0.02391585178410598,0.003849914076960427,-0.05660590290318873,0.06470311331648916,170.74494171689435,1.3414824319611698,66,2.2
1.0616732129157618,1.058638866962447,-0.14160385727882385,0.9992866516113281,0.9774512646120475,1.2134791524540838,0.07126336544752121,0.999954879283905,0.9607222173976849,1.2344435673867613,-0.3172089755535126,0.9999840259552002,1.0430305525708232,1.665971933290042,0.12495741993188858,0.9999731779098511,1.043128123437876,1.6907735115906268,-0.1250712126493454,0.9999828934669495,1.284646838826321,1.6986321788575525,0.21862387657165527,0.25348374247550964,1.335218503296023,1.7113227282801848,-0.13706594705581665,0.9830777645111084,1.2650677141817348,2.058638866962447,0.3194560110569,0.5763826370239258,1.306604388370359,2.0972897477429444,-0.00918374303728342,0.9770830869674683,1.221899770308818,1.58015075887092,0.041654959321022034,0.25064706802368164,1.2369801218980565,1.5967353579972323,-0.38711944222450256,0.9912380576133728,0.008676648139953613,1.0430793380043495,1.6783727224403344,94.58525007413617,89.78432376076194,1.0,0.004310928672712586,0.0014849817057065097,-0.14826471546479525,-0.01786332603702526,171.979005591936,1.3260779516231014,67,2.2333333333333334
1.0589810688810875,1.0654846310261283,-0.13722258806228638,0.999334454536438,0.9807936839993654,1.2179041737888023,0.07529833912849426,0.999957799911499,0.9586143584712502,1.2382150331265516,-0.3109855353832245,0.9999849796295166,1.0472216828442742,1.6701802977804354,0.12460877746343613,0.9999743103981018,1.046174330820117,1.694827298482401,-0.12472198158502579,0.999983549118042,1.2883640157746927,1.7066819311628894,0.2185361385345459,0.24241718649864197,1.338971973151567,1.7163645937535676,-0.1374296247959137,0.9787390828132629,1.2685821760817986,2.0654846310261283,0.32223811745643616,0.5541358590126038,1.3111544651431584,2.104005435485491,-0.011514987796545029,0.9726261496543884,1.22131283381006,1.585102442856166,0.05587860941886902,0.24698670208454132,1.234694878929529,1.600285581066267,-0.384257048368454,0.991493821144104,0.00838249921798706,1.0466980068321956,1.6825037981314184,95.45181043966183,90.10235672249357,1.0,0.005383384554370879,-0.004834588729675822,0.008459897662667618,-0.050456418351997316,169.21116209971896,1.3129714752088066,68,2.2666666666666666
1.060627312316537,1.0709518522642874,-0.13152292370796204,0.9993915557861328,0.9851729365509537,1.221004207693866,0.0788615345954895,0.9999609589576721,0.9566782894610135,1.2435123361440135,-0.31019866466522217,0.9999860525131226,1.0529572527438633,1.6741771957965634,0.12271828949451447,0.9999757409095764,1.0486360291950847,1.6992723239685343,-0.12283817678689957,0.9999844431877136,1.294609816291886,1.708901349801316,0.20587149262428284,0.2463071495294571,1.3424777824293412,1.7198278577224004,-0.13860972225666046,0.9778544306755066,1.2719073551450306,2.070951852264287,0.302079975605011,0.5510585904121399,1.3153990705915692,2.108869318212261,-0.018237827345728874,0.9719709157943726,1.2253110952240351,1.5920420905506378,0.05967540293931961,0.257411390542984,1.2382475419158394,1.6047391691741426,-0.37759003043174744,0.9920947551727295,0.009264588356018066,1.050796640969474,1.686724759882549,94.58906911799231,90.02000019123449,1.0,0.0095931825190569,-0.00201097501733259,0.03089206403728994,0.020886158857896086,161.72276972701556,1.3084268163032156,69,2.3
