nose_x,nose_y,nose_z,nose_visibility,left_shoulder_x,left_shoulder_y,left_shoulder_z,left_shoulder_visibility,right_shoulder_x,right_shoulder_y,right_shoulder_z,right_shoulder_visibility,left_hip_x,left_hip_y,left_hip_z,left_hip_visibility,right_hip_x,right_hip_y,right_hip_z,right_hip_visibility,left_knee_x,left_knee_y,left_knee_z,left_knee_visibility,right_knee_x,right_knee_y,right_knee_z,right_knee_visibility,left_ankle_x,left_ankle_y,left_ankle_z,left_ankle_visibility,right_ankle_x,right_ankle_y,right_ankle_z,right_ankle_visibility,left_wrist_x,left_wrist_y,left_wrist_z,left_wrist_visibility,right_wrist_x,right_wrist_y,right_wrist_z,right_wrist_visibility,trunk_lateral_inclination,center_mass_x,center_mass_y,left_knee_angle,right_knee_angle,person_height,center_mass_velocity_x,center_mass_velocity_y,center_mass_acceleration_x,center_mass_acceleration_y,body_orientation,torso_leg_ratio,frame,timestamp
0.8568356305491251,0.5162588858621945,-0.47345346212387085,0.9999042749404907,0.9314685073822476,0.6463518813691311,-0.18534033000469208,0.9999632239341736,0.7667167458237804,0.6548979829964122,-0.23905110359191895,0.9999974966049194,0.9074793430970522,0.9990833808428613,0.020830627530813217,0.999947190284729,0.8098631360452159,1.0018282789027013,-0.021067190915346146,0.9999853372573853,0.9203970297811576,1.2704917027681855,0.018856389448046684,0.15170426666736603,0.8196459296228978,1.282047349736778,-0.018374355509877205,0.8160064220428467,0.9275120959230857,1.5162588858621946,0.21114909648895264,0.256121426820755,0.8274154200967674,1.5201901187702773,0.1679803729057312,0.8259474635124207,0.9681048251750195,1.0104135108323087,-0.19650569558143616,0.21209710836410522,0.7600080244369283,1.0333471379372041,-0.31722259521484375,0.9981728196144104,0.004673361778259277,0.8586712395711341,1.0004558298727813,178.9333365113009,179.86917755031655,1.0,-0.7084616359122625,0.0007760449202597814,-4.0348337757495285,0.061648962634010346,95.50136973584252,0.9345488195275761,0,0.0
0.8646213614760285,0.5376003124623883,-0.5083797574043274,0.9999136924743652,0.9513475441518462,0.6736216566363019,-0.20761363208293915,0.999966561794281,0.7773854678490744,0.6807987497941617,-0.23108763992786407,0.9999973177909851,0.9231843996828614,1.020733812307237,0.008805360645055771,0.9999518394470215,0.8224055373002532,1.0238971822381433,-0.009010225534439087,0.9999862313270569,0.927393634580893,1.297891201763257,0.02120237424969673,0.2356463521718979,0.8286500531477768,1.3073547014822924,-0.003658140078186989,0.833207368850708,0.9411052265858908,1.5376003124623883,0.23340126872062683,0.3299327492713928,0.8363227728453885,1.5453245822190598,0.1935259997844696,0.8428400754928589,0.984353388013509,1.030039878368582,-0.21734309196472168,0.2900286018848419,0.7677079741483691,1.0511389946580556,-0.3218384385108948,0.9980165958404541,0.0038422048091888428,0.8727949684915574,1.0223154972726902,177.59628723873288,179.41529752330644,1.0,-0.033053956072015306,0.0028383445795788077,5.284686465836401,0.015653246605268026,96.43644485103924,0.933366936485252,1,0.03333333333333333
0.8682652116832054,0.5398609218812026,-0.4577293395996094,0.9999219179153442,0.9521121185253493,0.6792532386517344,-0.1590522676706314,0.9999694228172302,0.7767570904530504,0.6867288159863214,-0.22153744101524353,0.9999970197677612,0.9215254540568398,1.025167224136302,0.021552378311753273,0.9999557733535767,0.8213293623534758,1.0271901318827283,-0.021747278049588203,0.9999868273735046,0.9279556222449038,1.3012057249484361,0.05188301205635071,0.31060293316841125,0.829015317179112,1.3075221876489034,-0.024564143270254135,0.8483441472053528,0.943794863684098,1.5398609218812025,0.26965954899787903,0.3958919048309326,0.8344545833699134,1.5528212252626339,0.1480202078819275,0.8578317165374756,0.9946127278214543,1.0298207720044132,-0.17715510725975037,0.3601168692111969,0.7686672465869924,1.0520097612475168,-0.3256644308567047,0.9978770613670349,0.0039892494678497314,0.8714274082051577,1.026178678009515,177.53735368173568,179.69976618170463,1.0,-0.03193429769759346,0.004583956711299401,0.009414059791909374,0.013342252082027606,96.20972341612229,0.9344102196977604,2,0.06666666666666667
0.8697641171786448,0.5410796352004572,-0.45998460054397583,0.9999293088912964,0.952438643065901,0.6838102120305951,-0.16155557334423065,0.9999720454216003,0.7760165731384984,0.6909124985732376,-0.21468517184257507,0.9999966025352478,0.924882703636872,1.0292134992242101,0.019109733402729034,0.9999591708183289,0.8221544655233264,1.0304627897557506,-0.01930421218276024,0.9999871850013733,0.93281449673379,1.3018175248798864,0.036223284900188446,0.3780842423439026,0.8290204768500037,1.3076513483338377,-0.013024507090449333,0.8615195155143738,0.9474210227592228,1.5410796352004572,0.26263970136642456,0.4551534354686737,0.8344211011263514,1.5519794854756421,0.18530486524105072,0.8710767030715942,0.996520767792161,1.0308140444179519,-0.17450203001499176,0.4234275221824646,0.7694629123930403,1.0529012774289142,-0.3181667625904083,0.9976988434791565,0.003786712884902954,0.8735185845800992,1.0298381444899805,178.17316038418292,179.84732178018382,1.0,0.0101619398256024,0.021154581652740343,0.3233607366970745,0.12717070042181902,95.25808749909932,0.945427289726124,3,0.1
0.8684098589960115,0.5425558517640274,-0.4937947392463684,0.9999361634254456,0.9537833816599893,0.6826794608428718,-0.19812995195388794,0.9999744892120361,0.7774267578037549,0.6907186739392464,-0.23215702176094055,0.9999964237213135,0.92807070527068,1.0306415699387306,0.015134012326598167,0.9999623894691467,0.8233567071368829,1.03178388044839,-0.015314129181206226,0.9999876618385315,0.9329729579674507,1.3021213730382035,0.03696786239743233,0.4390246272087097,0.828050702243921,1.3082813426273343,-0.0005423399852588773,0.8736895322799683,0.9479132152957,1.5425558517640274,0.2657342553138733,0.5086737275123596,0.8346284742806074,1.552999513748471,0.20117023587226868,0.8831415176391602,0.9949724905212294,1.0324237086574264,-0.2108234465122223,0.4803333282470703,0.7685258026732192,1.0546138598700106,-0.33131104707717896,0.9974825382232666,0.004280775785446167,0.8757137062037815,1.0312127251935603,177.47880070206833,179.43291508562493,1.0,0.005461217691620888,0.00028931349566081364,-0.023888636723825803,-0.1058800809139534,94.8512000767528,0.94564718623981,4,0.13333333333333333
0.8680756881954096,0.5423752548727011,-0.464010089635849,0.9999422430992126,0.9523201965576483,0.6827303152888751,-0.1790713518857956,0.9999765753746033,0.7757405222671901,0.6897787944124483,-0.2127784788608551,0.9999961256980896,0.926792133402417,1.0298348027024888,0.01391623169183731,0.9999651908874512,0.8228203885643576,1.0309771196847781,-0.014109386131167412,0.9999879598617554,0.9303482809476146,1.2998340114292048,0.027306532487273216,0.4940248429775238,0.826903213418922,1.3063072527572746,-0.004125597886741161,0.8846679329872131,0.9466637101954892,1.5423752548727012,0.24051102995872498,0.5568351149559021,0.8329985323445248,1.5477869829733188,0.18819169700145721,0.893928587436676,0.9933218993598734,1.0313129637833771,-0.197355717420578,0.5314103364944458,0.7660172488634946,1.05285951412244,-0.31076180934906006,0.9972876906394958,0.0037590861320495605,0.8748062609833873,1.0304059611936336,176.90618287836224,179.40364097835376,1.0,0.00345570536823736,0.006042850952307797,-0.01505305370672622,0.0433727353441461,94.83576068281663,0.9479134338970331,5,0.16666666666666666
0.8709889473365169,0.545769544220757,-0.46686381101608276,0.9999476671218872,0.9565480800964498,0.6839438341494298,-0.181727334856987,0.9999784827232361,0.7795548176636066,0.6937834100037493,-0.21278901398181915,0.9999958872795105,0.9300802850388291,1.034522454441159,0.013042573817074299,0.9999677538871765,0.825986836935608,1.0356964210743738,-0.013231339864432812,0.9999882578849792,0.9351689331025363,1.3038079265760092,0.025772150605916977,0.5433698892593384,0.830397294196622,1.3114207488331056,0.0033322826493531466,0.8943612575531006,0.9504533994292937,1.5457695442207569,0.2448154240846634,0.6001747250556946,0.8376928266575067,1.5508506711748422,0.20651206374168396,0.9035751223564148,0.9979970274778689,1.036015114062679,-0.20198459923267365,0.577383816242218,0.7682308329572779,1.056770345724081,-0.3083435893058777,0.9970918297767639,0.005224555730819702,0.8780335609872186,1.0351094377577663,177.46806825852417,179.1711321067925,1.0,-0.005019701162894589,0.001203842775030685,-0.06697694727098019,-0.038382078828987365,94.9636499610464,0.9531358535301936,6,0.2
0.8724437166274417,0.5482040560138932,-0.4808809161186218,0.9999525547027588,0.9591952584233137,0.6844627004041965,-0.19153931736946106,0.9999802708625793,0.7804108176279599,0.6957705354783023,-0.22406616806983948,0.999995768070221,0.9323220051428466,1.0376746606968463,0.01480130571871996,0.9999701380729675,0.8269772291034148,1.0387436856947188,-0.014981796965003014,0.9999886155128479,0.9381072010208249,1.3070333897806747,0.035162121057510376,0.5878007411956787,0.8325868806532702,1.3148823993707195,0.0002713231951929629,0.9033584594726562,0.9522377596243767,1.5482040560138932,0.26198580861091614,0.6391686797142029,0.8399247348768477,1.5553361423427552,0.20310325920581818,0.9123815894126892,1.0013933233045873,1.0389410112523971,-0.19886553287506104,0.618925929069519,0.7685653182490908,1.059678092563134,-0.3159790635108948,0.9969359040260315,0.005987673997879028,0.8796496171231307,1.0382091731957825,177.87717645147063,179.41584607913094,1.0,-0.006213748010707724,0.0019316831571154984,-0.009145829891777951,0.0056145159644419304,94.93223489011487,0.9537439998622503,7,0.23333333333333334
0.8756810442839045,0.5512444981878543,-0.475109726190567,0.9999570250511169,0.9625010942908797,0.6863566354692573,-0.18796923756599426,0.9999818801879883,0.7831541896797215,0.6989547898311996,-0.21909114718437195,0.9999956488609314,0.9347090993604823,1.0413103702628501,0.013661819510161877,0.9999722838401794,0.8282589111989305,1.042403813949653,-0.013846466317772865,0.9999889731407166,0.9423308423978272,1.3101176863951545,0.03172478824853897,0.6279829144477844,0.8346231375169226,1.320028827151743,-0.006513374391943216,0.9118020534515381,0.9540176430753555,1.5512444981878544,0.26055842638015747,0.6743699908256531,0.8437171324439313,1.5628547691032124,0.1888255923986435,0.9204242825508118,1.0060529111526173,1.0425799171219388,-0.19362664222717285,0.6565308570861816,0.768958511832179,1.063475535609496,-0.30212634801864624,0.9968745708465576,0.006647616624832153,0.8814840052797064,1.0418570921062515,178.84931652601045,179.16844508017138,1.0,-0.009841955426127511,6.898358917652908e-05,-0.028418433828338287,-0.01473131960752294,95.06549801917515,0.9518112334568319,8,0.26666666666666666
0.8743273984328501,0.5516192106737285,-0.47588521242141724,0.9999610781669617,0.9624246710811102,0.6873139631461299,-0.18718183040618896,0.9999833703041077,0.7828618870190319,0.6992827823430013,-0.2186373770236969,0.9999955892562866,0.935113428865595,1.041248528774519,0.01368936151266098,0.9999741911888123,0.8288809673049521,1.0428610952496833,-0.013875074684619904,0.9999892711639404,0.9427656367810634,1.3096381201814382,0.038867611438035965,0.6641108393669128,0.8345963899270901,1.319963312051379,-0.006053309887647629,0.9193757772445679,0.9544859691638029,1.5516192106737285,0.26502153277397156,0.7060455083847046,0.8430975191584745,1.5640054877183416,0.1911078244447708,0.9276598691940308,1.0069785827520672,1.0423004186381601,-0.19625476002693176,0.6904226541519165,0.7674772777162616,1.063539829076086,-0.30215564370155334,0.9968525171279907,0.006316125392913818,0.8819971980852735,1.0420548120121012,178.86020114075845,179.18652408429162,1.0,0.004712712963096866,0.0023328801146670795,0.11523805291424351,0.01792580702439299,95.28212599039824,0.9505123930973711,9,0.3
0.870981079245172,0.5504234703106313,-0.48011094331741333,0.999964714050293,0.9601402471844789,0.685421136972394,-0.19443193078041077,0.9999847412109375,0.7813290890759129,0.6982324857163005,-0.22205457091331482,0.9999954700469971,0.9333506269236512,1.039393705212039,0.013240533880889416,0.999975860118866,0.8272634691449486,1.0411979204626745,-0.013425467535853386,0.9999894499778748,0.94063546729361,1.3072239576877478,0.04046792536973953,0.6966902017593384,0.8355643924975354,1.3174030506276622,-0.0045209345407783985,0.9261474013328552,0.9532146941179303,1.5504234703106314,0.26108884811401367,0.7346639037132263,0.8413503610938861,1.5616871892769368,0.19172096252441406,0.9341499209403992,1.0055373873274396,1.039920066184622,-0.2079603224992752,0.7208266854286194,0.7659217852847442,1.0618567713058527,-0.3068212866783142,0.9967277646064758,0.006773531436920166,0.8803070480342999,1.0402958128373567,178.59710814543675,179.63540101306305,1.0,-0.00018396402457827166,0.0015570715040304915,-0.03646166501551057,-0.005754486562032134,95.3023821952897,0.9494621481954971,10,0.3333333333333333
0.869507441830184,0.549558923809689,-0.4674389958381653,0.9999678730964661,0.9585314716349004,0.6843143511790529,-0.18369370698928833,0.9999858736991882,0.780367339343807,0.6978081242542007,-0.21384096145629883,0.9999952912330627,0.9323607707901885,1.0382222103077048,0.012959107756614685,0.9999772906303406,0.8261276846805912,1.0403115185775988,-0.013152102939784527,0.9999895691871643,0.9397041560215083,1.3050936364686962,0.03678722307085991,0.7259419560432434,0.8354886845749374,1.316441726332493,-0.004987426567822695,0.9322308301925659,0.9529166175756004,1.549558923809689,0.2532861828804016,0.7603920698165894,0.8404448923401943,1.5614133180927632,0.18736588954925537,0.9400191307067871,1.0044665173397156,1.0387826932421482,-0.20236070454120636,0.7481475472450256,0.7629327832730987,1.0611120134606014,-0.29482603073120117,0.9967308640480042,0.007140547037124634,0.8792442277353899,1.0392668644426517,178.48256625402695,179.21741473404936,1.0,-0.002290179221251925,-0.0009580543319279428,-0.016221018514385264,-0.01935834715043954,95.35590095289109,0.9482865247128489,11,0.36666666666666664
0.8701408632925532,0.5496154524074739,-0.4627150893211365,0.999970555305481,0.9576076906813756,0.6828310127344059,-0.17664705216884613,0.9999867677688599,0.7813098284693694,0.6981894189344103,-0.19695499539375305,0.9999951124191284,0.9328430150550799,1.0388337621110741,0.0134957330301404,0.9999785423278809,0.8264825627129707,1.0408758470933648,-0.013696561567485332,0.9999896883964539,0.9400224877283315,1.305578633570164,0.034735508263111115,0.7516350746154785,0.8333971390975426,1.3165063802758934,-0.007418220397084951,0.9371278882026672,0.9531831732197459,1.549615452407474,0.2521541714668274,0.7830303311347961,0.8409795629216872,1.5623774692661703,0.18254508078098297,0.9449918270111084,1.0050941680667496,1.0388170828297618,-0.18828245997428894,0.772394597530365,0.7604481046701537,1.0624943369332032,-0.27425166964530945,0.9966723322868347,0.008122891187667847,0.8796627888840254,1.0398548046022194,178.4548316771835,179.67065718822002,1.0,-0.0004154784614343291,0.0002195548022677789,0.014303875555684431,0.008983129023925153,95.07918963928402,0.9494506656401316,12,0.4
0.8689706899523129,0.5493555449299922,-0.4562128484249115,0.999972939491272,0.9572104729744766,0.6824873193252801,-0.17518042027950287,0.9999876618385315,0.7819205643920694,0.6979353448550273,-0.19793839752674103,0.9999949336051941,0.9317026980874605,1.0386541208396989,0.01125452108681202,0.9999797940254211,0.8238678211459642,1.0406574282857568,-0.011456183157861233,0.9999898672103882,0.9398159861996128,1.3051874214737904,0.02470230683684349,0.7751575112342834,0.8322183534128876,1.3164021797165881,-0.011055471375584602,0.9419369101524353,0.9532956908945851,1.549355544929992,0.2353564202785492,0.8037669658660889,0.8409314844402258,1.562534173214825,0.1616845279932022,0.9497765898704529,1.0050801573687635,1.0380809263418027,-0.19305768609046936,0.794521152973175,0.7587064125838672,1.0625508214332375,-0.2734496593475342,0.9965680837631226,0.008171707391738892,0.8777852596167124,1.039655774562728,178.5836476820654,179.70715237748868,1.0,-0.013281756409133205,-0.00014358890065725222,-0.09906904099197225,-0.0027958609250423195,95.16067891762371,0.9491472867381366,13,0.43333333333333335
0.8695960448467763,0.5506608570205165,-0.4563187062740326,0.9999751448631287,0.9573357868896484,0.6832255035769504,-0.17332127690315247,0.9999884963035583,0.7812386483372992,0.6986695146680112,-0.2016821652650833,0.9999947547912598,0.9316009545148811,1.0392615610237201,0.012889238074421883,0.9999806880950928,0.8225877878826757,1.041205337725142,-0.013088380917906761,0.9999898076057434,0.9407415867197695,1.3059765637419185,0.022992147132754326,0.7962163686752319,0.8327771417902858,1.316908207876439,-0.018653417006134987,0.9460759162902832,0.9540223133524528,1.5506608570205165,0.23153118789196014,0.8222793340682983,0.8415297176523696,1.563902800567225,0.15725383162498474,0.9538383483886719,1.0056041559233384,1.0386910888869998,-0.19753418862819672,0.81454998254776,0.7592203968366531,1.0642014528775359,-0.27522218227386475,0.9964743256568909,0.00816500186920166,0.8770943711987784,1.0402334493744312,178.856030633213,179.9129425355999,1.0,-0.009634986218092913,-4.681076444999772e-05,0.029749984678243135,0.0007885519974228885,95.1557502082536,0.9462112618001838,14,0.4666666666666667
0.8694660205174072,0.5506741267904652,-0.4711743891239166,0.9999772906303406,0.9562914724012207,0.6839580809371502,-0.19098015129566193,0.9999893307685852,0.7807047812662858,0.6990308324753695,-0.2063358724117279,0.999994695186615,0.9308089036749636,1.0391139071983175,0.012585069052875042,0.999981701374054,0.8216708306987559,1.0410548801129638,-0.01277440320700407,0.9999898672103882,0.9408287338843616,1.3058737934725007,0.03012065589427948,0.8154178261756897,0.8325574927833527,1.3168325459380312,-0.01823240891098976,0.9500308632850647,0.9540096061137152,1.5506741267904651,0.23946687579154968,0.839225709438324,0.8407118787023822,1.5638827304251506,0.15939846634864807,0.9576890468597412,1.00517573989024,1.040070302494395,-0.21145343780517578,0.8325293660163879,0.7581958421154147,1.0641297766641127,-0.28451699018478394,0.9964022040367126,0.007969588041305542,0.8762398671868598,1.0400843936556408,179.06906772431068,179.6298281235497,1.0,-0.005694595145960863,-0.00027096989745088805,0.029544746722805035,-0.001681212169873935,95.12283453533462,0.9455788341256633,15,0.5
0.8696601530691287,0.551174244841601,-0.46631088852882385,0.9999791383743286,0.9546575721501592,0.6846829618982394,-0.18486353754997253,0.9999900460243225,0.7798084301901446,0.6992047747790208,-0.2078896015882492,0.9999945759773254,0.9285631734321171,1.039334377727921,0.013727562502026558,0.9999825358390808,0.8203842197946224,1.0412199481921953,-0.013916428200900555,0.9999898672103882,0.9405411067440574,1.306179299564074,0.031919680535793304,0.8326072096824646,0.8317305101154209,1.3168344696217156,-0.0182650163769722,0.9534143209457397,0.9541681108462415,1.551174244841601,0.24148006737232208,0.8545067310333252,0.8405628004447885,1.5637825244837766,0.1603880226612091,0.9610511064529419,1.0045809338529297,1.0404200775425774,-0.206760436296463,0.8486050963401794,0.7582928793922696,1.064399847828386,-0.28595173358917236,0.9962971806526184,0.007676661014556885,0.8744736966133698,1.040277162960058,179.38652349464834,179.69097701783073,1.0,-0.014702744678834862,-0.00020431097794301636,-0.0678618329641402,0.0005026658540382412,95.20667322576215,0.9447897567557948,16,0.5333333333333333
0.869579201271408,0.5513043742986382,-0.46814480423927307,0.9999807476997375,0.9532621689875557,0.6849140663604847,-0.18290795385837555,0.9999906420707703,0.7775960004092951,0.699127316414113,-0.2143324315547943,0.9999944567680359,0.9274956357364196,1.0393522539275553,0.01443413458764553,0.9999832510948181,0.8193460130235883,1.0412153920874696,-0.014622812159359455,0.999989926815033,0.9402895452455672,1.3066796558651672,0.033970851451158524,0.8482016921043396,0.8314337476177308,1.3170869129033085,-0.01716350018978119,0.9565463662147522,0.954149425958045,1.5513043742986383,0.25076889991760254,0.868274986743927,0.8402001599407819,1.563521098850112,0.18355506658554077,0.9640789031982422,1.0034494102007492,1.0402873183647479,-0.20300476253032684,0.862952470779419,0.7581016602101217,1.064571932901544,-0.3044840395450592,0.9962443113327026,0.007513523101806641,0.873420824380004,1.0402838230075124,179.4972221457432,179.52842794054038,1.0,-0.008129560818041278,2.7356176238468142e-05,0.05062833526089111,0.0017843521674735013,95.14486771797881,0.9445955858106314,17,0.5666666666666667
0.8695677949256212,0.5521733558448134,-0.4662385582923889,0.9999822974205017,0.951020044859005,0.6852424545515464,-0.1818358600139618,0.9999911189079285,0.7753876314865,0.6997812440984642,-0.21462997794151306,0.9999943375587463,0.9263847075963159,1.041137074923022,0.014817366376519203,0.9999839663505554,0.8192566450870229,1.0423133772206414,-0.015005877241492271,0.9999900460243225,0.9404302218199057,1.308689046230587,0.03525543212890625,0.8623070120811462,0.8302023934880662,1.3182298765666638,-0.014319990761578083,0.9593344926834106,0.9542409719616552,1.5521733558448134,0.25479453802108765,0.8806524872779846,0.8402780707784939,1.5642167193992746,0.18732532858848572,0.9668015241622925,1.0023583580638473,1.0413207346660474,-0.19845275580883026,0.8756799101829529,0.7577235239476285,1.0653742947206397,-0.3046662509441376,0.9961629509925842,0.007681548595428467,0.8728206763416694,1.0417252260718317,179.7586500798171,179.9262245248619,1.0,-0.00837586576003882,0.007026182269672264,-0.001908261756053689,0.05518734763105611,94.58884939619607,0.9468389197521794,18,0.6
0.8688115218933238,0.5532608265462081,-0.45759305357933044,0.9999836087226868,0.9492644261216167,0.6858551241471291,-0.1789703071117401,0.9999915957450867,0.773367669956943,0.7004429008910242,-0.21258309483528137,0.999994158744812,0.9259965891092801,1.042097631736155,0.014603441581130028,0.9999846816062927,0.8190967762187735,1.043202188064886,-0.014793572016060352,0.9999901652336121,0.9399660311101644,1.3097496291939363,0.036256954073905945,0.8752597570419312,0.8298615143589217,1.3196201758019621,-0.01398822944611311,0.9622186422348022,0.9550389002674953,1.553260826546208,0.24746659398078918,0.8920259475708008,0.8410002908183218,1.5656837541861945,0.1856502741575241,0.9695079326629639,1.0023544935890962,1.0421392981934543,-0.18700279295444489,0.887345552444458,0.7569893647214623,1.0665341620629842,-0.29908478260040283,0.996127724647522,0.007700324058532715,0.8725466826640268,1.0426499099005204,179.4457239767572,179.638293443778,1.0,-0.008701838198639055,-0.00029626571138089146,-0.0025652389918043713,-0.059075977810900494,94.32893812799814,0.9457953100177889,19,0.6333333333333333
0.8681344645753507,0.5538281090915561,-0.4531164765357971,0.9999849200248718,0.9472533226539207,0.6863598839687085,-0.17211008071899414,0.9999920725822449,0.7722586251743618,0.7008190028776234,-0.2075997292995453,0.9999940395355225,0.924489962491199,1.0434683539084306,0.014301861636340618,0.99998539686203,0.8183590061932874,1.0443532464275416,-0.0144963962957263,0.9999902844429016,0.9403738001547122,1.3111985560198929,0.034669287502765656,0.8869365453720093,0.8297367040888576,1.321479825427753,-0.013663874939084053,0.9647419452667236,0.9554649851487064,1.553828109091556,0.24748018383979797,0.9022484421730042,0.8417215017415708,1.5659585813138333,0.18911710381507874,0.9718745946884155,1.0020802825600879,1.0419468765118538,-0.18469253182411194,0.8980314135551453,0.7568312420268026,1.067460317236171,-0.2974177896976471,0.9961426258087158,0.0076288580894470215,0.8714244843422432,1.0439108001679862,179.83612701731047,179.54451525641042,1.0,-0.01098473972548699,0.005572237106179114,-0.016377106798895688,0.04217538733549784,94.12500789283493,0.9485087504908616,20,0.6666666666666666
0.8675953718379065,0.554150877650235,-0.44446054100990295,0.9999861121177673,0.9446165364194077,0.6867980558473151,-0.16111555695533752,0.9999924898147583,0.7687508639290913,0.7010567428062044,-0.20745030045509338,0.9999939799308777,0.9239369419639704,1.0444119738339825,0.014864185824990273,0.9999859929084778,0.8169906299508153,1.04504163191642,-0.015065724030137062,0.9999903440475464,0.9409421181354299,1.3119025043799721,0.03495762497186661,0.8974133729934692,0.8289628928963018,1.3224901637823068,-0.016135480254888535,0.9669808149337769,0.9558492252018302,1.5541508776502349,0.24789980053901672,0.911452054977417,0.8422603086307915,1.5659924280535675,0.18543995916843414,0.9739954471588135,1.0021024770507092,1.042373129434577,-0.17453208565711975,0.9077435731887817,0.7553624636754197,1.068182216335417,-0.29754358530044556,0.9962337613105774,0.00751948356628418,0.8704637859573928,1.0447268028752013,179.88376950668246,179.34509346368,1.0,-0.010965000981014671,0.0024855887285507557,0.0001988068100225209,-0.024535758475882352,93.6468653244254,0.9504883025917994,21,0.7
0.8661162134864572,0.5543374474114028,-0.44569140672683716,0.9999872446060181,0.9432405785693979,0.6867496604985363,-0.1623390018939972,0.9999929070472717,0.7654554921678794,0.7014069998890328,-0.20757119357585907,0.9999939799308777,0.9231524028755603,1.0446944639455182,0.014997879043221474,0.9999865293502808,0.8153582926853948,1.0454236932479415,-0.015198374167084694,0.9999904632568359,0.9419121941215186,1.3123328107566863,0.035013262182474136,0.9067764282226562,0.8286083325810212,1.3235787702469244,-0.013139511458575726,0.9689156413078308,0.9562374797970978,1.5543374474114027,0.2527752220630646,0.9196560382843018,0.84265187571061,1.5662899113839421,0.19636544585227966,0.9758068323135376,1.0015441006508288,1.0417105028635252,-0.17000433802604675,0.9163536429405212,0.7545235535129096,1.069060445703819,-0.29683560132980347,0.996266782283783,0.0077273547649383545,0.8692553477804775,1.04505907859673,179.37810674865625,179.4157413424312,1.0,-0.011224415748629821,9.767657798159781e-05,-0.0019491055378684354,-0.018182212371624207,93.59972105719478,0.950772128280323,22,0.7333333333333333
0.8642931052226486,0.554239235792057,-0.4386558532714844,0.9999882578849792,0.9415447249536026,0.6883621876711519,-0.14899832010269165,0.9999932050704956,0.7622315606175066,0.7014999787221429,-0.2043403834104538,0.9999939799308777,0.9217966129607525,1.0443329380493354,0.01661013439297676,0.9999868869781494,0.8145771801566491,1.0455419046343963,-0.016815314069390297,0.9999904632568359,0.9421221376125204,1.3120287258417906,0.035615794360637665,0.9151608943939209,0.8274511031735317,1.3235379837441692,-0.013253072276711464,0.9705584645271301,0.9560488765658793,1.5542392357920571,0.24755921959877014,0.9270088076591492,0.8425820049460704,1.566105328727068,0.1916181743144989,0.9774012565612793,1.0010966714932268,1.0370216063781803,-0.17000886797904968,0.9239983558654785,0.7529674133433131,1.0690576384653019,-0.2968129813671112,0.9963184595108032,0.0069280266761779785,0.8681868965587008,1.0449374213418658,178.94879207816206,179.08207777062336,1.0,-0.006186234925724882,0.0010728459566993376,0.036849347950812524,0.00713667157222928,93.82134923626658,0.9506707221495322,23,0.7666666666666667
0.8614796384685691,0.5539150107759837,-0.4471295475959778,0.9999892711639404,0.9387846270155603,0.6906809180461054,-0.1526441127061844,0.999993622303009,0.7609898107714702,0.7002972704602642,-0.20933076739311218,0.9999940991401672,0.9188141340284125,1.0424147230402943,0.018024776130914688,0.9999872446060181,0.8117195874660077,1.0438283515565936,-0.01823306456208229,0.9999904036521912,0.9417136634959322,1.3109567493765726,0.03593442961573601,0.9226904511451721,0.825009139839545,1.3219906796204146,-0.015543806366622448,0.9719551801681519,0.9544355302799499,1.5539150107759836,0.2472015917301178,0.933630108833313,0.8412397458898931,1.563526059826456,0.191547691822052,0.9787294268608093,0.9995116391907293,1.0328996987238075,-0.1706637293100357,0.9311488270759583,0.7502986809293298,1.0685526330636517,-0.3082812428474426,0.9964147806167603,0.005079686641693115,0.86526686074721,1.043121537298444,178.12338163914396,178.8909361345761,1.0,-0.011360471260869526,-0.0003028689248055437,-0.04081082295907921,-0.010814308330940785,94.00586026375896,0.9469494336022043,24,0.8
0.8579232942085264,0.5526510448952796,-0.4415316581726074,0.9999901056289673,0.9349376249569987,0.6919019137880459,-0.1428467035293579,0.9999939203262329,0.7593049083080956,0.6982791053036662,-0.21589186787605286,0.9999942183494568,0.9153318120320183,1.0403967995243542,0.024044232442975044,0.9999874830245972,0.8091357465834061,1.0423215666137984,-0.02425481751561165,0.9999903440475464,0.9408419856641843,1.308499750297138,0.04359056055545807,0.9292441606521606,0.8227770674242769,1.320562960310476,-0.01887666992843151,0.9729430079460144,0.9526388834932051,1.5526510448952797,0.2455923855304718,0.9395238757133484,0.839559520773195,1.5619786150752966,0.1860080510377884,0.9797607064247131,0.9974994806067864,1.0306605837135179,-0.16212105751037598,0.9373088479042053,0.7477148106171292,1.0672465853767021,-0.3127972483634949,0.9964718818664551,0.0033755898475646973,0.8622337793077122,1.0413591830690763,177.33089749722333,178.83016472443964,1.0,-0.00951699913535743,0.0028973880222230453,0.013808764390065056,0.024274779851335866,94.25833513803464,0.9451897834630064,25,0.8333333333333334
0.856390178459992,0.5521214239114802,-0.4431608319282532,0.9999908804893494,0.9320600340837115,0.6929586183649662,-0.1424645185470581,0.999994158744812,0.7582071196023976,0.6969271957454475,-0.22396156191825867,0.9999943375587463,0.9127659355469241,1.0393027974820193,0.02629454806447029,0.9999876618385315,0.8073093638189011,1.0414588040035846,-0.026504334062337875,0.9999902844429016,0.9410534250564158,1.3081856984638256,0.04336821287870407,0.935140073299408,0.8214384284708052,1.3192029750325198,-0.022443078458309174,0.9736165404319763,0.9518703547809636,1.5521214239114802,0.23530535399913788,0.9448926448822021,0.8387631434026127,1.560381428443751,0.18223093450069427,0.9806730151176453,0.9965236279067518,1.0291181808461556,-0.16166260838508606,0.942771315574646,0.7450002578860978,1.0668358084492935,-0.3267015516757965,0.9965622425079346,0.002102792263031006,0.8600376496829126,1.040380800742802,176.53338464732363,178.80346670999802,1.0,-0.009820603022893691,0.0005894202444733861,-0.0023299345832617615,-0.01714356449738646,94.359750710108,0.9442937790533132,26,0.8666666666666667
0.8553735000775218,0.5516336805337992,-0.4426928162574768,0.9999915957450867,0.9306795846002386,0.6937504309496323,-0.14045299589633942,0.9999943971633911,0.7581443509731356,0.6955048560542529,-0.22288234531879425,0.9999945163726807,0.911727747390658,1.036509743774699,0.026949262246489525,0.9999879598617554,0.8063046687881986,1.039623764042074,-0.027163948863744736,0.9999903440475464,0.9405294845974457,1.30634414616283,0.030985374003648758,0.9405141472816467,0.8202701061640731,1.3165022787576939,-0.030610408633947372,0.9741915464401245,0.9510419301418493,1.5516336805337994,0.19603446125984192,0.949843168258667,0.8376159869149783,1.5583904088130809,0.15919551253318787,0.9815256595611572,0.9952660305817312,1.0272720943064746,-0.16148436069488525,0.9477410912513733,0.7432861348773023,1.0670819218181644,-0.3202238976955414,0.9966400265693665,0.0009304285049438477,0.8590162080894282,1.0380667539083865,176.36143896870382,178.78580812428976,1.0,-0.0018499759399272853,-0.01002851780645682,0.0575176534178811,-0.0767014986120035,94.85670286769238,0.9388110412346756,27,0.9
0.856064137543552,0.5527666548914222,-0.4317370057106018,0.9999922513961792,0.9307784857230454,0.6949188573578589,-0.1328164041042328,0.9999946355819702,0.7589938794779079,0.6953158572062219,-0.2251671850681305,0.999994695186615,0.9120131726809904,1.036308365823019,0.029312899336218834,0.9999883770942688,0.8065128103434288,1.0400505434051388,-0.029539044946432114,0.9999904632568359,0.941606837910545,1.303227539611291,0.010114761069417,0.944996178150177,0.8208882979838918,1.3168456295804187,-0.053374480456113815,0.9741437435150146,0.951417192752844,1.552766654891422,0.13471737504005432,0.9542391896247864,0.8379771145695684,1.559231775775655,0.09808699786663055,0.9821107983589172,0.9944085486588506,1.0300449777607557,-0.14447948336601257,0.9518271684646606,0.7427718168452642,1.0688932767589339,-0.3213312029838562,0.9966943264007568,0.0002104341983795166,0.8592629915122096,1.0381794546140788,175.92474436304906,178.94019341743643,1.0,-0.0014333737180926218,-0.003111250607225974,0.003103929870882676,0.05145897711611794,95.17771003161891,0.9352463354155462,28,0.9333333333333333
0.8587534161837679,0.5547043317165123,-0.423981249332428,0.9999927282333374,0.9310287364918259,0.6973538823976767,-0.13153375685214996,0.9999947547912598,0.7605638133666609,0.6964582745760238,-0.2294219434261322,0.9999948143959045,0.9136391446677797,1.0378480047144012,0.03066946566104889,0.999988853931427,0.8080995655938821,1.0426564551343451,-0.03088540770113468,0.9999907612800598,0.9445241266148311,1.3037480705826592,0.022487327456474304,0.9492554664611816,0.8229675677672643,1.3190700996854363,-0.04498305544257164,0.9746541380882263,0.9525188751755961,1.5547043317165123,0.1771114319562912,0.9582838416099548,0.839348580047955,1.5620138161149262,0.11662628501653671,0.9829788208007812,0.9948356267080919,1.0340462753797788,-0.14694306254386902,0.9547494053840637,0.7435557122917739,1.0717679049478686,-0.32632574439048767,0.9967372417449951,0.00047394633293151855,0.860869355130831,1.040252229924373,175.19929796440965,179.2214586200764,1.0,0.0015133822893392678,0.002872951973045291,0.023346725774186877,0.047414592662110906,95.53227724395855,0.9350244449517209,29,0.9666666666666667
0.8599476816570168,0.5550938785668467,-0.3998945653438568,0.9999931454658508,0.9306730974465613,0.6988313632225495,-0.10904792696237564,0.9999948740005493,0.7618158341825004,0.6959942279360257,-0.21903657913208008,0.9999949932098389,0.9134442773932357,1.0381588612116164,0.03273683041334152,0.9999892711639404,0.8085231117747592,1.043357797268984,-0.032963450998067856,0.9999910593032837,0.9460263234373659,1.3022356326368352,0.02329939790070057,0.9531036019325256,0.823748237423225,1.3196001579340897,-0.04793019965291023,0.9750945568084717,0.9509310906347102,1.5550938785668467,0.1767958551645279,0.9618366360664368,0.8394863277670899,1.5626814297147391,0.11657258123159409,0.983695387840271,0.9940318422299509,1.0366497107405264,-0.12639965116977692,0.9579166173934937,0.7435952786292295,1.0728580555258087,-0.32108074426651,0.9968653321266174,0.0015009641647338867,0.8609836945839975,1.0407583292403002,174.07758274947824,179.45027469288013,1.0,-0.0009629145180035037,0.0016579927860464099,-0.018993040468163004,-0.009323213296309595,95.74334325129963,0.9353025989409709,30,1.0
0.8618945669716115,0.5559298927534835,-0.37673869729042053,0.9999935626983643,0.9309068602588508,0.6994827293807974,-0.08338551968336105,0.9999949932098389,0.7634648273919746,0.696449548709791,-0.2189878672361374,0.9999951720237732,0.9149626193754592,1.0379549559440422,0.040742047131061554,0.9999897480010986,0.8102679284204792,1.0444363253216171,-0.040970578789711,0.9999913573265076,0.9502434928195599,1.2990729794677087,0.023626012727618217,0.9562580585479736,0.8250646912675336,1.3215721018915814,-0.07211806625127792,0.9756420850753784,0.9484977058901917,1.5559298927534835,0.16517524421215057,0.9649443626403809,0.8408915834948664,1.5650811697268903,0.07372081279754639,0.9844464659690857,0.9942977579975084,1.0391639856071873,-0.11331155151128769,0.9603118896484375,0.7449286480678826,1.074907596395997,-0.3245542049407959,0.9969961047172546,0.001602262258529663,0.8626152738979692,1.0411956406328298,171.91568236666006,179.33750631077365,1.0,0.0025626035564036316,-0.00874440856868772,0.027210570590334066,-0.08027379256728245,96.2395178258013,0.932663336379837,31,1.0333333333333334
0.8720236402287179,0.5594505564500554,-0.36377713084220886,0.9999938607215881,0.9361874936772845,0.703653487828425,-0.06491000205278397,0.9999950528144836,0.7724138064149434,0.7003075436935831,-0.22310428321361542,0.9999953508377075,0.920651410855417,1.0443141316934637,0.04988836124539375,0.9999902248382568,0.8174541349792888,1.050867502110978,-0.05009493976831436,0.999991774559021,0.9567212324818913,1.3064741541015648,0.0581064447760582,0.9584802985191345,0.8307289706341018,1.3295003627010482,-0.07753525674343109,0.9764612913131714,0.9501272150225109,1.5594505564500554,0.20693930983543396,0.9676175713539124,0.8461634926209156,1.574855671778089,0.06516555696725845,0.9852840900421143,1.0000466646206898,1.0456375448777973,-0.10149209201335907,0.9624791741371155,0.7497458708339195,1.081634587862271,-0.3542928099632263,0.997143030166626,0.001756519079208374,0.8690527729173528,1.0475908169022208,170.67291015507396,179.1281138596982,1.0,0.008251517562998198,-0.0007880775021851954,0.0443421924047871,0.06261677057829673,96.24480097205739,0.9380666170387255,32,1.0666666666666667
0.8841258111145254,0.5634550516450483,-0.3611272871494293,0.9999939799308777,0.941304406296803,0.7075556919480528,-0.06411637365818024,0.9999950528144836,0.7803491786251053,0.703356121527314,-0.22884288430213928,0.9999954700469971,0.9261302524110797,1.0499794050247857,0.05333239957690239,0.999990701675415,0.8248860052560729,1.0567052505280372,-0.05351889878511429,0.9999921917915344,0.9623566796160227,1.314145581491259,0.08247433602809906,0.9609788656234741,0.836045209696707,1.337340326126415,-0.07742426544427872,0.9776896238327026,0.9514940222606184,1.5634550516450483,0.25930747389793396,0.9701700806617737,0.8511785333944968,1.5843548541925436,0.07511787116527557,0.9862440228462219,1.0032865731554477,1.0518300689836018,-0.09911777079105377,0.9641323089599609,0.7548912423701085,1.0876988465843092,-0.3572109341621399,0.9972249269485474,0.002191692590713501,0.8755081288335763,1.0533423277764113,169.69659455112188,178.7712769932037,1.0,0.010152300747543471,-0.0033909880333363412,0.01425841318430515,-0.020003635703504496,96.33802516119886,0.9400584628995534,33,1.1
0.8902947470529103,0.5652476244860157,-0.35831183195114136,0.9999940395355225,0.9437994559307142,0.7094452849342541,-0.06302076578140259,0.9999950528144836,0.7844047712382853,0.7045703549530653,-0.2307397574186325,0.9999955296516418,0.9288233191662583,1.05269097016908,0.05436297506093979,0.9999911785125732,0.8288489127920539,1.05952021315155,-0.05454409867525101,0.9999925494194031,0.9653116171408913,1.3175488602589749,0.08551961183547974,0.9632861614227295,0.8386523194989354,1.3411451638498884,-0.07798384130001068,0.9788469076156616,0.9529296626572277,1.5652476244860156,0.26377609372138977,0.9725192785263062,0.8536332668800098,1.589087207831638,0.07618708908557892,0.9871441125869751,1.004965071773541,1.0548960651962254,-0.09803751111030579,0.9656806588172913,0.7575635349304313,1.0906171843586925,-0.3562605082988739,0.9972994327545166,0.002536863088607788,0.878836115979156,1.056105591660315,169.29427359900396,178.5359954248465,1.0,0.006373787337912885,-0.002067149980921442,-0.02987815272928691,0.010464352428496727,96.40608403890343,0.9412519326614993,34,1.1333333333333333
0.8952997490695733,0.566847542834323,-0.33657604455947876,0.9999938011169434,0.9464854661347323,0.7118224058473803,-0.04516009986400604,0.9999948740005493,0.789633126193999,0.7058292109486616,-0.22355420887470245,0.9999955296516418,0.9317263361946131,1.0559029195714646,0.056239645928144455,0.9999914765357971,0.8334642374884187,1.0627434060466519,-0.056417159736156464,0.9999927878379822,0.9684932185941612,1.3216389479775035,0.08466870337724686,0.9647446870803833,0.8423231161074954,1.3457100708387457,-0.07510179281234741,0.9794015288352966,0.9541101712270006,1.566847542834323,0.2723968029022217,0.9742461442947388,0.8562820006949514,1.593933185515898,0.09005845338106155,0.9876492619514465,1.0066060595651147,1.0594069728707578,-0.08338500559329987,0.966606080532074,0.7620778254833253,1.0938937505554067,-0.3479677140712738,0.997378408908844,0.0031093358993530273,0.8825952868415159,1.0593231628090582,168.76572767704897,178.57453016431535,1.0,0.008605343190431365,3.325340389082048e-05,0.01754241627155546,0.016706044653093634,96.4383667979054,0.9445516648251053,35,1.1666666666666667
0.9040943297576377,0.56879114409042,-0.2964228093624115,0.9999929070472717,0.9497261748110334,0.7141141001299275,-0.013922369107604027,0.9999945163726807,0.7962519168685354,0.708155382308652,-0.19901618361473083,0.9999955296516418,0.936898774126263,1.058853973116351,0.057053595781326294,0.9999915957450867,0.8405242606627685,1.0652652816955308,-0.05723090097308159,0.9999929666519165,0.9711653638569193,1.3260858489687408,0.0752522274851799,0.9660073518753052,0.8462891592151236,1.34886696125505,-0.07867947965860367,0.9800227880477905,0.9520147752180597,1.5687911440904199,0.2551061511039734,0.9757072329521179,0.8590759863746725,1.5992165621129955,0.07697491347789764,0.9881711602210999,1.0084299567246469,1.05360915338729,-0.06307443231344223,0.9667682647705078,0.7704341874367767,1.098737402612013,-0.31572145223617554,0.9975016713142395,0.003081291913986206,0.8887115173945157,1.0620596274059408,168.18139635909841,178.24062484575845,1.0,0.02534464131954132,-0.005969955678513912,0.13206824356854185,-0.0474448549124777,95.9369216609034,0.9450243133944034,36,1.2
0.9123543905874754,0.568615542777389,-0.14104731380939484,0.9999864101409912,0.9524906127966573,0.7110939487400505,0.11903073638677597,0.9999883770942688,0.8054272008941274,0.7072120292570117,-0.08226218819618225,0.9999954700469971,0.9438994710179976,1.057337682422257,0.0576019212603569,0.999991774559021,0.8487477845347815,1.0622279024026853,-0.057783376425504684,0.9999933838844299,0.9699824294611481,1.3255178575264315,0.04133550450205803,0.9658892750740051,0.8481895883658858,1.3452106129486885,-0.0866151675581932,0.9804216027259827,0.9519255061211828,1.5686155427773891,0.1806192696094513,0.9765748977661133,0.8580816330079886,1.5975302540538328,0.0427093431353569,0.9885767102241516,0.9987626162095261,1.037466635930269,0.035325102508068085,0.8983039259910583,0.7807297990200095,1.0963626951735812,-0.17929494380950928,0.9974523782730103,0.0020089447498321533,0.8963236277763896,1.0597827924124712,170.1968951131633,177.6418837115413,1.0,0.061602254496962536,-0.010690106189509725,0.2689086389064264,-0.035023080573559705,94.36342207605672,0.9389808365745383,37,1.2333333333333334
0.9204426490230503,0.5679236163277394,-0.11745041608810425,0.9999690651893616,0.9517627642944116,0.7079469448912735,0.1360711008310318,0.9999667406082153,0.8111197491891783,0.7061582414340647,-0.08192749321460724,0.9999954700469971,0.9473217541156057,1.0562537543903572,0.059251654893159866,0.9999920129776001,0.8534309015564763,1.0607924463132965,-0.05940891057252884,0.9999938607215881,0.9684187672747978,1.326161184542445,0.04316508024930954,0.9654054641723633,0.852025791662213,1.3435754578817374,-0.09239963442087173,0.9811030030250549,0.9507377963113579,1.5679236163277395,0.20023472607135773,0.9770370721817017,0.8588220364031902,1.5958501251396338,0.03933148458600044,0.9889754056930542,0.9895672675723878,1.014204467334776,0.046457912772893906,0.8141161203384399,0.7900079514550495,1.0947183860628746,-0.16681556403636932,0.9974921345710754,0.0009266436100006104,0.900376327836041,1.058523100351827,171.34782329582245,178.17214034549852,1.0,0.038006108766751784,-0.001181546146563801,-0.17933862764122876,0.07238052349204346,93.4980263700217,0.9381438349829768,38,1.2666666666666666
0.9222665448217587,0.5665630411111796,-0.11591053009033203,0.9999470114707947,0.9490003313913703,0.70408340159613,0.13687527179718018,0.9999532103538513,0.8139157405162533,0.7043560893522949,-0.0937604084610939,0.999995231628418,0.9492719862393678,1.0538854992604665,0.06268875300884247,0.9999920129776001,0.856219929102331,1.0581476226614313,-0.06283427774906158,0.999994158744812,0.9654172590347186,1.3274015330078717,0.050655901432037354,0.9646898508071899,0.8530534917317136,1.3399997991567452,-0.10190925747156143,0.9814817905426025,0.9490883581207383,1.5665630411111797,0.20304778218269348,0.9774409532546997,0.857482429801696,1.5905557763237363,0.03176778554916382,0.9891564846038818,0.9858704474931176,1.0147203759785728,0.04446409270167351,0.7456390857696533,0.7959242591394441,1.0907685840980919,-0.19605806469917297,0.9974571466445923,0.00014162063598632812,0.9027459576708494,1.0560165609609489,172.7159859811227,178.34366389575985,1.0,0.03522629522287748,0.001055045034843168,-0.020474083267408225,0.01703325095786008,92.57802692672811,0.9374170278050536,39,1.3
0.9290285185018511,0.5673555821486596,-0.1397421956062317,0.99993896484375,0.9523627618275279,0.7043262099836798,0.12097586691379547,0.9999508857727051,0.8209707352891205,0.7040832328438508,-0.11761331558227539,0.999995231628418,0.9511179129658526,1.0534144458720636,0.06533674150705338,0.9999921917915344,0.8606090718812826,1.0560637175261312,-0.06548058241605759,0.9999944567680359,0.9625796262434139,1.3277730045911371,0.054046791046857834,0.964043378829956,0.8553882491135036,1.335072191705462,-0.11111336946487427,0.9820457696914673,0.9433790365316388,1.5673555821486596,0.19650094211101532,0.9781895875930786,0.8577710667436907,1.5887201206424837,0.000796352163888514,0.9896140694618225,0.9866070403559026,1.0168806258420682,0.02401043474674225,0.707753598690033,0.805412908451862,1.0876385767566679,-0.2335205078125,0.9975325465202332,0.00012615323066711426,0.9058634924235676,1.0547390816990974,173.02578297159897,178.38977136703858,1.0,0.021760909693906986,-0.01212317196120153,-0.10283695531451206,-0.10056866734666316,91.88093395988467,0.9323679252143491,40,1.3333333333333333
0.9326036270002126,0.566326367615777,-0.1550978720188141,0.9999361038208008,0.957740479917389,0.7043135576057277,0.11955209076404572,0.9999495148658752,0.8275110942331438,0.7008998415195585,-0.12343251705169678,0.999995231628418,0.9536940121281616,1.0525868170954689,0.06705854088068008,0.9999921321868896,0.863017343487874,1.0531772400497186,-0.06721548736095428,0.9999946355819702,0.957239188230956,1.3267271807177752,0.05228289216756821,0.9628565907478333,0.8635032637587504,1.323652324046188,-0.12280569225549698,0.9825541377067566,0.9403683140293017,1.566326367615777,0.1741303950548172,0.978959858417511,0.8592107386085622,1.5819347782808093,-0.019645174965262413,0.9900723099708557,0.9951221565820717,1.0136566423815507,0.011803247965872288,0.6889016628265381,0.8124296707551765,1.085298336520321,-0.24537232518196106,0.9976206421852112,0.0017737746238708496,0.9083556778080177,1.0528820285725937,175.2313792794662,178.94492621735523,1.0,0.02386968474024563,-0.007737167684231679,0.01587071607651231,0.03267584297365819,91.03873481018316,0.9344715331588058,41,1.3666666666666667
0.9394930880042819,0.5663220595921645,-0.1669604331254959,0.9999364614486694,0.9592640564350268,0.704251284440466,0.11142122745513916,0.9999485015869141,0.8350286282292252,0.6983843743764486,-0.13666875660419464,0.9999953508377075,0.9574418455129224,1.0519901077192724,0.07212021946907043,0.9999922513961792,0.8695556566397367,1.0516365743673521,-0.07226864993572235,0.9999948740005493,0.9549802462379297,1.3262006469247387,0.08750835061073303,0.9600759744644165,0.8687746599406622,1.3236561703470977,-0.1128644347190857,0.9830020666122437,0.9345412121869439,1.5663220595921645,0.2226143777370453,0.9791222214698792,0.8592561587155979,1.5817076429448502,-0.005805523134768009,0.9904868006706238,1.001351789028456,1.0130000361907114,0.013325837440788746,0.6657364964485168,0.8238719094293895,1.0867955923957753,-0.2673035264015198,0.9977298974990845,0.003048539161682129,0.9134987510763295,1.0518133410433121,175.649067556708,178.05204406415604,1.0,0.03866902763202639,-0.0077931285984130265,0.11076651717710538,-0.0004203328646704104,90.06975863457345,0.9305592169094749,42,1.4
0.9467137287312647,0.561017018417591,-0.1330527663230896,0.9999380707740784,0.9585874979173865,0.6981582980610761,0.1307695508003235,0.9999483227729797,0.8402181178660663,0.694084463088658,-0.15822060406208038,0.9999956488609314,0.9580124536716726,1.0465469196038304,0.08317708969116211,0.9999926090240479,0.8744133888544525,1.0415980297261467,-0.08332223445177078,0.999995231628418,0.951755382430715,1.3132987483742755,0.07786359637975693,0.9563780426979065,0.8736605901505169,1.2965585079370794,-0.1567407250404358,0.9839962720870972,0.9234914519252779,1.5610170184175909,0.15469644963741302,0.9799169898033142,0.857741563879151,1.568846902257053,-0.1079273596405983,0.9911637306213379,0.9984754840308195,1.0095850805139104,0.05672655254602432,0.6195111274719238,0.8285238178113968,1.0826998901751796,-0.2980082631111145,0.9978607296943665,0.002124190330505371,0.9162129212630626,1.0440724746649885,174.83458079862385,176.82324871337636,1.0,0.045439079324061556,-0.03165225457661106,0.05335389187423165,-0.18458972201524768,86.70673471050594,0.9281433312779409,43,1.4333333333333333
0.9518296278505592,0.5584340211770309,-0.13712893426418304,0.9999422430992126,0.9594420233208466,0.6934424598252921,0.10096406936645508,0.9999508261680603,0.8438572903350003,0.6934297289213768,-0.226705402135849,0.9999959468841553,0.9612453587149117,1.039931707549329,0.08901317417621613,0.9999929070472717,0.8812419607624407,1.0357016220941355,-0.08914594352245331,0.9999955296516418,0.9527683464742333,1.3014700311952818,0.09089034795761108,0.9534950256347656,0.8815270645030372,1.284663068635386,-0.1320909559726715,0.9847211241722107,0.9254851630449148,1.558434021177031,0.17631220817565918,0.9805232286453247,0.8579066135104805,1.5653802992173462,-0.05430787801742554,0.9917301535606384,0.9993257188065309,1.0089769999379439,0.02341272495687008,0.5872520804405212,0.8326545516035773,1.081468822044856,-0.36014121770858765,0.9980096220970154,6.645917892456055e-06,0.9212436597386762,1.0378166648217322,175.79574772311068,175.1246649743996,1.0,0.043615963124102854,-0.036059228023264944,-0.012663577805257367,-0.03178934052694917,86.67517298474796,0.9150977240215644,44,1.4666666666666666
0.9529935406549006,0.5602155635481607,-0.17266109585762024,0.9999451041221619,0.9653838518145599,0.694979729931849,0.08945150673389435,0.9999532699584961,0.8437979894485486,0.6961059242683784,-0.21701936423778534,0.9999961853027344,0.9667119489447891,1.0419533986617562,0.08909523487091064,0.9999932646751404,0.8833423960805463,1.0379486310104045,-0.08922652900218964,0.9999958276748657,0.9544632557220138,1.3015866642575602,0.09996387362480164,0.9454137086868286,0.884733695076792,1.2849061761149452,-0.17772765457630157,0.9855791926383972,0.9279531329279377,1.5602155635481607,0.1797458529472351,0.9804185032844543,0.8609010435514621,1.568003520544124,-0.13262386620044708,0.9922377467155457,1.0060054355892625,1.011393323171846,0.02409491129219532,0.5636839270591736,0.8368536772704527,1.0851384043650811,-0.34763893485069275,0.998115062713623,0.0005868077278137207,0.9250271725126676,1.0399510148360804,176.84851090432673,174.86509381630773,1.0,0.015367228156426927,0.0014132012489621623,-0.21166848863647011,0.2804766079737705,87.03052717298749,0.9152409597041953,45,1.5
0.9579534017025408,0.5625432308815538,-0.20447352528572083,0.9999496936798096,0.9699288180445549,0.6978502798389024,0.08101548999547958,0.9999561309814453,0.8522843589029722,0.6976669095363047,-0.2325955182313919,0.9999964833259583,0.9710546050851984,1.0442692825280087,0.09176719188690186,0.9999933838844299,0.8901849770139393,1.0409046466974745,-0.09188707172870636,0.9999960660934448,0.9566362194007615,1.3059521748010225,0.1258247196674347,0.9343104362487793,0.8865095460034474,1.2920930714055652,-0.14474590122699738,0.985853910446167,0.9298963123767846,1.5625432308815537,0.23906612396240234,0.9786117076873779,0.8632192247282449,1.5716392921000646,-0.06472235918045044,0.9924142956733704,1.0146039915111988,1.014571318465722,-0.005802992265671492,0.5552493333816528,0.8443208486187298,1.0905689368873124,-0.34837692975997925,0.9982301592826843,9.53376293182373e-05,0.9306197910495688,1.0425869646127415,177.20429240114424,176.07571776332549,1.0,0.028037530923629636,0.0028678938808525452,0.09915976306045117,0.011390666593467467,87.43134595711419,0.9147853113544672,46,1.5333333333333334
0.9680974217742961,0.5646078252965607,-0.21931993961334229,0.9999486804008484,0.9776838966317126,0.7002886525078857,0.047495052218437195,0.9999586939811707,0.8580391345347983,0.7037434758712776,-0.26667433977127075,0.9999966621398926,0.9764812737059352,1.0478579508501642,0.09114041179418564,0.9999935626983643,0.8969286011223561,1.044868820352866,-0.09123947471380234,0.9999962449073792,0.9606287365569073,1.3109015496408924,0.13595443964004517,0.9264329671859741,0.8891983411050419,1.2996655661507026,-0.12180075794458389,0.985734760761261,0.931981119682779,1.5646078252965607,0.2663618326187134,0.978026807308197,0.8690459237466898,1.5773997992522688,-0.03089013695716858,0.992617666721344,1.0201215897214218,1.0267218097939403,-0.00017152154759969562,0.5493445992469788,0.854504193823936,1.0953697809558363,-0.3862758278846741,0.9983184933662415,0.0017901957035064697,0.9367049374141456,1.046363385601515,177.00645628826362,177.5876464866617,1.0,0.02323909670257292,0.0020792601754376066,-0.038546153871581036,-0.006288963992326281,88.04641550357815,0.918020959413714,47,1.5666666666666667
0.9763678061759671,0.567729018187438,-0.18724092841148376,0.9999510049819946,0.977295660192064,0.7019629100592869,0.06187920644879341,0.9999616742134094,0.8706217429238877,0.7049134742971751,-0.2715449631214142,0.9999968409538269,0.9807052497853365,1.051492495569771,0.10275238752365112,0.9999936819076538,0.9089582027427342,1.0483093046630862,-0.1028282642364502,0.9999963641166687,0.9636514198357773,1.3146676477660861,0.16946996748447418,0.9143587350845337,0.8962193841332926,1.3115160581024607,-0.10448966175317764,0.9858404994010925,0.934628849743586,1.5677290181874382,0.30748850107192993,0.9760043621063232,0.873495091715688,1.5823422864422017,-0.006701006554067135,0.9927141666412354,1.0277372414306136,1.036473485807409,0.045711223036050797,0.5561805963516235,0.8633359840702055,1.099072088317401,-0.40664610266685486,0.9984265565872192,0.0015248656272888184,0.9448317262640353,1.0499009001164286,177.16516638944773,177.97457093259843,1.0,0.041845135471997676,0.005687489182067143,0.13741511370950957,0.02669623388531947,86.90074148059449,0.9173847559407992,48,1.6
0.9918801986959846,0.5886426916184617,-0.17244784533977509,0.9999527335166931,0.9918684076886707,0.711465236958387,0.07096637040376663,0.9999645948410034,0.8900351979079718,0.713521833793494,-0.2615579664707184,0.9999970197677612,0.9940277964241727,1.0691045255286982,0.10379408299922943,0.9999938011169434,0.9246515523853441,1.0640306566190163,-0.10388535261154175,0.9999964237213135,0.9752283778025531,1.3318951417547586,0.15447022020816803,0.8933815956115723,0.9186206272582406,1.3359489134178162,-0.10122860968112946,0.984530508518219,0.9478605158857556,1.5886426916184617,0.2751116454601288,0.9710772037506104,0.8895660092109948,1.6017768230823561,-0.002334542339667678,0.9919112920761108,1.046659234051495,1.0652363746738502,0.06415850669145584,0.5706439018249512,0.8858265671241032,1.1125728328186928,-0.4092937409877777,0.9984910488128662,0.001050025224685669,0.9593396744047584,1.0665675910738572,178.007397240742,175.03297674920637,1.0,0.022280674282132137,0.028863925328467387,-0.15112342491776598,0.173939685652021,85.47114787196311,0.9034869624610704,49,1.6333333333333333
1.0071597974432198,0.6021704278760245,-0.18130317330360413,0.9999551177024841,1.0049840698084225,0.7207984027704784,0.07081233710050583,0.9999672174453735,0.904087380067195,0.7185032539046708,-0.2776133120059967,0.9999971985816956,1.0049117575442803,1.0819554107739975,0.11142097413539886,0.9999936819076538,0.93824232322581,1.0763825377659337,-0.11151249706745148,0.9999964237213135,0.984507980700634,1.343929082161277,0.17080816626548767,0.8509425520896912,0.9367039799127366,1.3550785968947536,-0.10298635065555573,0.9835625886917114,0.9547519550957327,1.6021704278760245,0.2829635739326477,0.957323431968689,0.9048683878516574,1.6162056023749987,-0.03221866115927696,0.9908007979393005,1.0598492925263685,1.0799754208965366,0.05958215147256851,0.5837210416793823,0.9002013613902563,1.1223608894290718,-0.42656150460243225,0.9985828995704651,0.0011615753173828125,0.9715770403850451,1.0791689742699655,177.88052616221768,173.36528134208925,1.0,0.028926761942436804,0.024468594722722926,0.049418942981579894,-0.03562958329943886,85.23324744896311,0.8996730411055978,50,1.6666666666666667
1.0100870506791326,0.6007982723980148,-0.18678238987922668,0.9999586343765259,1.0044790029677277,0.7256934207643999,0.06419903039932251,0.9999697804450989,0.9073615670204583,0.717494052427111,-0.29757586121559143,0.9999973773956299,1.0056338120959902,1.0897468808036042,0.11666969209909439,0.9999933242797852,0.9415695521914668,1.0820473297627111,-0.1167365089058876,0.9999963641166687,0.9841158451435782,1.3435846564736957,0.17742229998111725,0.7870863080024719,0.9455857374013924,1.3608784408100323,-0.09892518818378448,0.9785904884338379,0.952573885549192,1.6007982723980148,0.2931073307991028,0.917094886302948,0.9070693353706413,1.614584218126221,-0.014037993736565113,0.9851289391517639,1.0630632135646307,1.0855164629711676,0.04584762081503868,0.5936248302459717,0.9041856066265527,1.1221834174773822,-0.4513034224510193,0.9986678957939148,0.004154175519943237,0.9736016821437286,1.0858971052831576,177.85416664284384,170.54233375251312,1.0,0.023629329469773714,0.06071225027310208,-0.040521866255065306,0.2790827101437038,82.96504160808695,0.9290327259970176,51,1.7
1.0199811250841706,0.6020133008437755,-0.15520843863487244,0.999961793422699,1.0144404391544941,0.735937917326552,0.09153388440608978,0.9999721050262451,0.9100536670190235,0.7166638962453307,-0.2777020037174225,0.999997615814209,1.0105139253053654,1.0910487804189912,0.1143820658326149,0.9999932050704956,0.9463097635133865,1.0818130499305945,-0.11446897685527802,0.9999964237213135,0.9849670159200087,1.3427558223519631,0.16826558113098145,0.7268559336662292,0.9522690103412345,1.363269949854982,-0.11571041494607925,0.9757367968559265,0.952611570784226,1.6020133008437756,0.28031930327415466,0.8799004554748535,0.9114513582980036,1.6155598382794956,-0.057074982672929764,0.9813120365142822,1.067219081627663,1.0845699914230578,0.05415169522166252,0.610606849193573,0.9061467851513567,1.1225930250273672,-0.4103093147277832,0.9987627863883972,0.00977247953414917,0.9784118444093759,1.0864309151747928,178.68161026227838,169.59689030412878,1.0,0.042790743232141666,0.010445439931874332,0.14800134744607754,-0.3875423186064698,82.44769217836777,0.9271285197465441,52,1.7333333333333334
1.025636815803121,0.6103141058884541,-0.1447722166776657,0.9999651312828064,1.01683819716185,0.7404074536796945,0.10086663067340851,0.9999743103981018,0.9148454811182877,0.7181691692989487,-0.2631358206272125,0.9999977946281433,1.0129835934185092,1.0937915468389043,0.11484745889902115,0.9999931454658508,0.9532253311960776,1.0844538211305454,-0.11495111137628555,0.9999964833259583,0.989307906275046,1.3434634152090896,0.16688372194766998,0.6806474924087524,0.9662148177832257,1.3659414926217528,-0.14020200073719025,0.9752296209335327,0.9602671373344019,1.610314105888454,0.2179728001356125,0.8534308075904846,0.922609789731743,1.6227561171090472,-0.12086854130029678,0.9796280264854431,1.0708196218943,1.0869056150110792,0.07474450767040253,0.6313851475715637,0.9115533213898449,1.1255409928810522,-0.4060264229774475,0.9988635778427124,0.01124611496925354,0.9831044623072934,1.089122683984725,179.2060709438162,167.72145881856034,1.0,0.01644413669649284,-0.0010886559426072613,-0.20322967760596558,-0.08880446698373014,81.74381521892603,0.9085851316054836,53,1.7666666666666666
1.0285891533390654,0.6122316473720023,-0.153763547539711,0.999968409538269,1.018946148096452,0.7400901201767568,0.09936036169528961,0.9999765157699585,0.9192204335652815,0.7190360582193712,-0.2594081461429596,0.9999979734420776,1.0133459711791974,1.095059392132516,0.11738630384206772,0.9999932050704956,0.9555578593295412,1.0840941097835761,-0.11746708303689957,0.9999966025352478,0.9945367121004464,1.3387684567108542,0.1717592030763626,0.6381409168243408,0.9780671341505293,1.3635604739097793,-0.18154947459697723,0.9765980839729309,0.9617319080511748,1.6122316473720022,0.2639143466949463,0.8261271715164185,0.9329406663993397,1.6307386885418464,-0.18562543392181396,0.979836106300354,1.0727466002550383,1.0861420166914915,0.09745354950428009,0.6565200090408325,0.9172264562100293,1.1264214921422164,-0.4336435794830322,0.9989669322967529,0.01063421368598938,0.9844519152543693,1.089576750958046,177.57274372722492,165.80832927861485,1.0,0.0011184658404907355,-0.006885245254500221,-0.12002980692514938,-0.04532853354093131,80.15972233551882,0.8990583960190952,54,1.8
1.0273120041651147,0.6103617241609463,-0.11940208822488785,0.9999712705612183,1.0164017884120107,0.7373657334608207,0.13688220083713531,0.9999784231185913,0.922233755985099,0.7166194519408012,-0.23056001961231232,0.999998152256012,1.0103893996936604,1.0864929910152308,0.11825080215930939,0.9999933838844299,0.957807831539539,1.0756363826158304,-0.11835336685180664,0.9999967813491821,0.9988243494968537,1.3314657552395444,0.1634114384651184,0.5997382998466492,0.9811858217621467,1.3588338998530982,-0.18422266840934753,0.9777765870094299,0.9716344640616595,1.6103617241609463,0.2670946419239044,0.8031742572784424,0.9408102356820797,1.631979979361758,-0.17103654146194458,0.9800687432289124,1.0710653837111288,1.083696925700738,0.11874040216207504,0.6738128066062927,0.9182046626262431,1.1208602531103604,-0.4194714426994324,0.9990598559379578,0.010495603084564209,0.9840986156165997,1.0810646868155305,177.13466614632904,166.8725339089469,1.0,0.009195063699634758,-0.05068941122462152,0.0605467566832798,-0.3283907177899436,79.32057731433467,0.8739992381513416,55,1.8333333333333333
1.0262063765472424,0.6097236932354467,-0.11380807310342789,0.999973714351654,1.0163096291657343,0.7363738256840351,0.13957479596138,0.999980092048645,0.9238832559163872,0.7157869404167087,-0.21930186450481415,0.9999983310699463,1.0093070469525052,1.0853863497390384,0.1172715425491333,0.9999935626983643,0.9582799750697477,1.0721734572875747,-0.1173722892999649,0.9999969601631165,1.0022792683947002,1.3313565976834316,0.16075044870376587,0.562707245349884,0.9818445619842144,1.3562094948892336,-0.1931322067975998,0.9787209630012512,0.9757306807469491,1.6097236932354466,0.262813001871109,0.7803272008895874,0.9412583136898981,1.6322142565273985,-0.18120183050632477,0.980140745639801,1.0702365177333109,1.0817793870471126,0.09269894659519196,0.6887698173522949,0.9198269976595068,1.1190375985387533,-0.4117397665977478,0.9991376996040344,0.010421901941299438,0.9837935110111263,1.0787799035133065,176.18862236098263,166.8920700070308,1.0,0.002793393700469353,-0.012490987287978846,-0.05104201551531746,0.30458718023034703,76.63217439286854,0.8676977657736189,56,1.8666666666666667
1.0155275298407673,0.591220905532533,-0.16306264698505402,0.9999753832817078,1.0060863072989896,0.7265635869109014,0.10113726556301117,0.9999811053276062,0.9183514207946178,0.7077019084336164,-0.2637787163257599,0.9999984502792358,1.002198168606993,1.0764744859200368,0.11673147976398468,0.9999931454658508,0.9540315420249319,1.062551526412644,-0.11682800203561783,0.9999969005584717,1.0062247902295685,1.3192240965899191,0.1877632886171341,0.5278940200805664,0.9773374492435851,1.3441180075234616,-0.13576196134090424,0.9778040647506714,0.9734728188165519,1.591220905532533,0.30849313735961914,0.7679452896118164,0.9400703159621644,1.6169220307850938,-0.06436820328235626,0.9796581864356995,1.0599922171893017,1.070495569975384,0.07228030264377594,0.6908218264579773,0.9144312571957603,1.1052860521263983,-0.44900602102279663,0.9992071986198425,0.009636402130126953,0.9781148553159624,1.0695130061663405,172.18358687125038,167.4893877977748,1.0,0.024409219359746184,0.004225354643040728,0.160465180878079,0.12310325896236589,74.51426019717414,0.8967576793267095,57,1.9
1.015834058563168,0.588359895203561,-0.1454952210187912,0.9999768137931824,1.0037603647309232,0.7264016151051836,0.1110190600156784,0.9999819993972778,0.9179744386033989,0.7058584828832366,-0.2574640214443207,0.9999985694885254,0.9998179792482368,1.0752341959579748,0.1186479777097702,0.999992847442627,0.9504321275128151,1.0611001623047485,-0.11873497068881989,0.9999969005584717,1.0034780753500696,1.3169994455529117,0.18100714683532715,0.4932229816913605,0.9811868801119096,1.3409842606201772,-0.14587745070457458,0.9775204658508301,0.9701490625349004,1.5883598952035611,0.288832426071167,0.749441385269165,0.9445124353479875,1.6140339047713543,-0.10156819969415665,0.9791010022163391,1.057609626161052,1.067580473726766,0.08169455081224442,0.689812958240509,0.9170499525267054,1.1028902869045327,-0.4345645308494568,0.9992709159851074,0.010514408349990845,0.975125053380526,1.0681671791313616,172.13055360653632,166.07942067088547,1.0,-0.009477911715081042,0.004498464814971766,-0.26151088798979955,0.002169220317893411,74.67659929025176,0.9028789134930824,58,1.9333333333333333
1.0157548332464938,0.5870900323926099,-0.1802254468202591,0.9999783039093018,0.9997593293302922,0.7240329220737896,0.07645512372255325,0.9999829530715942,0.9176387888354615,0.7045544643072494,-0.29508405923843384,0.9999986290931702,0.9977759612369693,1.073809875982828,0.11962773650884628,0.9999918341636658,0.948658454261966,1.0613950820305724,-0.11971579492092133,0.999996542930603,1.0015081292461359,1.3147387101714307,0.1839544177055359,0.45486128330230713,0.9859894333894085,1.3384602017251455,-0.13645587861537933,0.972442090511322,0.9668321991899959,1.58709003239261,0.28390488028526306,0.7147021293640137,0.9514995421677854,1.6112142884334235,-0.07436645776033401,0.9729870557785034,1.0559057449733626,1.0653536815609128,0.0462922528386116,0.6909812092781067,0.9214671437459481,1.1008839024101067,-0.467227041721344,0.999318540096283,0.009988188743591309,0.9732172077494677,1.0676024790067002,171.85662345151388,165.11950967091855,1.0,-0.0006519325625731404,0.011428021549321501,0.07012331866624257,0.05523403933660955,76.14006588091183,0.9071990754652324,59,1.9666666666666666
1.0294244654440101,0.5944038401060919,-0.17444929480552673,0.9999800324440002,0.9997106614700202,0.7271477128781605,0.08293473720550537,0.9999839663505554,0.9243946372666281,0.7060155232362239,-0.28713923692703247,0.9999987483024597,0.9987392150678147,1.075456706405557,0.12064962089061737,0.9999909996986389,0.9518762099062272,1.0630644495027435,-0.12074212729930878,0.9999963045120239,1.0013501882679425,1.3222815056103794,0.17469832301139832,0.4167901873588562,0.993113673140124,1.3407195466831798,-0.13345949351787567,0.9641767740249634,0.9656958353004298,1.594403840106092,0.24985821545124054,0.6656154990196228,0.9527117469405987,1.6164325659333594,-0.07887697964906693,0.9602870345115662,1.0559323216748318,1.0619601786134298,0.05692337825894356,0.6773134469985962,0.9273562973794753,1.1020044914699265,-0.46046513319015503,0.9993551969528198,0.010820120573043823,0.975307712487021,1.0692605779541502,171.92937561935494,163.21558700249184,1.0,0.004733851251246928,0.0005314182156342713,0.039534890479760984,-0.0800978157126822,75.34778113992368,0.8909941452554557,60,2.0
1.0356584090316925,0.6090529918716151,-0.1716139167547226,0.999980628490448,0.9793525405696467,0.7305316686350322,0.07906030118465424,0.9999841451644897,0.9341143225993052,0.7127565040068978,-0.29875853657722473,0.9999987483024597,0.9969843807424711,1.0853767477417455,0.12242619693279266,0.9999898076057434,0.9655187984625344,1.0795690578451989,-0.12254644930362701,0.9999960064888,1.0075939090390524,1.3364833046068667,0.2056514322757721,0.38032013177871704,1.0048692196599165,1.3552020414469226,-0.10295478999614716,0.9486734867095947,0.9717957527990931,1.609052991871615,0.32603025436401367,0.6160332560539246,0.9742454046596516,1.6357222482305676,-0.026866331696510315,0.9426680207252502,1.062395457154286,1.0701693427699936,0.08523010462522507,0.6448973417282104,0.9485072881130603,1.1114606257402628,-0.46246615052223206,0.9993631839752197,0.009033262729644775,0.9812515896025028,1.0824729027934723,170.09846661469558,165.644946008747,1.0,-0.010134329286589824,0.03746245379937761,-0.10811499065019466,0.2678755180382122,76.69783048313938,0.8825076157242825,61,2.033333333333333
1.026450947365967,0.6069951801190109,-0.13690222799777985,0.9999808073043823,0.971310926034934,0.7243246047056492,0.10019252449274063,0.999984085559845,0.93120718494472,0.7081921657992435,-0.2875221371650696,0.9999988079071045,0.9909717276388411,1.0793355907705398,0.12151254713535309,0.9999892115592957,0.9634993385048461,1.076024151858306,-0.12163081020116806,0.9999959468841553,1.0005263986105688,1.3307830121050699,0.1907389760017395,0.3474670648574829,1.0013474685425543,1.3505236593795351,-0.11432900279760361,0.940147340297699,0.9654436097236874,1.6069951801190108,0.3014381527900696,0.571256160736084,0.9762649127817182,1.6340949172693946,-0.07548242062330246,0.9333106875419617,1.054050623320764,1.0645977118678642,0.08043835312128067,0.6067906618118286,0.9528655853503593,1.1046529627406299,-0.45014792680740356,0.9993585348129272,0.008249342441558838,0.9772355330718436,1.0776798713144229,170.58528109783055,167.0947344592373,1.0,0.0146097078217829,0.013518197125368687,0.17683292966773767,-0.16989459543539245,79.95704883549591,0.8717013612335622,62,2.066666666666667
1.0214286412622209,0.6012269367244906,-0.14085060358047485,0.9999797940254211,0.9627261450133828,0.716268799848571,0.10248639434576035,0.9999838471412659,0.9283777827541944,0.7029745556181175,-0.27913612127304077,0.9999988079071045,0.9848448832252872,1.0736551367620124,0.12220009416341782,0.9999891519546509,0.9620488908437168,1.0720958381467243,-0.12230274826288223,0.9999960064888,0.992647277038492,1.3273794128038003,0.2139298915863037,0.3201439678668976,0.9953531697976921,1.348844094840575,-0.1498366892337799,0.940129280090332,0.957666610339699,1.6012269367244907,0.3554348647594452,0.5383179187774658,0.9811717324395376,1.6317672990077448,-0.11939658224582672,0.9330447912216187,1.0413289338519889,1.0566549984418006,0.07811427116394043,0.5684623122215271,0.956347101468433,1.0965189876163783,-0.4556501805782318,0.9993334412574768,0.006848692893981934,0.973446887034502,1.0728754874543684,170.95921353021018,170.26841151303057,1.0,0.026968761868650982,0.024831457279906266,0.0977199915386062,0.08945954927301467,82.54539721026644,0.872055447511223,63,2.1
1.0196006753075206,0.6002027749780026,-0.11126697063446045,0.9999799132347107,0.9592307110070881,0.7086785412344491,0.1198999434709549,0.999984085559845,0.9308581155122337,0.7018326017039274,-0.2607145607471466,0.9999988675117493,0.9844707835013979,1.0736865697196267,0.12332741171121597,0.99998939037323,0.9696528522213453,1.072634415761678,-0.1234094500541687,0.9999961853027344,0.9870508620683175,1.3291123818502402,0.22083230316638947,0.3005114197731018,0.9954051819102839,1.349995290286883,-0.18276333808898926,0.9443113803863525,0.95639742392281,1.6002027749780026,0.3594806492328644,0.5192388296127319,0.9828427088234466,1.635856546475212,-0.1914425790309906,0.9370720982551575,1.0420684065447492,1.0412586481348176,0.0768241286277771,0.5447751879692078,0.9634854698845216,1.095785503531938,-0.45354706048965454,0.9993132948875427,0.003528416156768799,0.9770618178613716,1.0731604927406524,172.96997455820215,172.17912051569584,1.0,0.030851830575242482,0.005956642467239612,0.029536218218227148,-0.14301796617719492,81.98283385573843,0.8714402225202507,64,2.1333333333333333
1.0189206145037195,0.5989858876350609,-0.11265523731708527,0.999980092048645,0.954334276952888,0.7060889305554569,0.12233442068099976,0.9999844431877136,0.9325304799396092,0.7009904742301883,-0.2609027624130249,0.999998927116394,0.9754259845415955,1.073013999631885,0.12581858038902283,0.9999897480010986,0.9649224056425204,1.070994969114204,-0.12589329481124878,0.9999963641166687,0.9813003469024775,1.327873634562753,0.22251875698566437,0.2766128182411194,0.993798238211065,1.3480306742481956,-0.1918688714504242,0.9467554092407227,0.9551503210379804,1.5989858876350609,0.3644307255744934,0.486321359872818,0.9819280020416695,1.6384105771325967,-0.20240524411201477,0.9386290907859802,1.0288307277963962,1.040767032927812,0.09370051324367523,0.5106858015060425,0.9715826652369436,1.0944257720698198,-0.45012855529785156,0.9992154836654663,0.00263097882270813,0.9701741950920579,1.0720044843730445,173.17020176269997,171.70861449976147,1.0,-0.04406106579627785,0.001219633978592696,-0.5796305927444639,-0.03661414458650114,75.82927228451133,0.8698103963306817,65,2.1666666666666665
1.0193236009246263,0.5984435891130229,-0.11926029622554779,0.9999805688858032,0.9524021710115326,0.7042077913739148,0.11982607841491699,0.9999849796295166,0.9333154835074943,0.7009442411590384,-0.2647365927696228,0.9999989867210388,0.9724728316084885,1.073054733236239,0.12768080830574036,0.9999901056289673,0.9632933171187471,1.0704999023302337,-0.1277512013912201,0.999996542930603,0.9781891257375107,1.327501710159209,0.2332977056503296,0.2553038001060486,0.9930998316661723,1.347822449241314,-0.19318291544914246,0.9493066072463989,0.9543343174604036,1.5984435891130229,0.3837156891822815,0.4583600163459778,0.9808488152279147,1.6400954282407842,-0.19984610378742218,0.9405499696731567,1.026890741454704,1.0415725600328387,0.09366562962532043,0.483815997838974,0.9727705468404048,1.0941816592981761,-0.46253466606140137,0.9991353154182434,0.001684427261352539,0.9678830743636179,1.0717773177832364,173.6814591158364,171.46519764345632,1.0,-0.016349542835228142,-0.00016728054305299806,0.21516735004993023,-0.01077022765996595,71.33246291822576,0.8696361013089977,66,2.2
1.0197357212323885,0.5996128818388043,-0.09276722371578217,0.9999806880950928,0.9506852587873118,0.7043029619185859,0.13461934030056,0.9999854564666748,0.9347010306275517,0.7015323831762414,-0.2521892488002777,0.9999990463256836,0.9697852032832688,1.0739843927531738,0.12868277728557587,0.9999904036521912,0.963170316502501,1.070668020401261,-0.12874649465084076,0.9999967217445374,0.9780223870159839,1.328515624006689,0.2292066365480423,0.23541490733623505,0.9934704729355952,1.3472633224151493,-0.21403081715106964,0.951984167098999,0.9540905162060941,1.5996128818388042,0.3691670298576355,0.4307817816734314,0.9819964395115737,1.643463271973741,-0.25052422285079956,0.9428925514221191,1.0183188770845513,1.0471510428911481,0.09104550629854202,0.45554444193840027,0.9762005321083145,1.093614469055629,-0.45728355646133423,0.9990304708480835,0.0014287233352661133,0.9664777598928849,1.0723262065772174,173.10156305278727,171.52996968959755,1.0,-0.016979311931874182,-0.003002128524033396,-0.004618180986958766,-0.021276248271791424,60.41549922935592,0.8661509616029033,67,2.2333333333333334
1.022784276065127,0.6002698688076058,-0.12973813712596893,0.9999785423278809,0.9504131390279461,0.7048392899098685,0.11298229545354843,0.9999855160713196,0.939830324064048,0.7020236748755135,-0.282986581325531,0.9999990463256836,0.9689177265027558,1.0745733192458131,0.13142919540405273,0.999990701675415,0.9680074657458081,1.0710812395437257,-0.131491020321846,0.9999968409538269,0.9784343780986439,1.3289863722266206,0.2626178562641144,0.21926988661289215,0.9966737113906113,1.347705672755909,-0.20321139693260193,0.9549199938774109,0.9527894394717076,1.6002698688076058,0.42472028732299805,0.41627514362335205,0.9841998833390476,1.6459872686088068,-0.21131916344165802,0.9459183812141418,1.0092841277089886,1.0698590000825197,0.10812847316265106,0.4281550943851471,0.9860249153884262,1.0947879201151782,-0.45435500144958496,0.9988245964050293,0.0014510750770568848,0.9684625961242819,1.0728272793947695,172.45754566913809,171.68897287926535,1.0,0.010791689134857795,-0.0011042865421621738,0.213573732428772,0.014603924630445258,11.744695735875727,0.8643768476728112,68,2.2666666666666666
1.0212453306989209,0.5921070506841883,-0.18304376304149628,0.9999741315841675,0.9544061475302067,0.6993488828345275,0.07272948324680328,0.9999857544898987,0.9379559723294625,0.6981656297666516,-0.318326473236084,0.9999989867210388,0.964574563154694,1.068670164294608,0.1315704584121704,0.9999909400939941,0.9641144155771895,1.06561663026397,-0.13161936402320862,0.9999969601631165,0.9732529222996193,1.3222072790778083,0.27975520491600037,0.20411184430122375,0.9918121120255947,1.3407952388161324,-0.2009868174791336,0.957377016544342,0.9471683604436036,1.5921070506841883,0.45517510175704956,0.4062183201313019,0.9810444170438847,1.6379068389023734,-0.1796642392873764,0.9487307071685791,1.0138255445142001,1.063863270631393,0.09259121119976044,0.4109722971916199,0.991128996852388,1.0905857787412279,-0.4748958647251129,0.9986181855201721,0.0006128549575805664,0.9643444893659417,1.067143397279289,172.5193525414714,172.1767737479037,1.0,0.005226614775047987,-0.0026559709787514923,-0.04148746603131317,-0.011721620806154881,6.9925094770535,0.8732654896710007,69,2.3
1.023641174829093,0.5917143271645662,-0.1209605485200882,0.9999695420265198,0.9536856860722516,0.6955304234913378,0.1047210842370987,0.9999856352806091,0.9401311157964514,0.6947341443826298,-0.28295260667800903,0.999998927116394,0.9645179110185697,1.0667919353394684,0.1306162029504776,0.9999910593032837,0.967204260484241,1.064180337667653,-0.13067303597927094,0.9999970197677612,0.9715567699335865,1.321558009088323,0.25637128949165344,0.19565722346305847,0.9923611141858377,1.3398950841322814,-0.19442880153656006,0.9600340723991394,0.9461413900280072,1.5917143271645662,0.4079280495643616,0.40294715762138367,0.9835240721189207,1.63582214064182,-0.1991291344165802,0.9513684511184692,1.0132887413965717,1.0670824323106693,0.11601980030536652,0.3971235752105713,0.9976016749461946,1.0898844895030368,-0.43993839621543884,0.9985204935073853,0.0004127025604248047,0.9658610857514053,1.0654861365035608,173.04302135015902,173.0761639452126,1.0,0.016574318004534495,-0.007202893834774786,0.08692954083939473,-0.03483477604570516,47.479599274649,0.8705001480752018,70,2.3333333333333335
1.0167358564073166,0.5779470286036328,-0.1231398954987526,0.9999597668647766,0.950806818390413,0.6851968273394164,0.10366133600473404,0.9999850988388062,0.9341719788904308,0.6867225132824122,-0.28058427572250366,0.9999988675117493,0.9583537846964858,1.0558762595331856,0.13010653853416443,0.9999910593032837,0.9597879739485833,1.0548101093069067,-0.1301743984222412,0.9999970197677612,0.9631695320237849,1.311397158460525,0.2541009187698364,0.18763290345668793,0.9858566068420827,1.3295885248441734,-0.19105178117752075,0.9624789357185364,0.937976873056978,1.5779470286036328,0.407245010137558,0.4039454758167267,0.9769974468717766,1.6228821081384852,-0.18847720324993134,0.9543302655220032,1.0071468891866189,1.0570298589331952,0.10637961328029633,0.3831349015235901,0.9951588274240153,1.080606133368085,-0.44448423385620117,0.9984599947929382,0.0007975995540618896,0.9590708793225345,1.055343184420046,173.521079620502,172.85034844321996,1.0,0.011816591631937615,-0.007731623489024075,-0.03613623658531824,-0.004624366498504925,54.53992863477916,0.8822010019993606,71,2.3666666666666667
1.014268701443188,0.5714597582602825,-0.12168411910533905,0.9999545812606812,0.9464278282573216,0.6802505231296996,0.10400271415710449,0.9999843239784241,0.9349573845530609,0.6831215122912414,-0.2821429371833801,0.9999987483024597,0.9548383287216161,1.0494158633421422,0.13003009557724,0.9999907612800598,0.9587886499236774,1.0494744572751153,-0.13010023534297943,0.9999969005584717,0.9597125263552048,1.3060854511888975,0.25508007407188416,0.17845024168491364,0.9810234577290479,1.3244063886691144,-0.18014106154441833,0.9631847143173218,0.9339020124347454,1.5714597582602825,0.40054231882095337,0.3958870768547058,0.9738175395147094,1.6163804108899549,-0.17914822697639465,0.9551138281822205,1.001703368782095,1.0568086916604993,0.11392766237258911,0.36443182826042175,0.9952864246884855,1.0760514615978372,-0.4259181022644043,0.9983280897140503,0.0015069842338562012,0.9568134893226468,1.0494451603086288,173.35691457477225,173.9625591420745,1.0,0.01222226654071344,-0.012376886351468504,0.0034297798351416533,-0.03537604952160459,92.15490278959061,0.8841865228068051,72,2.4
1.0135537648037758,0.5680973122638707,-0.12268567085266113,0.9999531507492065,0.9443532417598723,0.6728784360153606,0.10192219913005829,0.9999837875366211,0.9376444357149637,0.6768168401650959,-0.29024243354797363,0.9999987483024597,0.9539083418117282,1.0459430455753653,0.13007798790931702,0.9999907612800598,0.9594206011063031,1.0465786136935196,-0.13015185296535492,0.9999969601631165,0.9576244500370512,1.3029029752199794,0.25202953815460205,0.1714155375957489,0.9780343308728431,1.3214178186975962,-0.15841928124427795,0.9641586542129517,0.9310361584002034,1.5680973122638708,0.3969261348247528,0.3931671679019928,0.971094960061493,1.6129112644509342,-0.14172720909118652,0.9563063979148865,0.9993534445164098,1.0564355264794374,0.12107278406620026,0.34309712052345276,1.0009502372024943,1.0735272229535806,-0.4287673830986023,0.9983161091804504,0.0020724236965179443,0.9566644714590157,1.0462608296344424,173.44613415404154,174.76176790588548,1.0,0.01701133646152302,-0.004387638976093829,0.036766923108318986,0.06071401970383871,98.04437234811125,0.8847302559156135,73,2.433333333333333
1.0159860264543565,0.5669921451725563,-0.16474884748458862,0.9999558925628662,0.9483056125048767,0.6727784986882963,0.07922116667032242,0.9999841451644897,0.9403623212562788,0.6749330422951507,-0.3158072829246521,0.9999988079071045,0.9550578402164833,1.0406964631401097,0.13003399968147278,0.999990701675415,0.9577778616696635,1.0429475075705037,-0.13010656833648682,0.9999969601631165,0.963317857921696,1.300706470926396,0.24481233954429626,0.16059577465057373,0.9769994673494133,1.3194499305901555,-0.13838045299053192,0.9609540700912476,0.930058127455005,1.5669921451725561,0.3810563087463379,0.37578392028808594,0.9698550104840645,1.6116767241654986,-0.1104688048362732,0.9529045820236206,1.0079421026754047,1.0559663459462267,0.09736984968185425,0.3244902193546295,1.0045341803370036,1.073108401327738,-0.46244630217552185,0.9983265995979309,0.0011344850063323975,0.9564178509430734,1.0418219853553068,171.06092275498426,174.62286254999208,1.0,0.003024885631325656,-0.029755556222912757,-0.11083258942344254,-0.20120602826716424,130.66199546827187,0.8739832981424253,74,2.466666666666667
1.020837158968417,0.5692616961031639,-0.1840677112340927,0.9999584555625916,0.9524128484680227,0.6743587876761905,0.06200268864631653,0.9999843239784241,0.9466826821609019,0.6759348596212656,-0.33140936493873596,0.9999988675117493,0.9600100852286811,1.040902457991198,0.12994280457496643,0.9999904632568359,0.9589430906976514,1.04286375167674,-0.13001683354377747,0.9999969005584717,0.9716605640645738,1.3019709539748123,0.22767099738121033,0.15275834500789642,0.9780737496511955,1.3209070473368338,-0.1232788935303688,0.9570359587669373,0.9333504064545464,1.569261696103164,0.3575894236564636,0.3619951903820038,0.9700530466031052,1.6135927352358344,-0.08665205538272858,0.9494161009788513,1.0113824270556089,1.0628173199637951,0.08375777304172516,0.3090636730194092,1.0114731941137394,1.0746054791687618,-0.4726923406124115,0.998374879360199,0.0008290112018585205,0.9594765879631663,1.0418831048339692,169.28828563383192,174.4942600498363,1.0,0.01563366753204365,-0.007948589094230492,0.0962671379721239,0.1667772265313122,150.26528309462356,0.8671526920588665,75,2.5
1.0220991668446597,0.5690697373321172,-0.202877014875412,0.9999613165855408,0.9480020772264384,0.6697764518150274,0.03661992400884628,0.9999845027923584,0.955124337009953,0.6770921531687154,-0.3620355725288391,0.9999988675117493,0.9609093070653909,1.0387539865395772,0.1313927173614502,0.999989926815033,0.9657828085956397,1.042380788936232,-0.1314724236726761,0.9999967813491821,0.9739372108416053,1.3007046370294277,0.25177228450775146,0.14779119193553925,0.9798875825213054,1.3203002453835833,-0.10132157802581787,0.956627368927002,0.935130436549604,1.5690697373321172,0.3884834945201874,0.3544560372829437,0.9712263043300204,1.6162866222837082,-0.06400971114635468,0.949214518070221,1.011244869725787,1.0654836609702627,0.07529959827661514,0.2957015931606293,1.0187573047890468,1.0768431312037317,-0.46690884232521057,0.9984245896339417,0.003841102123260498,0.9633460578305153,1.0405673877379047,168.92460019693056,175.41852242015332,1.0,0.015658615496507457,-0.023467522496041993,-2.4329870843217694e-05,-0.11372588535554956,128.65963920129096,0.8604467890010143,76,2.533333333333333
1.0218706508728272,0.5675999020146881,-0.21064718067646027,0.9999639987945557,0.9456790095422138,0.6678905368953587,0.03212583810091019,0.9999847412109375,0.9570835120410948,0.6772301380338276,-0.36861610412597656,0.9999988675117493,0.961037327237731,1.0366578038971017,0.13241033256053925,0.9999895691871643,0.9687892938273511,1.0408249613891887,-0.13248798251152039,0.9999967217445374,0.9749281928323688,1.299312030705849,0.25233301520347595,0.14387914538383484,0.9799197667200211,1.3190862160042487,-0.10877998173236847,0.9569512009620667,0.9355430364717113,1.5675999020146882,0.389662504196167,0.34873682260513306,0.9708875192770205,1.6164821967330472,-0.07714290916919708,0.9495910406112671,1.011308560913114,1.0678865062133531,0.06853596866130829,0.28274568915367126,1.0200969237096922,1.0773579276844556,-0.4719880521297455,0.9984403252601624,0.004902958869934082,0.964913310532541,1.0387413826431453,168.62117264744464,175.96978333827346,1.0,0.011847338077346508,-0.016727166751105804,-0.0319985549061554,0.056584670038300394,120.64561660365162,0.8575175569174884,77,2.566666666666667
1.0208888851955598,0.5605478058770401,-0.2313874512910843,0.9999658465385437,0.9448794375843683,0.6646207130978056,0.018293138593435287,0.9999850392341614,0.9564283457505507,0.6732929513021557,-0.38134199380874634,0.999998927116394,0.9576634251485524,1.032478891069649,0.1326497495174408,0.9999895095825195,0.9648753662543498,1.0364562673184865,-0.13271087408065796,0.9999967217445374,0.9718064636010264,1.2936175711865157,0.27024418115615845,0.13932648301124573,0.9756869464917454,1.3135345266818812,-0.09528391808271408,0.9570002555847168,0.9318520860139412,1.5605478058770401,0.43104687333106995,0.34541478753089905,0.9660651081533952,1.6097339044953713,-0.041255366057157516,0.9501775503158569,1.0069550097681959,1.0687479857459357,0.05487142130732536,0.2691876292228699,1.0192111716119872,1.0758901681563313,-0.4831697344779968,0.9984479546546936,0.0045719146728515625,0.9612693957014511,1.0344675791940676,168.38705209080703,175.9048943236631,1.0,0.00320465291403586,0.0008266120670578856,-0.06420314367472248,0.1306315345343396,120.86704906168875,0.8671824122733762,78,2.6
1.0236439836263769,0.5605983570450177,-0.20406019687652588,0.9999676942825317,0.9457299099387331,0.6646834757030663,0.0354885496199131,0.999984860420227,0.9608006895062792,0.672834229236384,-0.36085647344589233,0.999998927116394,0.9577139647097862,1.0332360955586146,0.13245435059070587,0.9999893307685852,0.966276866477897,1.037745895018299,-0.1325182318687439,0.9999967217445374,0.9739810553326977,1.2946644209937137,0.2663801610469818,0.13765966892242432,0.977067327281247,1.3153064756010622,-0.07784353196620941,0.9568021297454834,0.9335002983701889,1.5605983570450177,0.4146128296852112,0.34433531761169434,0.9665456317325045,1.611805043978894,-0.029513195157051086,0.9506725072860718,0.9996612697380852,1.0684192108513235,0.06235506385564804,0.2510906457901001,1.0225655262483688,1.077563229743234,-0.4564546048641205,0.9984536170959473,0.004291266202926636,0.9619954155938416,1.0354909952884568,167.78423922480255,175.7413134908708,1.0,-0.004021744646779065,-0.0025795089165659584,-0.052218461479352794,-0.024606280485852432,119.63670903102123,0.869354125361044,79,2.6333333333333333
1.0294751049977628,0.5670090690094135,-0.19555458426475525,0.9999683499336243,0.9512920111868741,0.6678916926827632,0.04505714029073715,0.9999844431877136,0.9669451635076843,0.671949692042571,-0.3511500656604767,0.999998927116394,0.963465156434869,1.0380572045209162,0.13266177475452423,0.9999891519546509,0.9703259010021906,1.0423453546556352,-0.13273729383945465,0.9999966621398926,0.9822910122369939,1.3006374062098636,0.26408010721206665,0.1364079713821411,0.9823077277329978,1.3231260024322753,-0.07601595669984818,0.9559252262115479,0.9389527343765547,1.5670090690094136,0.4136296212673187,0.3433496057987213,0.9706880700822755,1.6187986789072615,-0.015449886210262775,0.9501347541809082,1.005535330816154,1.0728159982079168,0.06544089317321777,0.2400328814983368,1.0305269304265805,1.0823924991770177,-0.45483285188674927,0.9984803199768066,0.0021271109580993652,0.9668955287185298,1.0402012795882758,166.65819107909624,175.30597250933346,1.0,0.0050739746097898455,0.001131138056985919,0.06995054038187579,0.028568447482510414,123.89002484974938,0.8633880637285848,80,2.6666666666666665
1.0314200714097188,0.5678090150245857,-0.15161125361919403,0.9999682903289795,0.95434971368165,0.6685479124704551,0.07802824676036835,0.9999839067459106,0.9720495745657479,0.6715419830577477,-0.32638227939605713,0.999998927116394,0.9644247757192843,1.0390438459224518,0.1334981620311737,0.9999892115592957,0.971919484181954,1.043708206472446,-0.13357144594192505,0.9999967217445374,0.9852472041664433,1.3016562679720776,0.2766605615615845,0.1370747834444046,0.984967105798537,1.3244552052599765,-0.09430916607379913,0.9579319357872009,0.9400393731123095,1.5678090150245858,0.4323044717311859,0.3478468656539917,0.9713461987373607,1.6202925747527457,-0.050432704389095306,0.9523110389709473,1.0063344797904077,1.073635823636592,0.08845868706703186,0.22796382009983063,1.0346147406859325,1.0837161780651678,-0.4405997395515442,0.998501181602478,0.0015679895877838135,0.9681721299506192,1.041376026197449,165.8264602356561,174.70296930948894,1.0,0.0032084171513813643,0.0018269312808895772,-0.015296822105201778,0.005682606123258403,123.45391357758166,0.8642488426574646,81,2.7
1.0397214460891502,0.572556868152113,-0.09940038621425629,0.9999690055847168,0.9610465755600842,0.674258786220468,0.11176317930221558,0.9999803304672241,0.9868617907679919,0.6772110380241309,-0.29043048620224,0.999998927116394,0.969676058087276,1.0483919066059963,0.13342133164405823,0.9999887347221375,0.9823200061891686,1.0542157168611457,-0.13349857926368713,0.9999967813491821,0.9965151491151165,1.3117223221228114,0.2882838845252991,0.15333019196987152,0.9950010296150341,1.3365571647547048,-0.07417946308851242,0.9612319469451904,0.9484167459252153,1.5725568681521132,0.4380088746547699,0.37792763113975525,0.9794712898103465,1.6340317727491547,-0.04548534378409386,0.9563028812408447,1.00183356416453,1.088444161003784,0.1398504376411438,0.20943355560302734,1.0466939026817512,1.0929772219769665,-0.3857891261577606,0.9985998272895813,0.0015330314636230469,0.9759980321382223,1.051303811733571,163.7323272806237,174.43992962716865,1.0,-0.003142765989198259,0.007904519643410633,-0.04766432636498126,0.045299357135732105,116.05213489195964,0.8747477647804001,82,2.7333333333333334
1.042536939570847,0.5744737833220093,-0.024335214868187904,0.9999685883522034,0.9535307343193711,0.6764329746370291,0.14425992965698242,0.9999774694442749,0.9957263407300557,0.6791899494569009,-0.25665947794914246,0.999998927116394,0.9634152912880425,1.0547734656616767,0.13339313864707947,0.9999880194664001,0.9881959405475815,1.0601744627528897,-0.13347426056861877,0.9999967217445374,1.0005723619966833,1.3157363395061152,0.28753238916397095,0.1679660975933075,0.9983105476609668,1.3431203665419582,-0.05685364454984665,0.9638320803642273,0.9513597080412658,1.5744737833220093,0.4301961064338684,0.39749181270599365,0.9824391601995288,1.6399522951071281,-0.02526363730430603,0.9592366218566895,0.9745724354561389,1.0797364394478197,0.17042860388755798,0.19232133030891418,1.054698279102869,1.0963655646481782,-0.3326352834701538,0.9986525774002075,0.0014272034168243408,0.975805615917812,1.0574739642072832,161.1272418494735,174.89204207606124,1.0,-0.023765296034431223,0.021486804679476185,-0.1521884603109912,0.10009985671274706,103.79203116562772,0.8868252703386196,83,2.7666666666666666
1.0402081045965548,0.5733550085970937,0.008159290999174118,0.9999697208404541,0.9419622633443419,0.6752627451539214,0.16535818576812744,0.9999747276306152,0.998448133243574,0.6779507015692655,-0.22356191277503967,0.999998927116394,0.9546562782916319,1.0580371046009218,0.1314806193113327,0.999986469745636,0.9893063233743724,1.0612495515284348,-0.1316043734550476,0.9999964237213135,0.9942671486218104,1.3178581434736671,0.2858063578605652,0.1825943887233734,0.9962967338399118,1.346326923072503,-0.032345887273550034,0.965116560459137,0.9511015449945976,1.5733550085970935,0.3988513648509979,0.4111664891242981,0.9803293074128069,1.636853755634768,0.019592400640249252,0.9603474736213684,0.9525870460037018,1.0687606601777246,0.2048325538635254,0.17697377502918243,1.0559878682264705,1.0920858932507815,-0.296067476272583,0.9986981749534607,0.0013941526412963867,0.9719813008330022,1.0596433280646782,161.74231435970202,175.44950073149087,1.0,-0.014595009607874984,0.031441492607838656,0.06829732477938343,0.07481913708519432,97.196232649494,0.9001871158390601,84,2.8
1.0361686837366042,0.5752633070784983,-0.007167712785303593,0.9999708533287048,0.9320705817006376,0.6744496076090348,0.15501658618450165,0.9999703764915466,0.9967485233444708,0.6757149933146085,-0.2334405481815338,0.9999988675117493,0.9477232162029839,1.0603289727974712,0.12968388199806213,0.9999854564666748,0.9885755678288082,1.0623495357446553,-0.12983869016170502,0.9999962449073792,0.9844703079861081,1.3209121908901162,0.2841416597366333,0.19140061736106873,0.9928450563892014,1.3487987768739853,-0.022357862442731857,0.9646567702293396,0.947997617881919,1.5752633070784983,0.39701125025749207,0.4157465100288391,0.9769195662941744,1.631491142929948,0.05342014878988266,0.9591450691223145,0.9480665046139222,1.0566108071429186,0.1970692276954651,0.1606142520904541,1.0576995954407635,1.0884088768255986,-0.28442472219467163,0.9985947608947754,0.000658571720123291,0.968149392015896,1.0613392542710633,163.81285234596632,175.92172429688281,1.0,-0.003923437486773264,0.041965565249217546,0.08362560174895882,0.08370741143906937,95.15439612964975,0.9054407080553414,85,2.8333333333333335
1.0374268899896593,0.5775552640927478,-0.0032150219194591045,0.9999725222587585,0.9314484215943515,0.6754847798850605,0.1583743393421173,0.9999677538871765,1.0009667733163685,0.6766938485421343,-0.2288772314786911,0.9999988675117493,0.9440563221424917,1.0642581462491465,0.12913450598716736,0.9999848008155823,0.9911242847815362,1.066757813136054,-0.12929876148700714,0.9999961853027344,0.9800532338802503,1.3252908404105055,0.28315895795822144,0.20521986484527588,0.9939457125420921,1.3541473784056943,-0.025834817439317703,0.9657920598983765,0.949174854215721,1.577555264092748,0.39150968194007874,0.42829805612564087,0.977998252904964,1.6335363813391537,0.04067722707986832,0.9596462845802307,0.924444733155199,1.046251921563735,0.22102506458759308,0.14703303575515747,1.064558808049113,1.0915850014024004,-0.2887161672115326,0.9986345171928406,0.0006284713745117188,0.967590303462014,1.0655079796926004,165.1697590313072,176.17063563442088,1.0,-0.013405883436022554,0.02139384955324843,-0.07153307536691694,-0.15566654884999342,94.89743415237143,0.9127316711764885,86,2.8666666666666667
1.034062190295562,0.575573130700013,0.04321456700563431,0.9999733567237854,0.9253831190644064,0.6741006885215652,0.17638446390628815,0.9999664425849915,1.0028817616341623,0.6751448788316554,-0.2053941786289215,0.9999988675117493,0.9388530939886245,1.0623152712318076,0.1279689520597458,0.9999841451644897,0.9902417738697666,1.0642512787699283,-0.12811021506786346,0.9999961256980896,0.9760178839325502,1.3230349949606492,0.2597096562385559,0.22101454436779022,0.9918185836018308,1.3527766876963254,-0.03587300702929497,0.967513918876648,0.9473132318691047,1.575573130700013,0.3698883652687073,0.44127321243286133,0.9757022703188847,1.630620880843392,0.0190139077603817,0.9607117772102356,0.904573897884754,1.0337103137186736,0.24294066429138184,0.13729062676429749,1.066140842260514,1.0893185954702296,-0.2883101999759674,0.9987198114395142,0.0005440711975097656,0.9645474339291956,1.063283275000868,165.40264595639067,176.36716420954656,1.0,-0.005491747476879643,0.00248077281906371,0.05969301805520706,-0.14284650701807564,94.14473841288164,0.9125920975445831,87,2.9
1.031167288289709,0.5738982724539367,0.04822384938597679,0.9999738931655884,0.9228365651146664,0.6729106448897059,0.1767786145210266,0.9999651312828064,1.002545832114847,0.6739747102210449,-0.2025088369846344,0.9999988675117493,0.9359026387929547,1.0607743052173515,0.12696264684200287,0.9999836087226868,0.9889811544477953,1.0624531042194811,-0.1270914375782013,0.9999960660934448,0.973177240729066,1.321016811855413,0.2548316419124603,0.2342192530632019,0.9902204419984765,1.3508150944835433,-0.0351245179772377,0.9689314365386963,0.9459044646667164,1.5738982724539368,0.368949294090271,0.4520508348941803,0.974004764628429,1.6280820754806393,0.022092025727033615,0.9614486694335938,0.9006607059519944,1.0272893333916455,0.2448037564754486,0.12804755568504333,1.0657024515466886,1.0877581844306066,-0.28299129009246826,0.9987964630126953,0.0005554258823394775,0.962441896620375,1.0616137047184164,165.69350084867767,176.4066898119562,1.0,-0.0027349639210271772,0.0017893467771498619,0.020256167257918668,-0.005065795452544335,93.74099084469222,0.9131410430401026,88,2.933333333333333
1.030915517260268,0.5736142760109116,0.030126329511404037,0.9999750852584839,0.9223004926288266,0.6725640504205056,0.16800890862941742,0.9999647736549377,1.0042988620967948,0.6744282410704178,-0.21498998999595642,0.999998927116394,0.9349490983687376,1.0605881646746056,0.12706983089447021,0.9999828934669495,0.9879781357157725,1.0619823562922468,-0.1271982491016388,0.9999959468841553,0.9728138911104051,1.3227683119885187,0.25443199276924133,0.2444470375776291,0.9895244479380069,1.351227304016623,-0.03312310203909874,0.9697682857513428,0.9454010848607018,1.5736142760109115,0.3680174648761749,0.4592466652393341,0.973384029550426,1.6280400155932178,0.029807111248373985,0.9611532688140869,0.902539478321045,1.0250480897395167,0.23151960968971252,0.11987481266260147,1.067165184032837,1.0879397460898272,-0.2935055196285248,0.9988706707954407,0.0009736716747283936,0.961463617042255,1.0612852604834262,165.5453885291238,176.35666927674686,1.0,-0.0029896051205105267,0.0024192356575161137,-0.0019520336592608923,0.004805550927238095,93.3730585536092,0.9129713719364317,89,2.966666666666667
1.0296710541491798,0.5708394502636961,0.006370839662849903,0.999976634979248,0.922166901281501,0.6714076804628543,0.1579313576221466,0.9999646544456482,1.0043833436472729,0.6732715939863799,-0.2280324250459671,0.999998927116394,0.9335877786508,1.060840928294435,0.12712402641773224,0.999982476234436,0.9870007908461199,1.0619149070079446,-0.12725625932216644,0.9999958872795105,0.9697920704078027,1.3216152170526587,0.2591160833835602,0.2535931169986725,0.9877038664315867,1.3495171339075915,-0.031062766909599304,0.9705955386161804,0.9433057026071152,1.570839450263696,0.3728492856025696,0.4667673110961914,0.9707740068217241,1.6252083126271384,0.03177681565284729,0.961212694644928,0.9094071957599029,1.027006156183138,0.22336694598197937,0.11164046823978424,1.0672442472850796,1.0878167264666323,-0.29933053255081177,0.9989041090011597,0.0009752810001373291,0.9602942847484599,1.06137791765119,166.02957955206287,176.3458830991175,1.0,0.004244689763002426,0.015173362521072459,0.05480493036319875,0.09672643878207964,92.83172175084304,0.923158485304724,90,3.0
1.029069291714763,0.5695040160855096,0.006926825735718012,0.9999781250953674,0.9214295054340831,0.6725891964289678,0.15605011582374573,0.9999656081199646,1.0058886730786105,0.6727797042894654,-0.2294371873140335,0.9999989867210388,0.9318960573635783,1.0621933053899044,0.12717968225479126,0.9999822974205017,0.9864610820550586,1.0630252124748736,-0.1273164302110672,0.9999958276748657,0.9678889555400858,1.3214209018532863,0.261403352022171,0.2618095576763153,0.986382671113671,1.3490275848326154,-0.02265404723584652,0.9713633060455322,0.9414063713612743,1.5695040160855096,0.3743650019168854,0.4777209162712097,0.9677218912992193,1.6234221789615364,0.0458158478140831,0.9617664217948914,0.8964402001629901,1.0250580428742833,0.2160840928554535,0.10808353871107101,1.0682817044512947,1.0892627197853566,-0.3056351840496063,0.9989566802978516,9.97781753540039e-05,0.9591785697093185,1.062609258932389,166.00202518510866,176.12517914914397,1.0,-0.001446078123297711,0.01711444476249445,-0.043178468451181395,0.014849481702178882,92.4123300310942,0.9328644026596397,91,3.033333333333333
1.0287822016822323,0.5689569458070693,0.0076844217255711555,0.9999791383743286,0.9193757178429127,0.6727608420445258,0.1524423062801361,0.9999666810035706,1.007550888350513,0.6725745555517129,-0.23013277351856232,0.9999989867210388,0.9288356019141264,1.064637601954171,0.12696613371372223,0.9999825358390808,0.9862499522196476,1.0660261900038042,-0.12710174918174744,0.9999958872795105,0.9605284233939886,1.3212641680121007,0.27838414907455444,0.2759655714035034,0.9849307594436729,1.3505644452291545,-0.007389746606349945,0.9722640514373779,0.9359107913518472,1.5689569458070693,0.4100310206413269,0.4929334223270416,0.9658630997344323,1.6233063002717565,0.07409243285655975,0.9623505473136902,0.8952066522991906,1.0255907016704011,0.21568338572978973,0.10329031199216843,1.0693733174490205,1.093725939179707,-0.2901603877544403,0.9989258050918579,9.760260581970215e-05,0.9575427770668871,1.0653318959789875,167.28388372869034,176.2665368545252,1.0,-0.009601786318051388,0.023162486475645512,-0.06079133732697989,0.04512445367698329,92.76829876916031,0.9446496774576449,92,3.066666666666667
1.019051914089416,0.5618771713102464,0.07043682038784027,0.9999693036079407,0.9080915881175555,0.668889519097634,0.15131357312202454,0.9999666810035706,1.00372562696738,0.6686792693964256,-0.20155882835388184,0.999998927116394,0.9179199416865272,1.058591185629054,0.12198670953512192,0.9999824166297913,0.9803160927258863,1.0597393593604518,-0.12213797867298126,0.9999958276748657,0.9475329730964641,1.3137687258941622,0.27768057584762573,0.28086239099502563,0.9787665332012723,1.3424414016609048,-0.00757971266284585,0.9704086184501648,0.9239942240708764,1.5618771713102464,0.37959691882133484,0.5002328157424927,0.9593286712337636,1.6141988103757492,0.06716635823249817,0.9591784477233887,0.8808854011892849,1.017896388969864,0.23232655227184296,0.0974353477358818,1.0659077395131742,1.0903224912610374,-0.2496885359287262,0.9988144040107727,0.00011080503463745117,0.9491180172062067,1.059165272494753,167.96091576309436,176.2228487913988,1.0,-0.021711205535830443,0.0004274653033342748,-0.09326698982791079,-0.17326118440678145,92.4989057128582,0.9494340004711521,93,3.1
1.0168291855971472,0.5604072028370428,0.07044929265975952,0.9999644160270691,0.8994098672338104,0.6684227313934731,0.1436493843793869,0.9999676942825317,1.0038953423189274,0.6677724450220254,-0.19892683625221252,0.9999988675117493,0.9071775308877563,1.055990926121205,0.11853133141994476,0.9999827742576599,0.9780028292112136,1.0580743251649654,-0.11869116127490997,0.9999958276748657,0.9337894497426248,1.3103770865376276,0.27492058277130127,0.28845205903053284,0.9760005678509365,1.339244836119653,-0.0076093366369605064,0.9690130949020386,0.9130455119773722,1.5604072028370428,0.3815203011035919,0.5108661651611328,0.9565174803465403,1.6122360140610816,0.06586120277643204,0.9569143652915955,0.8694296060347929,1.0113885597333312,0.23151955008506775,0.09361498802900314,1.0651412029852123,1.0909548353686498,-0.237696573138237,0.9985924959182739,0.0003434717655181885,0.9425901800494849,1.0570326256430853,169.28515412153797,176.32578900389137,1.0,-0.03227692442401036,0.0015426282184487984,-0.07738130334105453,0.008137160886546412,92.83309997661063,0.9486069567922749,94,3.1333333333333333
1.010120725568951,0.5581281242668193,0.06124197691679001,0.9999599456787109,0.8860242613825764,0.6699243853707555,0.09970106184482574,0.9999694228172302,1.0022967583104212,0.667318345342246,-0.2102002650499344,0.9999988675117493,0.8963251248582271,1.0540894425187193,0.11254099756479263,0.9999833703041077,0.9744412759138695,1.0567876879676368,-0.11268949508666992,0.9999958872795105,0.9087360306679726,1.323936813874307,0.27557700872421265,0.3070261478424072,0.9695404453735452,1.3348940787421921,0.003811327274888754,0.9681693911552429,0.8999722427950881,1.5581281242668192,0.38290348649024963,0.5345423817634583,0.9521749037872983,1.608179025594482,0.08994410187005997,0.9560422897338867,0.8585969719627492,1.0075578646641448,0.19011709094047546,0.09531475603580475,1.0626332867302402,1.0887530583104268,-0.25320419669151306,0.9984201192855835,0.0013813972473144531,0.9353832003860484,1.055438565243178,175.22359658505945,177.3736714847747,1.0,-0.028349626619860506,0.016026575640393847,0.028097326688603277,0.10679192092043274,93.5142333821752,0.9528153416876428,95,3.1666666666666665
1.0034971954894043,0.5570674941493041,0.08232919871807098,0.9999523758888245,0.8787262727702438,0.6715852206785993,0.10700348764657974,0.9999706149101257,1.0011877405413212,0.6669384630249997,-0.2060583084821701,0.9999988675117493,0.8903820190174356,1.0551752221883295,0.11046568304300308,0.9999839067459106,0.9723949559851035,1.0575752946374146,-0.11062226444482803,0.9999960064888,0.9076021514413826,1.3015681375391757,0.2616785168647766,0.3287368714809418,0.9676289470476577,1.3313565917129677,-0.0021228890400379896,0.9683167338371277,0.8918133712916233,1.5570674941493041,0.3397490382194519,0.5624867081642151,0.9506548405774838,1.6060061100001015,0.054618965834379196,0.9569157958030701,0.8576927942074868,1.0079216202409178,0.1903163492679596,0.09381862729787827,1.061739657267094,1.0886611398974204,-0.25760072469711304,0.9983401894569397,0.002466559410095215,0.9313884875012696,1.056375258412872,172.46602066345102,177.46076834962102,1.0,-0.019921952560477022,0.01777094288909327,0.0620167247121189,0.013061262797247094,93.41670843048429,0.9604505243852257,96,3.2
1.0038424659279475,0.5598582484265903,0.0694488137960434,0.9999508857727051,0.8752653989017138,0.674854980139694,0.08118497580289841,0.9999724626541138,1.0026235729403956,0.668768277418469,-0.2110259234905243,0.9999988675117493,0.8873530262266734,1.0571153454689777,0.10477755218744278,0.9999844431877136,0.9735956955021948,1.0601896331998326,-0.10496117174625397,0.9999960660934448,0.9011721903180748,1.2974841924991452,0.25599488615989685,0.3551696240901947,0.9675884148805741,1.3337700798838952,0.009178622625768185,0.9673815965652466,0.8859289969804415,1.5598582484265904,0.33231574296951294,0.5880956053733826,0.951238711951288,1.608923331631083,0.07411135733127594,0.9565000534057617,0.8585449095130857,1.0157997667622676,0.15750178694725037,0.09739917516708374,1.0632424342153555,1.091166164475631,-0.24272246658802032,0.9982528686523438,0.003224968910217285,0.9304743608644341,1.0586524893344051,173.38461629255187,177.85736189366065,1.0,-0.020095572145514513,0.00255550628440069,-0.0010476695646781337,-0.11662731571693355,93.8527272430843,0.9587099768134473,97,3.2333333333333334
1.009931912096939,0.5679737356718512,0.06426692008972168,0.9999484419822693,0.8780487998107226,0.6808309869364778,0.08677075803279877,0.9999738335609436,1.0081133826193152,0.6729050821662842,-0.21343398094177246,0.9999988079071045,0.8933594530966129,1.0637189844551833,0.10551595687866211,0.9999846816062927,0.9789951809761083,1.067832405781063,-0.1057010143995285,0.9999960064888,0.9041892556348468,1.3007749631452954,0.25769850611686707,0.3788074553012848,0.9732589133607309,1.341660979046337,0.010773632675409317,0.9671676754951477,0.8895638896272122,1.5679737356718513,0.3435927629470825,0.6113304495811462,0.9565549935118404,1.6172485506400418,0.08222029358148575,0.9566504955291748,0.8622526733984777,1.0225148277549383,0.15875546634197235,0.10312829166650772,1.0693607492006443,1.0979929684205927,-0.24642972648143768,0.9981804490089417,0.004174172878265381,0.9361773170363605,1.0657756951181232,174.25127531581128,177.73150923221468,1.0,0.0005327923762492487,0.005532168160642447,0.1610600434746365,0.022984474540775176,95.03991122620498,0.9549059823004757,98,3.2666666666666666
1.0122216126617183,0.568014391361381,0.05705421417951584,0.9999523162841797,0.881201335118561,0.680477342455014,0.11443917453289032,0.9999745488166809,1.007468964468356,0.6741673727912108,-0.20934781432151794,0.9999987483024597,0.8916939610961587,1.0652052830789926,0.10786185413599014,0.9999843239784241,0.9785487511101093,1.0693589701807227,-0.10803625732660294,0.9999958276748657,0.9015111291565161,1.3012938374338348,0.268686443567276,0.40914297103881836,0.9723242179896996,1.341768239966468,0.028020724654197693,0.9678296446800232,0.8874781486138684,1.5680143913613809,0.363656222820282,0.630414605140686,0.9549001422207255,1.6168006945368592,0.12215075641870499,0.9568109512329102,0.8658749245216233,1.0252944222498033,0.20858871936798096,0.09961958974599838,1.068737942697088,1.0987352223070175,-0.20760898292064667,0.998035728931427,0.0033236145973205566,0.9351213561031341,1.0672821266298576,174.60713768059165,177.68397341756608,1.0,-0.006939477339716061,0.012469655911971007,-0.056194544476945676,0.05217921364327888,94.30022184301389,0.9616870176314427,99,3.3
1.0153536310085671,0.5685837674529561,0.065996915102005,0.9999558925628662,0.883325504065049,0.6803139927196297,0.15053102374076843,0.9999744892120361,1.007864933064002,0.6749287242210161,-0.17817208170890808,0.9999986290931702,0.889729766266621,1.0651936320139743,0.10862511396408081,0.9999839067459106,0.9784265446500963,1.0678583005472109,-0.10880472511053085,0.9999956488609314,0.8884581753468513,1.295230894349261,0.2677828073501587,0.4316646456718445,0.9724458441643873,1.3426081007961397,0.01752101629972458,0.9684720635414124,0.8812540030884567,1.5685837674529561,0.3640070855617523,0.6426156759262085,0.9549682906142868,1.617649786130205,0.0960516408085823,0.9570220708847046,0.8685293758335227,1.037795155771869,0.22210624814033508,0.09412354230880737,1.069082678092077,1.0990701908903548,-0.16674822568893433,0.9976937770843506,0.0028350353240966797,0.9340781554583587,1.0665259662805926,178.80704227487558,177.6110287637865,1.0,-0.011876732825557127,-0.01021204304606854,-0.03796289968732824,-0.17458372181529724,92.67408171877855,0.9576658028649951,100,3.3333333333333335
1.0226870648634783,0.5789986822936098,0.03285021334886551,0.9999597668647766,0.8850415517204605,0.6837430526146144,0.1485469788312912,0.9999750852584839,1.013271047288585,0.6798614475015532,-0.18713796138763428,0.9999985694885254,0.8934324204132372,1.0667254671139699,0.10940191894769669,0.9999836087226868,0.9829419012725054,1.068591790117761,-0.10957588255405426,0.9999955296516418,0.8897183657794627,1.2971081745358173,0.25694596767425537,0.458161324262619,0.9796731271500553,1.3498791617731243,0.011588742025196552,0.9697970747947693,0.8845534996436273,1.5789986822936097,0.33823224902153015,0.6596177220344543,0.9588447434373306,1.6278446085072986,0.07351849228143692,0.9581381678581238,0.8712675108214912,1.0540001850012781,0.1962309330701828,0.09176880121231079,1.0768828584910168,1.1065513834206235,-0.2026197463274002,0.9975780844688416,0.0020284652709960938,0.9381871608428713,1.0676586286158654,179.87392923876527,176.380537006726,1.0,-0.021451775546865948,-0.051878669794779224,-0.0730019049260968,-0.32003023462863706,92.44958457880212,0.9251770090901218,101,3.3666666666666667
1.0270394015439648,0.587266142198602,0.034807223826646805,0.9999630451202393,0.8819324846882187,0.6849912612520508,0.14270582795143127,0.9999759197235107,1.0152720037320453,0.6829353143643939,-0.1911764144897461,0.9999984502792358,0.8957831496091404,1.0669394106793428,0.10910405218601227,0.9999834299087524,0.9857243538581508,1.0698902236850283,-0.10928893089294434,0.9999953508377075,0.8951031796556563,1.3037009163156419,0.23834887146949768,0.4895568788051605,0.9835593551855012,1.3556636336638965,-0.017514796927571297,0.9712469577789307,0.8829814208176078,1.587266142198602,0.2975952923297882,0.6808586716651917,0.9625796016459718,1.6352468656919017,0.023709172382950783,0.9599243998527527,0.8686080060849063,1.0682544469101374,0.17890337109565735,0.09336867928504944,1.0794529884570634,1.1061699884791143,-0.18351253867149353,0.9972983598709106,0.001069784164428711,0.9407537517336456,1.0684148171821855,177.71677877632376,176.14266313139672,1.0,-0.011256329283828324,-0.0292060215088566,0.07792997007412229,0.17343736110287192,93.95591861465343,0.8999952185795503,102,3.4
1.01082441034158,0.5847499165630847,0.05432634800672531,0.9999638795852661,0.862385589037242,0.6821735454753862,0.1177058219909668,0.9999768733978271,1.0077365457225453,0.67993393952465,-0.19248399138450623,0.9999983310699463,0.885590662914349,1.061580864160595,0.10606767982244492,0.9999832510948181,0.9778668430682675,1.0640326060798202,-0.10624176263809204,0.9999950528144836,0.8887530232512771,1.311075237309646,0.2390347272157669,0.5191144347190857,0.9771133297195875,1.349654208103959,-0.02662997879087925,0.9723315238952637,0.8777784806512774,1.5847499165630847,0.3101855516433716,0.7017409205436707,0.9573646632129023,1.62905536064284,0.029641130939126015,0.9611366987228394,0.8539069381923403,1.0800095988816287,0.15863259136676788,0.10800924152135849,1.0730542314565983,1.097590702386812,-0.19480380415916443,0.9970991015434265,0.001170128583908081,0.9317287529913082,1.0628067351202077,176.97744074980392,176.10809139545123,1.0,-0.039304919916875174,-0.009432955804724698,-0.21309135652102787,0.14906959694212846,95.02189732963912,0.8902663567863955,103,3.433333333333333
0.9614494900780695,0.568048741969699,0.08090342581272125,0.9999634027481079,0.8427282869092741,0.6737278009798957,0.0829751044511795,0.9999783039093018,0.9914638743530931,0.6706259348962692,-0.18708395957946777,0.9999982714653015,0.8693820254756666,1.0481744330007845,0.09874187409877777,0.9999838471412659,0.9624968778165078,1.0500584927499494,-0.09889363497495651,0.9999951124191284,0.8739039714849391,1.3086736649352033,0.2429855763912201,0.5494627952575684,0.9613856675259261,1.331775290136534,-0.013183402828872204,0.9730326533317566,0.8628424651173733,1.5680487419696991,0.3251921534538269,0.7221736907958984,0.9442449786453343,1.607369962675626,0.08098288625478745,0.9612345099449158,0.8377668432724108,1.0700025337665762,0.14138665795326233,0.1258901059627533,1.0561646338189512,1.0775213256810807,-0.19941867887973785,0.9963417649269104,0.0016425251960754395,0.9159394516460871,1.0491164628753669,176.56351612359603,176.667054605039,1.0,-0.02667494734754699,0.0037532343100076552,0.09577980019366954,0.10333022275205457,95.23069076164937,0.8969408785267564,104,3.466666666666667
0.9474017097550586,0.5645465338454929,0.089187853038311,0.9999607801437378,0.8292521551685399,0.6788653954347814,0.0762161836028099,0.9999797344207764,0.9842451607568794,0.6694029989916184,-0.18515512347221375,0.9999982118606567,0.8639818356499748,1.04614076090571,0.09564738720655441,0.9999842643737793,0.9572548877748559,1.0468589631823877,-0.09579388797283173,0.9999950528144836,0.8667341018123907,1.3059177710632224,0.22710351645946503,0.5750604867935181,0.9577087493731318,1.3272265731022743,-0.022466007620096207,0.9733800888061523,0.8631485951860114,1.564546533845493,0.30065780878067017,0.7393075823783875,0.9425405599483766,1.6041547209694844,0.04747816547751427,0.9610409736633301,0.8271764124083065,1.0654261715471018,0.12478171288967133,0.16019661724567413,1.050042285521186,1.0703577597751004,-0.2107875645160675,0.9959195256233215,0.005020409822463989,0.9106183617124153,1.0464998620440489,178.59871898739388,176.77211931725,1.0,-0.027744921281244343,-0.004458477323711878,-0.008813711555047878,-0.06444422482697729,95.84301430566666,0.8985815898731577,105,3.5
0.8880606935281884,0.5328635421097185,0.12395697832107544,0.9999630451202393,0.8028861219666763,0.6686896851926152,0.0689440444111824,0.9999812245368958,0.9602213938984241,0.6559876968650488,-0.1453128606081009,0.9999982714653015,0.8410171872998612,1.0231544678321118,0.08207918703556061,0.9999849796295166,0.9342584940879592,1.022901042363612,-0.08221042901277542,0.9999951720237732,0.8441806020858501,1.2802210284020925,0.21388566493988037,0.6064057946205139,0.9376233722133726,1.2986900424322525,-0.010887057520449162,0.9744540452957153,0.8446372523218787,1.5328635421097185,0.2853495478630066,0.75901859998703,0.9237045673335341,1.5714775690112395,0.054215967655181885,0.9617152810096741,0.8025190843854517,1.0401638084101257,0.11471525579690933,0.2126866728067398,1.0261728950672693,1.0414473390518464,-0.198390930891037,0.9960566163063049,0.006877124309539795,0.8876378406939102,1.023027755097862,179.3985258033713,176.38002725183838,1.0,-0.035879160145755026,-0.018905414246140048,-0.06605520208199603,-0.1104874161213007,95.98417727388166,0.9263135838770967,106,3.533333333333333
0.8985830728639191,0.5355640591482904,0.13677754998207092,0.9999653100967407,0.7976755559438877,0.6734212751329266,0.07308792322874069,0.9999825954437256,0.9548054124683762,0.6577863806599971,-0.12428456544876099,0.9999983310699463,0.8336186251186509,1.0248276665514908,0.07450363785028458,0.9999854564666748,0.9302895148980562,1.0229559494479725,-0.07463573664426804,0.9999951720237732,0.8424215756490995,1.282423312111861,0.21115544438362122,0.638512134552002,0.9372537896589781,1.2995421430907095,0.012940391898155212,0.9752737879753113,0.8464384420641445,1.5355640591482904,0.27914172410964966,0.7778815627098083,0.9257054297226822,1.5746296171265093,0.07986019551753998,0.9623931050300598,0.7994610015175846,1.0418904541324505,0.13270345330238342,0.25461024045944214,1.0245517521063712,1.0400328582000538,-0.13097883760929108,0.9961607456207275,0.008447229862213135,0.8819540700083536,1.0238918079997317,178.95186277677553,176.15372694396115,1.0,-0.05786819319076321,-0.009919730713152164,-0.16779064364717491,0.06910918456755744,94.73089443780775,0.9197849979171684,107,3.566666666666667
0.8959397344228804,0.5332998126388115,0.1393158733844757,0.9999678730964661,0.792413059088029,0.6735791923110239,0.07894965261220932,0.9999837279319763,0.9491360103279503,0.6586133271363287,-0.11910074949264526,0.9999983906745911,0.825261012911257,1.0228136760915956,0.07470978051424026,0.9999858736991882,0.9250872937806727,1.020950837145268,-0.07483308762311935,0.9999951720237732,0.8345293127260943,1.2864771699446447,0.21974238753318787,0.6681785583496094,0.9311901634716476,1.2953734186315553,0.03331315517425537,0.9760903716087341,0.8427709405039185,1.5332998126388115,0.2953384518623352,0.7952467799186707,0.9224789235152142,1.5672508384204322,0.11942591518163681,0.9627216458320618,0.7958406673593593,1.0370114197545792,0.13280634582042694,0.2899632751941681,1.0165129361006449,1.0349941320463263,-0.14008361101150513,0.9962102174758911,0.008114725351333618,0.8751741533459648,1.0218822566184318,179.8992140997536,176.8908226008606,1.0,-0.027642615175435467,0.01251370148843866,0.2284400595051139,0.17044527857151737,94.3042006760144,0.9253967235110198,108,3.6
