nose_x,nose_y,nose_z,nose_visibility,left_shoulder_x,left_shoulder_y,left_shoulder_z,left_shoulder_visibility,right_shoulder_x,right_shoulder_y,right_shoulder_z,right_shoulder_visibility,left_hip_x,left_hip_y,left_hip_z,left_hip_visibility,right_hip_x,right_hip_y,right_hip_z,right_hip_visibility,left_knee_x,left_knee_y,left_knee_z,left_knee_visibility,right_knee_x,right_knee_y,right_knee_z,right_knee_visibility,left_ankle_x,left_ankle_y,left_ankle_z,left_ankle_visibility,right_ankle_x,right_ankle_y,right_ankle_z,right_ankle_visibility,left_wrist_x,left_wrist_y,left_wrist_z,left_wrist_visibility,right_wrist_x,right_wrist_y,right_wrist_z,right_wrist_visibility,trunk_lateral_inclination,center_mass_x,center_mass_y,left_knee_angle,right_knee_angle,person_height,center_mass_velocity_x,center_mass_velocity_y,center_mass_acceleration_x,center_mass_acceleration_y,body_orientation,torso_leg_ratio,frame,timestamp
0.7607530827898522,0.4392671723730946,0.25265738368034363,0.9999979138374329,0.6794277982784722,0.5812817757013552,0.06068972870707512,0.9999985098838806,0.8413350464009498,0.5847422537620436,0.018877731636166573,0.9999931454658508,0.7180708217319709,0.9017761494698391,0.024083899334073067,0.9999886751174927,0.8045110085815858,0.8937212642310165,-0.024213986471295357,0.999988317489624,0.7244115498577094,1.1817657869360547,0.14225906133651733,0.9885957837104797,0.808014355965162,1.181379252488801,0.06701699644327164,0.9407914876937866,0.7374051705708777,1.4461736334526996,0.2239234447479248,0.988128125667572,0.8036396955150683,1.4392671723730945,0.18830399215221405,0.9644073247909546,0.6237967753458477,0.9095900191121389,0.12892159819602966,0.9926823973655701,0.8979051206671963,0.9078942887024839,0.01483840961009264,0.9721198081970215,0.0021771490573883057,0.7612909151567783,0.8977487068504278,178.48392993966374,178.33039800001688,1.0,0.0005624308725840574,0.11793477412481554,-0.08716742857876104,0.6542618186791761,91.55144074389645,0.841171662860347,0,0.0
0.7430711689218983,0.42227411633549133,0.24160516262054443,0.9999979138374329,0.6503272750912408,0.5652544113944878,0.04842172563076019,0.9999986290931702,0.8320637956187278,0.5643112234869625,0.012628389522433281,0.9999937415122986,0.6887679007179202,0.8933271145594551,0.02623586356639862,0.99998939037323,0.7913525272921399,0.882863238818373,-0.026372894644737244,0.9999892115592957,0.6989577102231336,1.1680242722948762,0.15984117984771729,0.9869820475578308,0.7985953028871783,1.1661960527887039,0.0694965124130249,0.9448683261871338,0.7109029975456278,1.4222741163354913,0.25542882084846497,0.982886552810669,0.7922850655571159,1.4243816342932196,0.18524938821792603,0.9596472382545471,0.5976932689026873,0.8912240416699214,0.12698803842067719,0.992081880569458,0.8844494799247061,0.8895723284133065,0.03377053514122963,0.974128007888794,0.0006070733070373535,0.7400602140050301,0.8880951766889141,179.43447630752738,177.13560880495393,1.0,-0.03124985344574762,0.08072092855093713,-0.2430494478394314,-0.26413440474484434,90.85877249449719,0.870128675742067,1,0.03333333333333333
0.7463504305539606,0.42532999025410423,0.22102923691272736,0.999997615814209,0.6542289293204978,0.5651837583485252,0.03024429641664028,0.9999986886978149,0.8409861588274862,0.5667753714281895,-0.004433230962604284,0.9999942183494568,0.6959027648364565,0.9031190839465592,0.02616616152226925,0.9999898672103882,0.8029565526367414,0.8929360694756964,-0.026286298409104347,0.9999898672103882,0.7032013194702394,1.1776626181306007,0.16996799409389496,0.9863519072532654,0.8071564817124582,1.179713504971594,0.07817026227712631,0.9488653540611267,0.7149854353754936,1.4253299902541041,0.27468547224998474,0.9806858897209167,0.8043022163441164,1.4323365092212084,0.18672780692577362,0.9578707814216614,0.6063287232549338,0.8990231995881961,0.12067301571369171,0.9909989833831787,0.8944631804394809,0.9014355787220981,0.026998180896043777,0.9755139946937561,0.0010148286819458008,0.749429658736599,0.8980275767111278,178.79870856448548,178.513618793732,1.0,0.018669393770009,0.012078951102264646,0.3954034487186781,-0.5465146606567352,91.59650526708394,0.8903799446365287,2,0.06666666666666667
0.7413581755900015,0.4210459180883659,0.2499537169933319,0.9999973773956299,0.6516913870444567,0.5627566628865135,0.05477377772331238,0.9999987483024597,0.8368160955694213,0.5609245706561733,0.011708223260939121,0.9999946355819702,0.6931793015134993,0.9004534368936159,0.02728811278939247,0.9999904036521912,0.8001398140134836,0.8894782881318127,-0.02741376683115959,0.9999905228614807,0.699360687346613,1.1742141523109961,0.1669386327266693,0.9854252934455872,0.8049793222408197,1.175065489537287,0.07097740471363068,0.9523225426673889,0.7108554617489958,1.421045918088366,0.2561842203140259,0.9777636528015137,0.8041449242705894,1.4263076046975163,0.16801197826862335,0.955712616443634,0.6032498148897643,0.8961502143444133,0.14351104199886322,0.9891919493675232,0.8854639636639927,0.8982746948874673,0.0339876189827919,0.9756826758384705,0.0011732876300811768,0.7466595577634914,0.8949658625127144,178.62719536189022,178.83888536387585,1.0,0.003647321942068614,0.006232326899535093,-0.10796336608841714,-0.04186761242787749,91.14542639672169,0.8962338424254627,3,0.1
0.7420396829295864,0.4239289057295397,0.21473149955272675,0.9999972581863403,0.6524403384160877,0.5604755766940808,0.02643604949116707,0.9999988079071045,0.8405332294229347,0.56276121355887,-0.020470233634114265,0.9999950528144836,0.693961575080465,0.9052410600409604,0.028484230861067772,0.9999908804893494,0.801185004038705,0.8945465749481976,-0.028608892112970352,0.9999911189079285,0.7014251428732988,1.174559811953531,0.17261841893196106,0.9851396679878235,0.8072401921614553,1.177369199776559,0.07269666343927383,0.955748975276947,0.7125613124771653,1.4243610259304313,0.2600606083869934,0.9771001935005188,0.8055582732193108,1.4239289057295397,0.1700897365808487,0.9557066559791565,0.6073356579739217,0.8978743017295399,0.08892076462507248,0.9884907007217407,0.8841054274381211,0.9010538516853551,-0.03592123091220856,0.9766220450401306,0.0014600157737731934,0.747573289559585,0.899893817494579,179.03485529723483,178.38265384489088,1.0,-0.006908936693039693,0.018422314245987042,-0.07361279323793152,0.08481971315231875,91.17139056392634,0.907735625833158,4,0.13333333333333333
0.7395280629423027,0.41942967467061915,0.2135229855775833,0.9999971389770508,0.6521822433835506,0.5551711507997628,0.025265876203775406,0.9999988675117493,0.8387193713210428,0.558201000624274,-0.024930434301495552,0.9999954104423523,0.6920633764670254,0.9039069028044713,0.028452802449464798,0.999991238117218,0.7995593808153659,0.893182726284468,-0.02858797274529934,0.9999915957450867,0.6993412104220286,1.1713527215447472,0.17937719821929932,0.9846621155738831,0.803669526124642,1.1729072681424535,0.08395005762577057,0.9583501815795898,0.7119115621658664,1.4227201347360525,0.2682342827320099,0.9759824275970459,0.8028394239118546,1.4194296746706192,0.18081481754779816,0.9543382525444031,0.6049982105135491,0.8944921020773668,0.12263693660497665,0.9871149659156799,0.879011928173511,0.8989917676182568,0.00042550318175926805,0.977540135383606,0.001941680908203125,0.7458113786411957,0.8985448145444697,178.69591347083167,178.96525403023728,1.0,0.004976223806283071,0.011853147520403253,0.09010424257721308,-0.04944378895404402,90.82678052242667,0.9167655990203205,5,0.16666666666666666
0.7422034005246888,0.42278760378968155,0.1836571842432022,0.9999967217445374,0.6554272475471736,0.5561943012052486,0.0016502884682267904,0.9999988675117493,0.8448500978263007,0.5610847055316963,-0.0467422753572464,0.9999957084655762,0.6954128985377358,0.9085130154772122,0.02736489102244377,0.9999915361404419,0.8048673424176456,0.8980912557582966,-0.027511317282915115,0.9999920129776001,0.7033556198177549,1.17341626030833,0.17074616253376007,0.9836060404777527,0.8063506276010324,1.1752638283768055,0.08076435327529907,0.9604983925819397,0.7159153464486692,1.4292511030415707,0.25498515367507935,0.9751694798469543,0.8066175815716947,1.4227876037896816,0.1803576946258545,0.9535396099090576,0.6084383514966493,0.8979709490003493,0.060013484209775925,0.9857392311096191,0.8842616763523103,0.902770049090855,-0.0509287491440773,0.9788542985916138,0.0031206905841827393,0.7501401204776906,0.9033021356177544,178.9068411737099,179.75517873324188,1.0,0.008266330274348324,0.006649254311997247,0.023629052194377786,-0.037982485639900164,91.03590590800387,0.9191772990573146,6,0.2
0.7450753566332053,0.4268666611808135,0.20414192974567413,0.9999962449073792,0.6584635813196853,0.5552477694966401,0.012767331674695015,0.9999988675117493,0.8484513366140611,0.5620401934865106,-0.0354817695915699,0.9999960064888,0.6994527509795413,0.9123784994878699,0.026436612010002136,0.999991774559021,0.8080812712737987,0.9020206460318878,-0.026590999215841293,0.9999923706054688,0.7070475161627535,1.1769117788066488,0.17563170194625854,0.9824248552322388,0.8107368930893958,1.1792658193602323,0.08298438787460327,0.9624537825584412,0.7187888361481152,1.4358920618532292,0.25777560472488403,0.9738677740097046,0.80886785822211,1.4268666611808134,0.18016158044338226,0.9522006511688232,0.6121856272053305,0.9014962547330136,0.06511513888835907,0.9844019412994385,0.8863149765901766,0.9063616907399502,-0.03554335609078407,0.9799481630325317,0.004317343235015869,0.75376701112667,0.9071995727598788,179.04868734391982,179.01870959723692,1.0,0.004990712962494749,0.0024571681261922446,-0.02500698900608065,-0.031886093592240164,91.10064121380246,0.916329927961731,7,0.23333333333333334
0.7461472899569012,0.4285625893001963,0.2285628765821457,0.9999954104423523,0.6590268223929859,0.5554174924281884,0.03288320451974869,0.9999988079071045,0.8494512827891777,0.5599424347490933,-0.016546841710805893,0.9999962449073792,0.7007861351403182,0.9134285195867151,0.025413673371076584,0.9999918341636658,0.8101588443196097,0.9029984209694877,-0.025577321648597717,0.9999926090240479,0.7083442150373374,1.1782841639928934,0.16511477530002594,0.9807923436164856,0.8120584694318987,1.1809189643043334,0.08309239894151688,0.9636310338973999,0.7202271062288259,1.4412260055785995,0.2407953441143036,0.9714580774307251,0.8090204964122653,1.4285625893001963,0.17079028487205505,0.9489227533340454,0.6139134488472279,0.9025595692605691,0.09225530922412872,0.9811485409736633,0.8862004657517977,0.9073804595032778,-0.008735992014408112,0.9810672402381897,0.0028725266456604004,0.755472489729964,0.9082134702781014,179.04702780430512,178.90553972932236,1.0,0.005773056557776459,-0.0008770901009762379,0.005846895734165978,-0.025141504027270153,91.20564240608097,0.9107369393945929,8,0.26666666666666666
0.7430991921084104,0.42783140529772934,0.21481284499168396,0.9999949336051941,0.6560915179263559,0.553254700354079,0.026424717158079147,0.9999988079071045,0.8472521663479478,0.5572454490008466,-0.023807493969798088,0.9999964833259583,0.6970653242012084,0.9099931142866136,0.026028957217931747,0.9999919533729553,0.8073393482812351,0.8995515984905589,-0.0261957086622715,0.999992847442627,0.7054096976080716,1.1744589467575763,0.1710519641637802,0.9789094924926758,0.8091035463411598,1.177281701068186,0.07917136698961258,0.964847207069397,0.7165944570170929,1.4361622626333526,0.24241550266742706,0.9689089059829712,0.8070475133866396,1.4278314052977295,0.1604398787021637,0.9462381601333618,0.6122277043635818,0.8991894239034198,0.08355417102575302,0.9787339568138123,0.8805195671321511,0.9033878243021112,-0.016197174787521362,0.9816607236862183,0.002543032169342041,0.7522023362412218,0.9047723563885862,179.35994958628805,179.16588679543835,1.0,-0.0031494295384385277,-3.436327052225933e-05,-0.06812271104820533,0.00642456488691232,91.14305599474207,0.9046374937324899,9,0.3
0.7430156499243268,0.42867433631473695,0.21568718552589417,0.9999940395355225,0.6573309772566736,0.5530341598831675,0.02138829231262207,0.9999987483024597,0.8487823716656189,0.5578091500236819,-0.022011693567037582,0.9999966621398926,0.696222992390475,0.9105086231254754,0.025188475847244263,0.9999919533729553,0.8071054173995484,0.9002149880181927,-0.02535419538617134,0.9999930262565613,0.7048465623556724,1.1748967695838346,0.17148348689079285,0.9770927429199219,0.8099103819669272,1.1778006448283682,0.08020180463790894,0.9656731486320496,0.7162342038268326,1.4347454119178196,0.23880283534526825,0.9665438532829285,0.8077240536215649,1.428674336314737,0.1586054265499115,0.9434962868690491,0.6124981922132031,0.8995170922469329,0.08120616525411606,0.9749494194984436,0.8797590996302359,0.9036986651129175,-0.009303136728703976,0.9822389483451843,0.003041476011276245,0.7516642048950117,0.905361805571834,179.3588266063774,178.92174191364884,1.0,-0.006796298102831466,0.001603263443156519,-0.02882289415084009,0.012947818403613994,90.90538291577681,0.9056231057529949,10,0.3333333333333333
0.7433860263721795,0.4278788057924024,0.21686260402202606,0.9999935626983643,0.658918698173302,0.5513755024184273,0.020836960524320602,0.9999987483024597,0.8488278828652669,0.5582018267822239,-0.022655589506030083,0.9999968409538269,0.6963885362311372,0.9102163971153786,0.02500724233686924,0.9999920725822449,0.8070001428298971,0.9000762227132462,-0.025173787027597427,0.9999932050704956,0.7039767603504206,1.1752779126518946,0.17231494188308716,0.9748446345329285,0.8101087275053435,1.17736442641356,0.0784233957529068,0.9661707878112793,0.7151851190515721,1.433129558315146,0.24101588129997253,0.9640893936157227,0.8077660178772147,1.4278788057924023,0.15879790484905243,0.9403543472290039,0.6132702350070933,0.899064440790086,0.07974934577941895,0.9732387661933899,0.8802294145592398,0.9026362171160353,-0.00523733627051115,0.9828336834907532,0.0043499767780303955,0.7516943395305171,0.9051463099143123,179.15084481485096,178.82191177048222,1.0,0.0028718839153743076,0.001425744579239612,0.07805258342496776,-0.0014279644271118018,90.72329471168878,0.9084391876919856,11,0.36666666666666664
0.7441893112930436,0.42844454672835336,0.19660821557044983,0.9999933838844299,0.65979847272633,0.5520640824703635,0.012736260890960693,0.9999987483024597,0.8499930719705969,0.5580267268914655,-0.026167646050453186,0.9999970197677612,0.6980326783050386,0.9106673543065366,0.027727529406547546,0.9999921917915344,0.8079879219716241,0.9007804643890164,-0.027889976277947426,0.9999934434890747,0.7048626249683372,1.1764026030672476,0.17735996842384338,0.972605288028717,0.810543688630727,1.1775033197684968,0.07808521389961243,0.9668089747428894,0.7164811712726324,1.4320054742897108,0.24550127983093262,0.9621355533599854,0.8086841409615562,1.4284445467283533,0.15478435158729553,0.9381359815597534,0.6136727245705171,0.900789729838674,0.07058253139257431,0.970891535282135,0.8802456074164403,0.9026697738055725,-0.020884020254015923,0.983509361743927,0.0037974119186401367,0.7530103001383313,0.9057239093477765,178.8696816031943,179.0462700113303,1.0,0.006616478968849732,0.00040450243231242576,0.028109724759019107,-0.0076758047393230035,90.947802459207,0.9099694181955482,12,0.4
0.744348185289494,0.42885138055231076,0.17766129970550537,0.999993085861206,0.6594289498316692,0.5525802428074066,0.004565178416669369,0.9999986886978149,0.8494102197874391,0.557872037131419,-0.04683249443769455,0.9999971389770508,0.6983361386910456,0.9113860401182686,0.027359863743185997,0.9999922513961792,0.8075692437962226,0.9013019130773966,-0.027522969990968704,0.999993622303009,0.7051511645775127,1.1770079021058992,0.17192323505878448,0.9705976843833923,0.810572938707816,1.1774067601478115,0.07685266435146332,0.9672838449478149,0.7171169526272317,1.4317639239545605,0.2421324998140335,0.9609532356262207,0.808973482397558,1.4288513805523109,0.14611242711544037,0.9370890855789185,0.6130576783167779,0.9011291556993183,0.061468951404094696,0.9683203101158142,0.8798266549099313,0.9022086553505281,-0.032333873212337494,0.984003484249115,0.0033703744411468506,0.7529526912436342,0.9063439765978326,178.78052465368881,179.01225669006317,1.0,-8.917254307261622e-05,0.005085302179651014,-0.05050689279830118,0.035258031558410306,90.91424750554137,0.9112847691544089,13,0.43333333333333335
0.7452584146175985,0.42943549038689743,0.17330285906791687,0.9999924898147583,0.6596864315844236,0.5530774420186398,-0.0020249353256076574,0.9999986290931702,0.8495246974155986,0.5581498405853057,-0.05782945826649666,0.9999972581863403,0.6989100483693818,0.9121306504931718,0.027466222643852234,0.9999921917915344,0.8077794014828243,0.9020429034406773,-0.027627652511000633,0.9999936819076538,0.7062131613037639,1.1786555132041194,0.1724492758512497,0.9687291979789734,0.8111887293021909,1.178356492090765,0.07635435461997986,0.9671695828437805,0.718143279357618,1.4339712060092002,0.24199338257312775,0.9594064354896545,0.8097433669093512,1.4294354903868975,0.15170857310295105,0.9345910549163818,0.6136814431216081,0.9022007513654899,0.05765043944120407,0.9652130007743835,0.8806904352541771,0.9029249782537551,-0.05078066140413284,0.9841213226318359,0.003227412700653076,0.753344724926103,0.9070867769669245,178.89427310017348,178.96325965947787,1.0,-0.002758919418137077,-0.001250017870047571,-0.02040858892669421,-0.04847015517222274,90.94050733735473,0.910418896174488,14,0.4666666666666667
0.7457228728301517,0.42990485128525663,0.1698642075061798,0.9999920129776001,0.6596430287485862,0.5524920834387094,-0.012555603869259357,0.9999985694885254,0.8493013122622477,0.557285936013975,-0.07588286697864532,0.9999973177909851,0.6998515767787867,0.9130409025301688,0.028766363859176636,0.9999921321868896,0.8085793196228547,0.9026832413741774,-0.028927961364388466,0.9999937415122986,0.7067912106906713,1.1797201424577963,0.17870217561721802,0.9657002687454224,0.8116186492455763,1.179161844677358,0.07703197747468948,0.966532826423645,0.7189523255314749,1.4344722820524887,0.25143182277679443,0.9576967358589172,0.8103066119667324,1.4299048512852566,0.1585024744272232,0.9326619505882263,0.6143866476467974,0.9028180352305022,0.057302139699459076,0.9605184197425842,0.8811811841274704,0.9034698825718668,-0.050603218376636505,0.9841191172599792,0.0030482709407806396,0.7542154482008208,0.9078620719521732,178.75758077495863,179.07036976823176,1.0,0.0030409828537829573,0.0015764878754874348,0.04429096301401254,0.02158416326272618,90.92164548830473,0.9115255004860029,15,0.5
0.7463334437076472,0.4299973954411128,0.16585063934326172,0.9999918937683105,0.6588261227790372,0.5526243672182477,-0.014312587678432465,0.9999985694885254,0.8487476701663104,0.5566549197530627,-0.07227910310029984,0.9999974370002747,0.6999613768003814,0.9127460588825252,0.02847183123230934,0.9999920129776001,0.8087624896283916,0.9024653148015703,-0.02863338217139244,0.9999937415122986,0.7067631275063256,1.1790951486880719,0.17579278349876404,0.9643920063972473,0.8116122275745278,1.1789107957794336,0.07656722515821457,0.9666501879692078,0.7191913908410064,1.4336593358815335,0.2427222728729248,0.9569253325462341,0.8104982374006221,1.429997395441113,0.1527228057384491,0.9318257570266724,0.6145768791461246,0.902883412577592,0.06517265737056732,0.9574328660964966,0.8814410230489872,0.9032479945880659,-0.03763657063245773,0.9844011068344116,0.002563297748565674,0.7543619332143865,0.9076056868420478,178.66778349197392,179.15518623124333,1.0,0.0020573050123559077,-0.0009427463213567568,-0.007769103987972365,-0.019904364458694243,91.11850559603889,0.9110228809631665,16,0.5333333333333333
0.7477372506856784,0.4306876260745952,0.18759746849536896,0.9999914169311523,0.6597378572081297,0.5527056335461303,-0.004690955858677626,0.9999985098838806,0.849726513981735,0.5567582125160709,-0.05382528901100159,0.9999975562095642,0.7005569213302966,0.9131601540443246,0.02788599394261837,0.999991774559021,0.8093704530449832,0.9028880005375056,-0.028048556298017502,0.9999936819076538,0.7069988780553698,1.1794980595360676,0.1731366515159607,0.963411271572113,0.8119905587672478,1.1795115628188422,0.0763440877199173,0.9668154716491699,0.7197652004180204,1.4344427577323056,0.22898080945014954,0.9553396701812744,0.8110189788170533,1.4306876260745953,0.14666113257408142,0.9297696352005005,0.6154831453477886,0.9036530927886046,0.07306002825498581,0.9537603259086609,0.8820259912874756,0.9036925711361611,-0.025640755891799927,0.9845024943351746,0.0025759339332580566,0.7549636871876398,0.9080240772909152,178.51886767330384,179.23569962722092,1.0,0.0015141842337578313,-0.0004920078180725247,-0.004120344936277335,0.0034164106006143065,91.06801760973852,0.9099294352134658,17,0.5666666666666667
0.7479014742229759,0.4308511451530862,0.18377354741096497,0.9999910593032837,0.6603639686409297,0.5529590683711437,-0.015123993158340454,0.9999984502792358,0.8506020731023177,0.5568074794588672,-0.06172662228345871,0.999997615814209,0.7008015260266158,0.9133255601297877,0.027529621496796608,0.9999916553497314,0.8096073194050357,0.9030807642476658,-0.027692338451743126,0.9999936819076538,0.7069279184663422,1.1795731016142044,0.17151524126529694,0.9618189334869385,0.8121052997384118,1.1797131393371592,0.07625497132539749,0.9663465023040771,0.7200513665496309,1.4351133381663388,0.22962267696857452,0.9538124203681946,0.811158520920257,1.430851145153086,0.14815391600131989,0.9276460409164429,0.6156054080261218,0.9040375792589593,0.04710841178894043,0.951829195022583,0.8824715823315352,0.9039182704956651,-0.053533487021923065,0.9846969842910767,0.0024455487728118896,0.7552044227158258,0.9082031621887268,178.37826893453837,179.2666337966706,1.0,0.0003928423276863386,-0.00035658537450381807,-0.008419440178155343,0.0010173796719102322,91.02358484779772,0.9095498137360511,18,0.6
0.7480156853915719,0.43101758039701304,0.17419585585594177,0.999990701675415,0.660547956771361,0.5531034935644865,-0.020841266959905624,0.9999983906745911,0.8517677961649592,0.5569874104093963,-0.0679275318980217,0.9999976754188538,0.7010171582423356,0.9136151450335848,0.027467522770166397,0.9999916553497314,0.8097794476340575,0.9033207625051597,-0.027631450444459915,0.9999937415122986,0.7071133532215093,1.1796567413411385,0.17053532600402832,0.9610394835472107,0.8124533753611768,1.1800006566850538,0.07616109400987625,0.9667286276817322,0.7202978066719201,1.4357879282524673,0.23130984604358673,0.9538569450378418,0.8113083980637172,1.431017580397013,0.14992856979370117,0.9280283451080322,0.6153764681601561,0.9041834590416151,0.03803113102912903,0.9510490894317627,0.8826822770085181,0.9043036324064693,-0.056172776967287064,0.9849517345428467,0.0024676918983459473,0.7553983029381965,0.9084679537693722,178.36594922095261,179.18494694144303,1.0,0.0004971271557221032,0.0008381670754540405,0.0007917844559665167,0.009077456125874996,90.99796468875803,0.9094695993879583,19,0.6333333333333333
0.7481329752188431,0.4310593719955313,0.1707448810338974,0.9999905824661255,0.6608299727848937,0.5521123430581073,-0.019748590886592865,0.9999983906745911,0.8517079983046558,0.5570311398703536,-0.06673426926136017,0.9999977350234985,0.7009852370420981,0.9138415660026725,0.027393579483032227,0.9999917149543762,0.8096802559247331,0.9035079411207989,-0.027557704597711563,0.9999938607215881,0.7069545937190171,1.1796505217264646,0.17236611247062683,0.9603375196456909,0.8126900313619914,1.180058455130492,0.07537564635276794,0.9672281742095947,0.7204114235426268,1.4358641294672543,0.23335781693458557,0.9538066983222961,0.8113328177873225,1.4310593719955313,0.15106426179409027,0.928083598613739,0.6157845270991201,0.9042576641731409,0.03916914761066437,0.9508203864097595,0.8824506777506713,0.9043307506776803,-0.051101136952638626,0.9852076172828674,0.003124922513961792,0.7553327464834156,0.9086747535617357,178.27997173510215,179.06665182053231,1.0,-0.0010508391999682354,0.0009392248452806124,-0.011939048483207964,0.0007788030177120912,90.90364086971356,0.9100300012972045,20,0.6666666666666666
0.7481047616291143,0.43091122067334725,0.17239758372306824,0.9999903440475464,0.6609378927914917,0.5513726179669757,-0.01681463234126568,0.9999983906745911,0.8516086136038544,0.5570512615134596,-0.06528638303279877,0.9999977946281433,0.700958219498318,0.9139918829209457,0.02741849049925804,0.9999918341636658,0.8097772154090999,0.90358779134794,-0.027581950649619102,0.9999939799308777,0.7068104740989054,1.180018338693729,0.1750548779964447,0.9594405889511108,0.8126549089311277,1.1799961975379505,0.07640112936496735,0.9675120115280151,0.7205008854820488,1.4359015182031025,0.24385099112987518,0.9533619284629822,0.8111519372549667,1.4309112206733472,0.1587185561656952,0.9273717403411865,0.6157088591877377,0.9042284775886705,0.041078776121139526,0.9504351019859314,0.8824794829589797,0.90428204792744,-0.0491146482527256,0.9852023720741272,0.0036077499389648438,0.7553677174537089,0.9087898371344428,178.19768107228614,179.06031853961636,1.0,0.0004255802383343677,0.0010781366037803982,0.01144824481816353,0.0010773423130532747,90.83653743396196,0.9108318100848563,21,0.7
0.7476555182248358,0.43075299416069573,0.1866033971309662,0.999989926815033,0.6607255484787996,0.5511234604672428,-0.007549987640231848,0.9999983310699463,0.8511149699853731,0.5566175664272376,-0.05059166997671127,0.9999978542327881,0.7005726316654092,0.9134597672820336,0.026364048942923546,0.9999917149543762,0.8093139507806156,0.9030733434640894,-0.026528555899858475,0.9999939203262329,0.7064083259793695,1.17929436359994,0.1744348257780075,0.9589381814002991,0.8122435655298063,1.1792917381610404,0.07630042731761932,0.9674711227416992,0.7199176156026458,1.4355509837496114,0.23554456233978271,0.952583909034729,0.8106494552894085,1.4307529941606958,0.155250683426857,0.9256520867347717,0.6153652780173361,0.9037594269079451,0.05354847386479378,0.9492486715316772,0.8821415630091036,0.9030161464023494,-0.032270707190036774,0.9855038523674011,0.0034924745559692383,0.7549432912230124,0.9082665553730616,178.23986015372557,179.0291196813918,1.0,3.963727638610017e-06,-8.823602395514473e-05,-0.0030978685604662964,-0.00857044729565554,90.81969730434727,0.9096748859865003,22,0.7333333333333333
0.7473937158981256,0.43058567734985265,0.1920311152935028,0.9999899864196777,0.660616140413827,0.5508358794988252,0.0006262572715058923,0.9999983310699463,0.850807473426309,0.5563350626777811,-0.045204006135463715,0.9999979138374329,0.7001444486984034,0.9133930671654812,0.02634843811392784,0.999991774559021,0.8089733569224183,0.9028919593942669,-0.02651311829686165,0.9999939799308777,0.7061280957803461,1.1792039803932954,0.1737302988767624,0.9591657519340515,0.8119753740300821,1.1788755366444195,0.0762455016374588,0.968052864074707,0.7192105427068967,1.435372013864938,0.23292656242847443,0.9526077508926392,0.8101247847224166,1.4305856773498526,0.15305055677890778,0.9255676865577698,0.6153520176021103,0.9036168977372485,0.06715890020132065,0.947830319404602,0.8819489837060874,0.9025219915070483,-0.01770061068236828,0.9854934215545654,0.003496885299682617,0.7545589028104108,0.908142513279874,178.3660192998757,178.955553840341,1.0,-0.0009548542787807463,0.0013574827641990182,-0.007100929071395005,0.010706670973084632,90.7106615553042,0.9098466679050001,23,0.7666666666666667
0.7473229942270319,0.43057341892502826,0.18588973581790924,0.9999898672103882,0.6607273000643316,0.5512728097951954,-0.0007808840600773692,0.9999983310699463,0.8507005278975239,0.5562486870989765,-0.04561903700232506,0.9999979734420776,0.6997208236952377,0.9130959586410752,0.02633272111415863,0.999991774559021,0.8089463149674513,0.902701766348096,-0.026497459039092064,0.9999940395355225,0.705966084714256,1.1792165084748845,0.17100679874420166,0.9577820897102356,0.8118976180448585,1.178442336262202,0.07595453411340714,0.9676931500434875,0.7189239784259136,1.435571464981479,0.2323780357837677,0.9510613679885864,0.8099698270621697,1.4305734189250283,0.15313582122325897,0.9234783053398132,0.615515652217358,0.9035913285588183,0.04353626072406769,0.9472755193710327,0.8821423807590599,0.9019778370590117,-0.0575232207775116,0.9858078360557556,0.0031640231609344482,0.7543335693313444,0.9078988624945855,178.4507094183229,178.9487016839187,1.0,-0.0018918023215404578,-0.0020669658965693574,-0.007138824686151892,-0.02609279291980755,90.71495062383798,0.908817624257484,24,0.8
0.7478125831637262,0.43005804125295644,0.18321660161018372,0.9999896883964539,0.6608569190346073,0.5501166166278726,-0.001398277236148715,0.9999983310699463,0.8503894405025619,0.5560508990115932,-0.04741982743144035,0.9999979734420776,0.6993017995224762,0.912666186893959,0.026308726519346237,0.9999918341636658,0.8086329101588122,0.9020956321942479,-0.026473212987184525,0.9999940991401672,0.7057290202516557,1.178963653469169,0.17129665613174438,0.9575746655464172,0.8116020660212224,1.1780375609554974,0.07673771679401398,0.9678384065628052,0.7184602388368511,1.4355887335874629,0.23940682411193848,0.9508623480796814,0.8096842870690011,1.4300580412529564,0.15773509442806244,0.9231006503105164,0.6161278594265966,0.9033654368742808,0.04241634160280228,0.9467281699180603,0.8821556412649507,0.9016640241685502,-0.05810944363474846,0.9860997200012207,0.003774702548980713,0.7539673548406443,0.9073809095441034,178.5424675479203,178.9475264674834,1.0,-0.0009070145498439476,-0.001699315181427843,0.00774791936161212,0.0028889654195828527,90.5306309033413,0.9083256310874732,25,0.8333333333333334
0.7472917629336062,0.4293384315071562,0.19078859686851501,0.9999892711639404,0.6608235628973945,0.5497826007868913,0.00011589365021791309,0.9999983310699463,0.8497608334750074,0.5556003117000402,-0.044442176818847656,0.9999979734420776,0.6988485143517005,0.91137276729957,0.02599647082388401,0.9999917149543762,0.8080604884989324,0.9010528421278065,-0.026162832975387573,0.9999940395355225,0.7053374581819692,1.1781473044421937,0.16261175274848938,0.9564436674118042,0.8110708295405974,1.1772284794724979,0.07034815847873688,0.9672580361366272,0.7173080282519013,1.4351347449982121,0.2203579694032669,0.9486328959465027,0.8092029329170216,1.4293384315071562,0.13754388689994812,0.9202571511268616,0.6158447770133441,0.9028685796086875,0.046681854873895645,0.945952296257019,0.8819003233164525,0.9011330005230429,-0.055074017494916916,0.9863256216049194,0.0037030279636383057,0.7534545014253164,0.9062128047136883,178.72643972373191,178.95099537586506,1.0,-6.755431952432545e-05,-0.004221089434027773,0.006303664148967526,-0.018958692304631868,90.60507626025417,0.9064799401911527,26,0.8666666666666667
0.7469434130656335,0.42969195675927263,0.18948203325271606,0.9999885559082031,0.6610793418602653,0.5497084577796997,-0.004829642828553915,0.9999982714653015,0.8497949663927501,0.5557096504045302,-0.0490860715508461,0.9999979734420776,0.6990794968499862,0.9107528450095769,0.025996824726462364,0.9999915957450867,0.8081216486692072,0.9008618786393027,-0.02616368606686592,0.9999939799308777,0.7053967093013265,1.1782042310320793,0.16315118968486786,0.9545994400978088,0.811118054171951,1.1773848926227937,0.06976457685232162,0.9666520953178406,0.7173817225913438,1.4355736996022945,0.22174498438835144,0.9470906853675842,0.8091926229575364,1.4296919567592727,0.13811345398426056,0.9183962941169739,0.6159216117245275,0.9038883455924271,0.03724069893360138,0.9453830718994141,0.8820500598068342,0.9011885276702306,-0.0608038492500782,0.9865759015083313,0.0038195550441741943,0.7536005727595967,0.9058073618244398,178.68689069271733,178.94193392533498,1.0,0.0007501040305970463,-0.003704125791864682,0.006481187850935825,0.004099985387199181,90.82531063868421,0.9036769983408243,27,0.9
0.7465863126709441,0.4294476844745838,0.19912952184677124,0.9999873042106628,0.6609879618798322,0.5492928183674836,0.0024890771601349115,0.9999982118606567,0.849570541923712,0.5557432791414303,-0.040912069380283356,0.9999979734420776,0.6989726147628349,0.9096275471060438,0.02560361661016941,0.9999914765357971,0.8079551672824519,0.90035617706714,-0.025774037465453148,0.9999939203262329,0.7051576630028502,1.1776486134652626,0.16340243816375732,0.9532351493835449,0.8108541087685841,1.1771487765980104,0.07006194442510605,0.9662471413612366,0.7169227874214119,1.435240137490246,0.22319558262825012,0.9454314708709717,0.8089378958075586,1.4294476844745838,0.1411481350660324,0.9163405895233154,0.6161350224243165,0.9039218797760799,0.037554219365119934,0.9433159232139587,0.8817963045400522,0.9008230597150115,-0.043772146105766296,0.9866446852684021,0.004106789827346802,0.7534638910226434,0.9049918620865919,178.706878906939,178.96479037024534,1.0,0.0007790546861202998,-0.004126933466908704,0.00022693181820231185,-0.0032964880616943326,91.15504337009065,0.9017048203961311,28,0.9333333333333333
0.7465152728218217,0.42926679830195624,0.19491243362426758,0.9999871253967285,0.6609826963640998,0.5495623715602246,0.0013602189719676971,0.9999982118606567,0.8494803900941675,0.5558642023704181,-0.04287473112344742,0.9999979734420776,0.698944351130621,0.9090892240593487,0.025553744286298752,0.9999914765357971,0.8079368731009753,0.8998940068342072,-0.025724422186613083,0.9999939203262329,0.7051122219317623,1.1775409632342495,0.1627422720193863,0.9534246325492859,0.8107865423082171,1.1769168462668478,0.06964097172021866,0.9664978384971619,0.7165853677944131,1.436018626151643,0.21890223026275635,0.9457141160964966,0.8088428584032875,1.4292667983019562,0.13602986931800842,0.9168219566345215,0.6162586823006391,0.9046701351793166,0.03846452757716179,0.9440571665763855,0.8816856494053126,0.9007629214421904,-0.0440959557890892,0.9868659973144531,0.004012465476989746,0.7534406121157982,0.9044916154467779,178.7746387882758,178.9693299248663,1.0,0.00025819969414324557,-0.003310841387304494,-0.003992887838551355,0.006254498624168184,91.2050308721238,0.8997436885228881,29,0.9666666666666667
0.7470193988523747,0.42992413560365006,0.19455905258655548,0.9999871850013733,0.661411916858153,0.5502750826859523,0.0011423662072047591,0.9999982118606567,0.8501576518632376,0.5569842576739927,-0.044381991028785706,0.9999979734420776,0.699535054890056,0.9099405650508108,0.025549208745360374,0.9999914169311523,0.8086124930880334,0.9006500949358965,-0.0257199015468359,0.9999938607215881,0.7055844193076735,1.178508154481025,0.1620645821094513,0.9533626437187195,0.8114375222864664,1.1778763103224261,0.06984283775091171,0.9664989709854126,0.7171887469529727,1.4374182907641135,0.21969251334667206,0.9457951784133911,0.8092656985260155,1.42992413560365,0.13730035722255707,0.9164184927940369,0.616806286362191,0.9056847985828103,0.03551658242940903,0.945732831954956,0.8823804859840964,0.9014991121015583,-0.056421875953674316,0.9872545599937439,0.00426831841468811,0.7540737739890446,0.9052953299933536,178.72406962542124,178.9224677077332,1.0,0.00010860633939163236,0.0004743215638736597,-0.001181336227469934,0.029870478703736214,91.18222403871353,0.8996451410384522,30,1.0
0.7480116464355296,0.4297170513419414,0.16727209091186523,0.9999873638153076,0.6612973056822132,0.5501823279963048,-0.013823715038597584,0.9999982118606567,0.8499780947869527,0.5569049381197637,-0.06948725879192352,0.9999980330467224,0.6994116270079427,0.9096852328139623,0.02661854587495327,0.9999914169311523,0.8084483025263076,0.9003867813350162,-0.026789357885718346,0.9999938607215881,0.705464669191004,1.1782689045922825,0.16347096860408783,0.9529287219047546,0.8112681127822936,1.1776529170746475,0.06879612803459167,0.9664735198020935,0.7170653927515243,1.4374519286657228,0.22175350785255432,0.9460357427597046,0.8093202958051494,1.4297170513419413,0.13937252759933472,0.9167250394821167,0.6167323979178199,0.906169158078265,0.02726970613002777,0.9467160105705261,0.8820695831714758,0.9015661126682011,-0.07602658122777939,0.9876148700714111,0.004277676343917847,0.7539299647671251,0.9050360070744893,178.728270051547,178.97457682456567,1.0,-6.833305392013081e-06,-0.0006566981694683339,-0.0008635622631215815,-0.008461586038018014,91.17757544438709,0.8992200729406364,31,1.0333333333333334
0.748461157406278,0.4321850964380138,0.16964954137802124,0.9999872446060181,0.6621925739258031,0.551587207022271,-0.013009031303226948,0.9999982118606567,0.8512456537688603,0.5584565508234619,-0.06604397296905518,0.9999980330467224,0.7005309766893775,0.9111251320522468,0.026874404400587082,0.9999912977218628,0.8097212970485971,0.9018789416305615,-0.02704586088657379,0.9999938011169434,0.7065862406719043,1.1801174819348774,0.1635531783103943,0.9524746537208557,0.8125417266335543,1.1798224167015365,0.06619317084550858,0.9665064215660095,0.7181803341132937,1.439759313084384,0.22206664085388184,0.9459676146507263,0.8106288220095209,1.4321850964380138,0.13800732791423798,0.9165422320365906,0.6177683686317041,0.9078745358234525,0.029768100008368492,0.9479268789291382,0.8831856912595016,0.9032481568977714,-0.07273098826408386,0.9878390431404114,0.004364132881164551,0.7551261368689873,0.9065020368414041,178.73276501653586,178.9843187370292,1.0,1.61399806741135e-05,0.00024963170109295544,0.00017573196488654497,0.006937571747747377,91.24635324140613,0.8957814144941313,32,1.0666666666666667
0.7491187136530244,0.4323604075981326,0.18481256067752838,0.999987006187439,0.6624798711452947,0.5521639624595833,-0.007253493182361126,0.9999982118606567,0.8516021026695603,0.5588653757699861,-0.05119717866182327,0.9999980330467224,0.7007846364013041,0.911053938924668,0.02564963698387146,0.9999911785125732,0.8100067480617097,0.9019842511437188,-0.025823354721069336,0.9999937415122986,0.7069493115395515,1.1792753832876994,0.16129152476787567,0.9529333710670471,0.8128141932776465,1.1800005453263585,0.06762377917766571,0.966796875,0.7184899565855455,1.4402779643896257,0.21277010440826416,0.9464684724807739,0.8109626178781352,1.4323604075981327,0.1372067630290985,0.9170083403587341,0.6180650572468311,0.9085295753432893,0.034940946847200394,0.9488015174865723,0.883391438122752,0.9036414425693675,-0.04681428149342537,0.9882820248603821,0.00425565242767334,0.7553956922315069,0.9065190950341934,178.7848522748673,179.00106521586372,1.0,-0.00037360455961148756,-0.0028028452055368328,-0.0029935058988423027,-0.023445519089927005,91.34529538443188,0.8949135892738934,33,1.1
0.7495542283657801,0.43261613630405504,0.18441462516784668,0.9999868869781494,0.6627454725188713,0.5526858879451707,-0.007771960459649563,0.9999982118606567,0.8519580900485931,0.559461992369629,-0.05144719406962395,0.9999980926513672,0.700956247056358,0.9112407878557065,0.025288382545113564,0.9999911189079285,0.8102655080641709,0.902239534155262,-0.025462791323661804,0.9999937415122986,0.7072586927111855,1.178799636284149,0.16075879335403442,0.9533743262290955,0.8130887753622699,1.1803449779494448,0.0698244720697403,0.9671626091003418,0.7187758448956965,1.4407100721948172,0.21122506260871887,0.9473540782928467,0.8112683181860179,1.432616136304055,0.13801132142543793,0.9181129932403564,0.6183320169103083,0.908998173909059,0.035538800060749054,0.9495833516120911,0.8836052000399621,0.9040040292685345,-0.04613357037305832,0.9886901378631592,0.00430142879486084,0.7556108775602643,0.9067401610054843,178.83149209397962,179.00491069104288,1.0,-0.0005635754531826078,-0.000953716122824407,-0.0014166801143084746,0.01380810337125116,91.37548989042239,0.8946329777814948,34,1.1333333333333333
0.7495289392410446,0.4338369149332334,0.1790233701467514,0.999987006187439,0.6627544232063709,0.5537225888077402,-0.009806315414607525,0.9999982118606567,0.8526886962569119,0.5603230547113712,-0.05575449392199516,0.9999980926513672,0.7015544922813419,0.9120479671635444,0.025285135954618454,0.9999911189079285,0.8109779394748188,0.9029857068848245,-0.025459468364715576,0.9999937415122986,0.7078397977560033,1.1798004109255928,0.15774336457252502,0.9540653824806213,0.8138003333924622,1.1812735404094454,0.06576304137706757,0.9676204323768616,0.719419253355951,1.442096401875362,0.2089143991470337,0.9480950236320496,0.8119834267059345,1.4338369149332335,0.1296544075012207,0.9193001985549927,0.618903047169512,0.910102496449335,0.03202015161514282,0.950547993183136,0.8843918524427048,0.9049046753652574,-0.05866940692067146,0.9888339042663574,0.00418621301651001,0.7562662158780803,0.9075168370241845,178.81696418954175,179.0067554298445,1.0,-0.00012761400289623817,-0.00022890076164196302,0.003396381234215727,0.005646828996659884,91.44567134217512,0.8929242411709148,35,1.1666666666666667
0.7489239256121314,0.4332728252011652,0.17392195761203766,0.9999873042106628,0.6611805146444562,0.5535948585973915,-0.00988924503326416,0.9999982118606567,0.8517744177588669,0.55987556422108,-0.06379185616970062,0.999998152256012,0.7008960827638955,0.9112878674035805,0.02595292031764984,0.9999911189079285,0.8102229965735844,0.9021791143053496,-0.026124993339180946,0.9999938011169434,0.7073282347638538,1.1787247980390276,0.16303543746471405,0.9540017247200012,0.8130604801056688,1.1803843235818485,0.06601390987634659,0.967761218547821,0.7188096164599396,1.4406077872637542,0.21874591708183289,0.9486811757087708,0.8111715785571273,1.4332728252011653,0.13403142988681793,0.9203302264213562,0.618391749336624,0.9099103907846993,0.0463862270116806,0.9501708745956421,0.8837886606661791,0.9048859013986443,-0.05829896777868271,0.9892070889472961,0.003987163305282593,0.7555595396687399,0.9067334908544651,178.86742699943966,178.98769473895467,1.0,3.6537449115690844e-05,0.0005208751039810334,0.0012100913413708725,0.005529653504283502,91.57305271811983,0.8929173538219591,36,1.2
0.7490062536929365,0.4319216379613574,0.17661836743354797,0.9999874234199524,0.6603461441405469,0.5530336867080728,-0.009451950900256634,0.9999982118606567,0.8508490155466943,0.5595216270460662,-0.05898852273821831,0.999998152256012,0.7000301202023005,0.9103459800360824,0.02520047500729561,0.9999908804893494,0.8092651317679143,0.9012106127013667,-0.025370944291353226,0.999993622303009,0.7064516216756304,1.1772456687908661,0.16196630895137787,0.9547672271728516,0.8120394349592585,1.178938007803683,0.06680716574192047,0.9677602648735046,0.7178683223900661,1.4398003401932438,0.21616753935813904,0.9490243196487427,0.8101532651302675,1.4319216379613575,0.13781505823135376,0.9199550151824951,0.6176374883614769,0.9088294672353245,0.045439712703228,0.950829029083252,0.8827685529709051,0.904110104155697,-0.05462946742773056,0.9895517826080322,0.004123866558074951,0.7546476259851074,0.9057782963687245,178.8884162382388,179.00050193749976,1.0,0.0002535168364423666,0.001452258918140483,0.0017901584280437248,0.0076879997136511296,91.55689287513546,0.893850956428161,37,1.2333333333333334
0.7477371556760786,0.4311893255974287,0.17654500901699066,0.9999874234199524,0.6592459505696775,0.5520776583672733,-0.009544865228235722,0.9999982118606567,0.8498250626254129,0.5594732074354668,-0.05761445313692093,0.999998152256012,0.6987171040760242,0.9089414303013804,0.025019874796271324,0.9999908208847046,0.8078599392593058,0.8998258794226587,-0.02518981136381626,0.999993622303009,0.7049438139451022,1.1752424214438812,0.1630142480134964,0.9545265436172485,0.8106116800321065,1.1773542987009273,0.06762230396270752,0.9680487513542175,0.7165594197060456,1.43736740209468,0.2229369580745697,0.9491288065910339,0.8087775606464934,1.4311893255974286,0.14267604053020477,0.9205866456031799,0.6166646484675503,0.9073262781086495,0.041496798396110535,0.951995849609375,0.8813504406094552,0.9025497227078668,-0.051715146750211716,0.9899949431419373,0.004708707332611084,0.753288521667665,0.9043836548620195,178.80215738865903,179.01793014796493,1.0,-0.0006275583862351988,0.0009819220907951347,-0.0064571725990244435,-0.0034306817650058,91.53735082688333,0.8929158132556035,38,1.2666666666666666
0.746778495916029,0.43102629555091837,0.15511220693588257,0.9999876618385315,0.658620063171233,0.5518539699915355,-0.022550050169229507,0.9999982118606567,0.8494713092677141,0.5595891638039419,-0.07370096445083618,0.999998152256012,0.6982767224155035,0.9088638905429978,0.025379236787557602,0.9999909400939941,0.8073851023897165,0.8995754070039714,-0.025547754019498825,0.9999936819076538,0.7044569888984094,1.1747535162024194,0.16710571944713593,0.9549146890640259,0.8102726173661796,1.176954828783238,0.06778188794851303,0.9687743186950684,0.7162703753474701,1.4366575907595778,0.23393693566322327,0.9505218863487244,0.8084497314167516,1.4310262955509183,0.14550787210464478,0.923004150390625,0.6167866553893534,0.9073778829004455,0.02339589223265648,0.9534315466880798,0.8809911408959363,0.9022110118687374,-0.06846950203180313,0.9903709292411804,0.0049269795417785645,0.75283091240261,0.9042196487734846,178.7489077718373,178.9925006316414,1.0,-0.0011254316595369284,0.001570815252460053,-0.0037767686314521196,0.0044679732890566285,91.47252721321438,0.8933802099163538,39,1.3
0.746762657520379,0.4310378370821241,0.15884917974472046,0.9999879598617554,0.6583359200131534,0.5517625279134492,-0.01995331421494484,0.9999982118606567,0.8494492454116106,0.5596022499014379,-0.07358341664075851,0.999998152256012,0.6983046384214643,0.9087414680506752,0.02621544897556305,0.9999908804893494,0.8073834213740262,0.89951392254484,-0.026383325457572937,0.9999936819076538,0.7042132639451207,1.1747543106469427,0.16686803102493286,0.9551037549972534,0.8102888624975283,1.1767988248722154,0.06689571589231491,0.9692328572273254,0.7162509871415889,1.4365702281933532,0.23069974780082703,0.9512555003166199,0.8084686571608484,1.4310378370821242,0.13920584321022034,0.9243431687355042,0.617298763250437,0.9079379986650018,0.023982537910342216,0.954259991645813,0.8810129778179377,0.9022181687953864,-0.0664035901427269,0.9907573461532593,0.004993468523025513,0.7528440298977452,0.9041276952977576,178.63995280804477,178.98946860576456,1.0,-4.529122388435987e-06,-0.0008395181259204946,0.008680232910487543,-0.01866542384481355,91.55300957285017,0.8930948485461723,40,1.3333333333333333
0.7443741918535705,0.43110815045841117,0.16043688356876373,0.9999880790710449,0.656941480945163,0.5520058034699251,-0.019070861861109734,0.9999982118606567,0.849388528563667,0.5596499275665898,-0.07247043401002884,0.999998152256012,0.6981394072799707,0.9088542550130523,0.026367658749222755,0.9999908804893494,0.8074032143972323,0.8995859417183266,-0.026535654440522194,0.9999936819076538,0.7036705412461934,1.1750536705389065,0.16696423292160034,0.9555004835128784,0.8103155246049222,1.1768795380845227,0.06671735644340515,0.9697651267051697,0.7160801234851721,1.436395773027725,0.23033301532268524,0.9520750045776367,0.8085523598402165,1.431108150458411,0.13956519961357117,0.925542414188385,0.6174304933824468,0.9080396803786575,0.027058009058237076,0.9547860026359558,0.8810566148556084,0.9027026442745365,-0.06897369772195816,0.9910047054290771,0.004868507385253906,0.7527713108386015,0.9042200983656894,178.47173575493554,179.00090613646424,1.0,-0.0009989663785549654,0.00017214937235019426,-0.007590207260343686,0.007722217691951175,91.73709205221566,0.8934461524244033,41,1.3666666666666667
0.7441919462203139,0.4297981315728118,0.15904444456100464,0.9999880790710449,0.6561835842171306,0.5517865810506918,-0.020418941974639893,0.9999982118606567,0.8490402819968063,0.5594605920391065,-0.0739101767539978,0.999998152256012,0.6979415808691858,0.9086149702461035,0.026474157348275185,0.9999908208847046,0.80717712409813,0.8993362678685237,-0.02664049342274666,0.9999936819076538,0.7033352581708604,1.1746685268855392,0.1740652322769165,0.9557559490203857,0.8100867411876934,1.1764957503254947,0.06783710420131683,0.9701066613197327,0.7158766256487906,1.4355471958809725,0.24205610156059265,0.9530329704284668,0.8083454992296284,1.4297981315728119,0.1465555876493454,0.926791250705719,0.6173734706242724,0.9081511006191041,0.027569646015763283,0.9554578065872192,0.8806763215419259,0.9026476308593245,-0.06715971976518631,0.991311252117157,0.0048889219760894775,0.7525593524836579,0.9039756190573136,178.40909914947324,179.00467730742258,1.0,3.7926613353056787e-06,8.271613769380956e-05,0.007740514179872426,-0.0006901735170051338,91.81953159081446,0.8968700064169386,42,1.4
0.7439243129328261,0.4289772076337607,0.15924564003944397,0.9999882578849792,0.6557558321087392,0.5516255591803685,-0.020488955080509186,0.9999982118606567,0.8481303855289877,0.5589471243775753,-0.07234538346529007,0.999998152256012,0.697599493259815,0.9075833242227214,0.026405056938529015,0.999990701675415,0.8067364721908741,0.8985744331695231,-0.026572082191705704,0.999993622303009,0.7030036682176061,1.1740459505909615,0.17301011085510254,0.9559561610221863,0.8096334129798771,1.1755139671058434,0.06878815591335297,0.9700667858123779,0.715630274939096,1.4349587880806822,0.23875030875205994,0.953434407711029,0.8080452205573936,1.4289772076337608,0.14689427614212036,0.9267803430557251,0.6172216845220633,0.9077874829824836,0.021362077444791794,0.9570165872573853,0.8798293296363421,0.9022560244369525,-0.06841529160737991,0.9916203022003174,0.004666268825531006,0.7521679827253446,0.9030788786961222,178.39125800654438,179.041667504261,1.0,-0.0007049996350621983,-0.00426635345343594,-0.005681118668796532,-0.03485851132177497,91.98560721753414,0.8963933659506034,43,1.4333333333333333
0.7439880582550755,0.4295770235856761,0.16034136712551117,0.9999884366989136,0.6558926103879388,0.5521252833265824,-0.019742479547858238,0.9999982118606567,0.8483798817176584,0.5597272297789755,-0.07158680260181427,0.999998152256012,0.6980533932023892,0.908190326215266,0.02635062113404274,0.9999906420707703,0.807191847849151,0.8991079672256128,-0.02651865780353546,0.9999935626983643,0.7033671571414394,1.174769016575146,0.16952496767044067,0.9563860297203064,0.8100576907033602,1.1761174833679349,0.06887026131153107,0.9702107310295105,0.716102962785545,1.4358184316133396,0.23309826850891113,0.9539605975151062,0.8086661777811694,1.4295770235856762,0.14747045934200287,0.927121639251709,0.6176059792196682,0.9083383674689919,0.023187711834907532,0.9582145810127258,0.8794842661952055,0.9030596954832586,-0.06858612596988678,0.9918690323829651,0.004842042922973633,0.7526226205257701,0.9036491467204394,178.34886455024375,179.09270399847958,1.0,5.611246225208476e-06,0.0001897302629898616,0.005329480056964481,0.03341929205667738,91.9956918216591,0.896077720215845,44,1.4666666666666666
0.7441023854805254,0.4298653898123931,0.1606650948524475,0.9999885559082031,0.655902865892203,0.5524039258551102,-0.019643420353531837,0.9999982118606567,0.8484153350942125,0.5600984037979875,-0.07070085406303406,0.999998152256012,0.6982882771481695,0.9084759683236449,0.0262286514043808,0.9999905824661255,0.8074065136304949,0.8993609519344007,-0.026397820562124252,0.9999935030937195,0.703540819968621,1.175129817022891,0.1685543656349182,0.9568785429000854,0.81024347179952,1.1762721076005336,0.06976770609617233,0.9704826474189758,0.7163801922713835,1.4362258225067843,0.22942009568214417,0.954663097858429,0.8090227382566997,1.429865389812393,0.14779742062091827,0.927798867225647,0.6178125814091483,0.9086459592839824,0.024743039160966873,0.95912104845047,0.8790839134727291,0.903477335459094,-0.0671667605638504,0.9921056032180786,0.004899471998214722,0.7528473953893322,0.9039184601290228,178.31321836642354,179.13721940009165,1.0,-5.171475317587738e-05,-6.629206615162805e-05,-0.00042512135827788537,-0.0018990007458780658,92.01329631509331,0.8959096538161743,45,1.5
0.7437766476428219,0.43045675304340775,0.15074431896209717,0.9999886155128479,0.656148244183706,0.5527213202029373,-0.02181890606880188,0.9999982118606567,0.848647149031794,0.5606011220237602,-0.07949228584766388,0.999998152256012,0.69869577405768,0.9093365013827903,0.027218256145715714,0.9999906420707703,0.8077328168393667,0.8999262031052767,-0.027388179674744606,0.9999935030937195,0.7039614011987523,1.1757422610435662,0.17141331732273102,0.9566265940666199,0.8107029568680144,1.176911078722526,0.06987011432647705,0.9706575274467468,0.7170706763322896,1.4368300360760882,0.24038346111774445,0.9551180601119995,0.8095864966762362,1.4304567530434078,0.15131035447120667,0.9287274479866028,0.6183534909658982,0.909158823112337,0.013574087992310524,0.9602336287498474,0.8793646966857711,0.904171561717067,-0.08245310932397842,0.9922581315040588,0.005014508962631226,0.7532142954485234,0.9046313522440335,178.25790897512863,179.13334048254802,1.0,-0.0006138842179105567,0.0013862137231081676,-0.004382240496486361,0.011323539782473066,91.87114693923223,0.8963509422939377,46,1.5333333333333334
0.7444778844591615,0.43099652572392083,0.14954611659049988,0.9999889135360718,0.6569502753467535,0.5534024062274857,-0.023130331188440323,0.9999982118606567,0.8494824690781457,0.5613252749071647,-0.08266416192054749,0.9999982118606567,0.699577924338665,0.910193562121177,0.027936091646552086,0.9999907612800598,0.8085969049660414,0.9008916269219706,-0.02810441330075264,0.9999936819076538,0.704849145990164,1.1771681988976752,0.1737949103116989,0.9570218324661255,0.8116753869378567,1.178275353318099,0.06755108386278152,0.9716113805770874,0.7183714626868751,1.4377356694610453,0.24126803874969482,0.9564256072044373,0.810226783318317,1.4309965257239208,0.14494988322257996,0.9313102960586548,0.6193881907435945,0.9100879670104369,0.009969739243388176,0.96153324842453,0.8801270892487344,0.905443188822298,-0.08775721490383148,0.9926259517669678,0.005035668611526489,0.7540874146523532,0.9055425945215737,178.16038047149635,179.03572442227895,1.0,-0.0004680133551936124,-0.001611369623849469,0.001119791680506733,-0.022904856743479283,91.93622942929562,0.8973759139409112,47,1.5666666666666667
0.7442647943541824,0.43088488575065653,0.15070626139640808,0.9999892115592957,0.6568572578957357,0.5533320818577548,-0.02299008145928383,0.9999982118606567,0.8493290603131214,0.5612554788000537,-0.08066023141145706,0.9999982714653015,0.6994169292765021,0.909088675733801,0.027715345844626427,0.999990701675415,0.8084216555034045,0.9003484753126751,-0.02788395620882511,0.9999936819076538,0.704751937786786,1.1773578437513361,0.16774259507656097,0.9568318724632263,0.8114783627248812,1.1782099973520228,0.0672568827867508,0.9713415503501892,0.7182409629335688,1.4376491362568102,0.2301621437072754,0.9560757279396057,0.8098697915299232,1.4308848857506566,0.14417853951454163,0.9306461811065674,0.6197094838844702,0.9098979778605094,0.01664685644209385,0.9614424109458923,0.8791335263181188,0.9054010110322386,-0.07591412216424942,0.9927666187286377,0.005036652088165283,0.7539192923899533,0.9047185755232381,178.17270380382251,179.0049746014457,1.0,-0.0005589600789693992,-0.005559028343859093,-0.0007150014056740346,-0.03101665215865161,92.23768099466264,0.8948073524048843,48,1.6
0.742908570677198,0.43145515944004237,0.1525448113679886,0.9999891519546509,0.6569263441982642,0.5537796540321493,-0.0223606638610363,0.9999982118606567,0.8493546186413575,0.5619629129636935,-0.0787079781293869,0.9999982714653015,0.6992356207967866,0.9093202285643972,0.027722317725419998,0.999990701675415,0.8085454295467671,0.9005540790243978,-0.027891114354133606,0.9999936819076538,0.7046509230867636,1.1778343442710435,0.16821995377540588,0.9546202421188354,0.8116247613806226,1.1785605424981183,0.06820254027843475,0.9706509113311768,0.7188192446375471,1.437972467305136,0.23177370429039001,0.9546527862548828,0.8100495030283114,1.4314551594400424,0.14695820212364197,0.9291176199913025,0.6198560021038458,0.9106165622715683,0.01949896477162838,0.9608189463615417,0.8788665155183956,0.9056399988820505,-0.07492232322692871,0.9927183985710144,0.005200684070587158,0.7538905251717769,0.9049371537943974,178.0378532068032,179.00850488178813,1.0,-0.0014750993001945998,0.00013406786272995646,-0.006891723328063405,0.04284180637161274,92.20122763304123,0.8937995818988136,49,1.6333333333333333
0.7425848309311683,0.43140582731180593,0.161469966173172,0.9999890923500061,0.656700438162955,0.5536380792274943,-0.01634487882256508,0.9999982118606567,0.8489936175364567,0.5621342635554979,-0.06873173266649246,0.9999982714653015,0.6983233170527265,0.9090785498454018,0.027445781975984573,0.9999906420707703,0.8076268904025365,0.9003112590744831,-0.027615923434495926,0.9999936819076538,0.704380809151706,1.177724548259455,0.1639549434185028,0.9544042348861694,0.811367062325182,1.1786514575780298,0.0664406418800354,0.9706029295921326,0.7185821831545999,1.437911631863422,0.2235523760318756,0.9542645215988159,0.8096911060163081,1.431405827311806,0.14201773703098297,0.9285922646522522,0.6198652156088491,0.9104723829356238,0.02597103640437126,0.960485577583313,0.8781472877284136,0.9061105835820508,-0.0630202665925026,0.9927372932434082,0.005401164293289185,0.7529751037276315,0.9046949044599424,178.1675160163579,178.85022972188105,1.0,-0.0050197053562886645,0.00019683115877581141,-0.02575141688327377,0.0004562061520993662,92.09314247060723,0.89307369624429,50,1.6666666666666667
0.7424894200433204,0.4314880226618114,0.15940111875534058,0.9999891519546509,0.656246773403211,0.553499605250855,-0.016579246148467064,0.9999982118606567,0.8484549947308195,0.5619884108493797,-0.07244525849819183,0.9999982714653015,0.6978119719248878,0.9088614328562051,0.027745669707655907,0.9999905824661255,0.8071911131879023,0.9000933852978967,-0.027914512902498245,0.9999936819076538,0.7042074001931447,1.1772886955515087,0.16420193016529083,0.9546244144439697,0.8109929845027274,1.1784297537510542,0.06517106294631958,0.9709530472755432,0.7183429112825609,1.4375265480224229,0.22374646365642548,0.954794704914093,0.8093633700445741,1.4314880226618114,0.1383552849292755,0.9296602606773376,0.6198386461404922,0.9102739528602265,0.027006471529603004,0.9605940580368042,0.8778454219058709,0.906083823674497,-0.07095415890216827,0.9928876161575317,0.005397796630859375,0.752501542556395,0.904477409077051,178.25572814935802,178.84846877793765,1.0,-0.0023065047566580075,3.4040209674972215e-05,0.021644898943051473,-0.0012988894121537119,92.08819388090096,0.8923751216294761,51,1.7
0.742264653014529,0.43344761202696297,0.16144560277462006,0.9999892115592957,0.6567695300022858,0.5545460875061509,-0.014650230295956135,0.9999982118606567,0.8493413898936547,0.5633481524047883,-0.06866008043289185,0.9999983310699463,0.6982786318235509,0.9099370291117903,0.027734706178307533,0.9999905228614807,0.807951552539986,0.901117933134578,-0.027903452515602112,0.9999936819076538,0.7048751016703781,1.1787200098189095,0.16431578993797302,0.9530150294303894,0.811672115986243,1.1801786771271583,0.06522631645202637,0.9704527258872986,0.7189659029361767,1.4390936726211947,0.22694031894207,0.9531254768371582,0.8101600564812497,1.433447612026963,0.14164023101329803,0.9278537631034851,0.620496710702874,0.911273898403564,0.027162954211235046,0.9605117440223694,0.8783300684959015,0.9071653266382584,-0.06939678639173508,0.9928939938545227,0.0055911242961883545,0.7531150921817684,0.9055274811231842,178.30818124078507,178.89409044980755,1.0,-0.0014011642056756305,0.0008067535634599815,0.0072331094202636,0.006156760669677626,92.064456447089,0.8894949102386145,52,1.7333333333333334
0.741968570997112,0.4332709593124413,0.15615446865558624,0.9999892115592957,0.6565950444074891,0.5543060585340323,-0.017418835312128067,0.9999982118606567,0.8487338073758921,0.5630678263544776,-0.07243673503398895,0.9999983310699463,0.6979762678574946,0.9095418182636761,0.027883458882570267,0.9999905824661255,0.8073693264262313,0.9007435170881368,-0.02805015817284584,0.9999937415122986,0.7045957928957397,1.1781523970852104,0.17229677736759186,0.9529268741607666,0.8111589468263817,1.1796623173683978,0.07116382569074631,0.9705744981765747,0.7184892074184753,1.4383138754526805,0.2470223605632782,0.9532758593559265,0.8097473242482992,1.4332709593124413,0.15983395278453827,0.928355872631073,0.6202415891212204,0.9108673365542715,0.024227721616625786,0.9605632424354553,0.8779052458896458,0.9068176211767773,-0.07098178565502167,0.9929818511009216,0.005567878484725952,0.7526727971418629,0.9051426676759065,178.35482191000924,178.90266692932812,1.0,-0.0009551336253237287,-1.874224472333354e-05,0.0034233737428821438,-0.006341642720122214,92.04610230046356,0.8892531361129313,53,1.7666666666666666
0.7418821976097066,0.4334261301027183,0.15587615966796875,0.9999892115592957,0.6565438417487355,0.5542889707624756,-0.017316561192274094,0.9999982118606567,0.848610081412388,0.5633268192855645,-0.07259051501750946,0.9999983310699463,0.697632849971949,0.9096125575821673,0.02822919748723507,0.9999905824661255,0.8069510021708751,0.9009814872766442,-0.028393860906362534,0.9999937415122986,0.7046284129754654,1.1781965749874352,0.17416875064373016,0.9524626135826111,0.8110496420900372,1.1796372283012029,0.07101171463727951,0.9706066250801086,0.7184543234348288,1.4380498206241246,0.2481798231601715,0.9530764222145081,0.8098187088810602,1.4334261301027182,0.15747015178203583,0.9283703565597534,0.6201121955664364,0.9107696760673203,0.02182648703455925,0.9610629081726074,0.8774349655469542,0.9069511006530352,-0.07082407176494598,0.9929835796356201,0.005743503570556641,0.752291926071412,0.9052970224294058,178.44635121472868,178.87942399523072,1.0,-0.0026722624874582104,0.0013715074273716271,-0.012856958260520664,0.010409269880898738,92.08193937223162,0.889574367622594,54,1.8
0.7412571792382543,0.43343509758520976,0.16681399941444397,0.9999890327453613,0.6563268065179082,0.5543085934383934,-0.011126687750220299,0.9999982118606567,0.848498417260195,0.5632412402729818,-0.0606904998421669,0.9999983310699463,0.6972011633943017,0.9093504353677571,0.02760891243815422,0.9999904632568359,0.8066207995163263,0.9009359500497738,-0.027777988463640213,0.9999936819076538,0.7045657256392687,1.178196960184758,0.16769905388355255,0.9520195722579956,0.8109291983334606,1.1794288424110395,0.0695783793926239,0.9705151319503784,0.7184637470069947,1.4380775884146795,0.23572298884391785,0.9523844718933105,0.8098729911041201,1.4334350975852097,0.15330377221107483,0.9275769591331482,0.6201721793177442,0.9102764573884725,0.02189715765416622,0.9617202281951904,0.8772204820163625,0.9072061311605659,-0.0637374073266983,0.9931790828704834,0.005676597356796265,0.751910981455314,0.9051431927087654,178.50794617076724,178.87543600739497,1.0,-0.0029582168864688025,-0.0012358852284080127,-0.002181593663719892,-0.019894000360787187,92.16984010271486,0.8889737311885149,55,1.8333333333333333
0.7406086427843824,0.43352463217890685,0.1707334667444229,0.9999889135360718,0.6562536421673978,0.5543979465926291,-0.008061821572482586,0.9999982118606567,0.848299404181866,0.5631441667703573,-0.05648890882730484,0.9999983310699463,0.6970728851837814,0.9092469790617791,0.027206819504499435,0.9999904036521912,0.8064907814148942,0.9009841221317192,-0.02737892046570778,0.9999936819076538,0.7045860741388046,1.1783087436077837,0.16444911062717438,0.9517669677734375,0.8107878647402739,1.1792186259098179,0.06865561008453369,0.9705595374107361,0.7185277222611476,1.4382208442872921,0.23070228099822998,0.9519039988517761,0.8099670008201604,1.4335246321789068,0.15067237615585327,0.9271661639213562,0.6202794286070467,0.9100662483428065,0.02195887453854084,0.9624276757240295,0.8770645358411315,0.9075150134097422,-0.06150265783071518,0.9933680891990662,0.005557596683502197,0.7517818332993378,0.9051155505967491,178.5290971962421,178.93024616699083,1.0,-0.001579994201199439,-0.0008955208456021129,0.010853967521771223,0.002680862519301224,92.24346550163138,0.888526475961625,56,1.8666666666666667
0.7392875837693113,0.4354302248978698,0.17370741069316864,0.9999886751174927,0.6573506953874839,0.5558410857047805,-0.0060939365066587925,0.999998152256012,0.84953504566843,0.5641123859698914,-0.053064167499542236,0.9999983310699463,0.6981086061895547,0.9109694450526885,0.026763951405882835,0.9999904036521912,0.8077464821823109,0.9027494095855304,-0.026938680559396744,0.9999936819076538,0.7058133623035046,1.1805395819687,0.1601785570383072,0.9517488479614258,0.8122924621481595,1.1811109659678802,0.06824400275945663,0.9706115126609802,0.7198066316255405,1.440799824825695,0.2209790199995041,0.9518600702285767,0.8114974113861418,1.4354302248978699,0.14546513557434082,0.9273262023925781,0.6215593614407898,0.911579547836024,0.0296381413936615,0.9623513221740723,0.8784451964743352,0.9092177020025694,-0.062096692621707916,0.9933744668960571,0.005246013402938843,0.7529275441859329,0.9068594273191095,178.55953422030777,178.88525697806483,1.0,-0.001907095157391303,0.00038262769296325283,-0.0023822375113590768,0.009405715806851815,92.25946726981282,0.8875009772985475,57,1.9
0.7387843487773817,0.43384424478976613,0.17582917213439941,0.9999884963035583,0.6565297553496224,0.5550632892084866,-0.004290584474802017,0.999998152256012,0.8478708163781081,0.5630525060724365,-0.052651554346084595,0.9999983310699463,0.6972635492596567,0.9093558113411127,0.02652832306921482,0.9999904036521912,0.8066590182868865,0.9012387043059564,-0.026701966300606728,0.9999936819076538,0.7049232553375374,1.1791237247061988,0.1609499603509903,0.952526330947876,0.8113000470025712,1.1792908032417928,0.06819156557321548,0.9708861708641052,0.7189362165957326,1.4390555932707711,0.22151637077331543,0.9522367715835571,0.8105315796031838,1.4338442447897661,0.14549757540225983,0.9277390241622925,0.6209234421275855,0.9099897711329121,0.030844489112496376,0.9623998403549194,0.8770494869257526,0.9081288166122996,-0.06070119887590408,0.9933089017868042,0.005073219537734985,0.7519612837732716,0.9052972578235345,178.54056566263085,178.87078353677032,1.0,-0.0004478831949235681,-0.0035819902095808056,0.011127343070040135,-0.030276708137850102,92.3150736404272,0.8876909683184278,58,1.9333333333333333
0.7383341650083155,0.4318446726062382,0.17479881644248962,0.9999887347221375,0.6552256526055483,0.5541833751482769,-0.0041031367145478725,0.999998152256012,0.8462570689249236,0.5613700217597668,-0.05437898635864258,0.9999983310699463,0.6962318374930829,0.9067002198471268,0.026784956455230713,0.9999904632568359,0.8053515004641384,0.899141943862501,-0.026960471644997597,0.9999937415122986,0.7036607695849149,1.176683476373932,0.16144157946109772,0.9532431364059448,0.8101061069812711,1.1771674849698648,0.066371388733387,0.9714934229850769,0.7177946360150383,1.436421196952133,0.22081856429576874,0.9528841376304626,0.8093940594786954,1.4318446726062382,0.1355743706226349,0.9291395545005798,0.620619225451279,0.9085532117025855,0.033560242503881454,0.9625109434127808,0.8756811174412554,0.9072313733547082,-0.06098928302526474,0.9934343099594116,0.0045702457427978516,0.7507916689786106,0.9029210818548139,178.46143789151913,178.86006961924915,1.0,-0.0005453532760716731,-0.007889502418264485,-0.0007331367023600053,-0.03222299477684135,92.67273972183335,0.8868456159190146,59,1.9666666666666666
0.737986190574495,0.43205099383801965,0.16633489727973938,0.9999884963035583,0.6538583899948713,0.5542486571826939,-0.01333901472389698,0.9999980926513672,0.845690357419598,0.561373912549676,-0.05676930025219917,0.9999983310699463,0.6961701020305945,0.9065537468489394,0.025854047387838364,0.9999904036521912,0.8051798605376029,0.898940598929457,-0.026027817279100418,0.9999936819076538,0.7035367501211415,1.175030434131132,0.16175700724124908,0.9529431462287903,0.8099244082809324,1.1764282816689495,0.06823354214429855,0.97126704454422,0.7175881305998356,1.4350161136202564,0.22812101244926453,0.9529543519020081,0.8091841122731052,1.4320509938380197,0.14678874611854553,0.9295876622200012,0.620592673487198,0.9088474462645835,0.03317839652299881,0.9621105194091797,0.8752888911462191,0.9070186340001839,-0.057230621576309204,0.9934038519859314,0.004532128572463989,0.7506749812840987,0.9027471728891983,178.47808599570482,178.85450818794294,1.0,0.00027487613709444253,7.656124514816194e-05,0.006204165849365411,0.06025082737667347,92.85339962054358,0.886855500118418,60,2.0
0.7369773064582933,0.43331106085526316,0.17357051372528076,0.9999883770942688,0.6543781457843114,0.5547879043561516,-0.005445397458970547,0.9999980330467224,0.8462256403368709,0.561908078569199,-0.05140794441103935,0.9999983310699463,0.6967184892581877,0.907607451888446,0.025565752759575844,0.9999902844429016,0.805707863372791,0.8997686901231752,-0.025740493088960648,0.999993622303009,0.7041684831054312,1.1759980033555033,0.15825626254081726,0.9531356692314148,0.8106244409995678,1.1774435259496254,0.06805430352687836,0.9713371992111206,0.718224624006555,1.4362394352669996,0.21960100531578064,0.9527350068092346,0.8099043996710527,1.433311060855263,0.1458635777235031,0.9293461441993713,0.6211394267131675,0.9096761286556377,0.045128896832466125,0.9613804817199707,0.8759064998619381,0.9078677247406838,-0.05260103940963745,0.993410587310791,0.004524856805801392,0.7512131763154893,0.9036880710058106,178.49835855141018,178.82437646988467,1.0,-0.001059237733552208,0.0010825673035274256,-0.010706608854560725,0.008071425496971287,92.72933493236583,0.8858306001323646,61,2.033333333333333
0.7373035796976571,0.4333028294089718,0.17711518704891205,0.999988317489624,0.6544131863236441,0.5546016260162602,-0.004667958244681358,0.9999980330467224,0.8462017455935193,0.5618919467060568,-0.04963068664073944,0.9999983310699463,0.6966750253515512,0.9075587599134823,0.0250321626663208,0.9999902844429016,0.8056452658542447,0.8997140227782956,-0.02520708180963993,0.999993622303009,0.7041020392612001,1.1759066359517236,0.15873655676841736,0.9527133107185364,0.8105314271311422,1.1775037192044595,0.06905011832714081,0.9710783958435059,0.7181169160790383,1.435590459610436,0.22027643024921417,0.9520619511604309,0.8098888986582728,1.4333028294089718,0.14625194668769836,0.92855304479599,0.621148715423708,0.9096440935281739,0.05217433720827103,0.9602420926094055,0.8755117730845657,0.9078157337881958,-0.036829642951488495,0.9934789538383484,0.004633277654647827,0.751160145602898,0.9036363913458889,178.4961607294712,178.84838606299004,1.0,-4.0617125490104305e-05,4.0444286658231516e-05,0.007508389481650281,-0.0076816294150770965,92.71028401613356,0.8861896971553658,62,2.066666666666667
0.7369062224469287,0.43341817977350094,0.18021604418754578,0.9999880790710449,0.6544807282027757,0.5545274416573057,-0.004214881919324398,0.9999980330467224,0.8461177395715296,0.5618536363969328,-0.04810455068945885,0.9999983310699463,0.6965927597381326,0.9072917775081446,0.02482294663786888,0.9999902844429016,0.8056400927403465,0.8997222376068305,-0.024997755885124207,0.9999936819076538,0.7037822516166462,1.1757025694651015,0.15883301198482513,0.9521466493606567,0.8105124359507234,1.1775561946069104,0.07247365266084671,0.9708634614944458,0.7176790002035771,1.435440162812873,0.22084379196166992,0.9511833190917969,0.809943395636229,1.433418179773501,0.14871373772621155,0.9276462197303772,0.6212110973084731,0.9097191325994773,0.05269519239664078,0.9588959217071533,0.87508251999039,0.9078786384357516,-0.028170425444841385,0.9934139251708984,0.004655748605728149,0.7511164262392396,0.9035070075574876,178.4717459884981,178.86788693835825,1.0,-0.0007268579086979096,-0.001451600808932101,-0.005158180385625378,-0.011215137279010412,92.83676855209491,0.8855681894191252,63,2.1
0.7369231540373561,0.4332204138146271,0.1861473023891449,0.9999877214431763,0.654067529176294,0.5545003563325325,0.0004466556420084089,0.9999979734420776,0.8455240446740981,0.5617002944016147,-0.04098602384328842,0.9999983310699463,0.696439849056986,0.906944529300409,0.024427320808172226,0.9999902248382568,0.805505737354673,0.8995558632303885,-0.024602342396974564,0.999993622303009,0.7035266909923384,1.1755115548659962,0.15915729105472565,0.9524921774864197,0.8103590244267487,1.1774175904531108,0.074934221804142,0.970720112323761,0.7171116372780049,1.435264021564413,0.2244836539030075,0.9508799910545349,0.8097460921464348,1.4332204138146272,0.1532565951347351,0.9271864891052246,0.6211244822229711,0.909646926718066,0.04966791719198227,0.9587765336036682,0.8744078219386713,0.9073504937804394,-0.02683129906654358,0.9933322668075562,0.004576236009597778,0.7509727932058294,0.9032501962653987,178.51773003224613,178.86205502542362,1.0,-0.00019514265490375794,-0.0008903040712947458,0.004146987097927673,0.004376857846827479,92.97985696798942,0.8853409721819061,64,2.1333333333333333
0.7368789480973322,0.4330502928843693,0.16658641397953033,0.9999879002571106,0.654150775978784,0.5544503974715299,-0.010544287040829659,0.9999979734420776,0.845234068859684,0.5614405498317876,-0.055245328694581985,0.9999983310699463,0.6962083356735891,0.9068652928810875,0.024433212354779243,0.9999902844429016,0.8053567679585597,0.8994541757928826,-0.024608267471194267,0.999993622303009,0.7034454221269638,1.1757857562864114,0.15934202075004578,0.9529772996902466,0.8102590684166372,1.1772698925407714,0.07465379685163498,0.9707489609718323,0.7170187333289013,1.4352590566958239,0.2246125489473343,0.9515776634216309,0.8096529617229183,1.4330502928843694,0.15268762409687042,0.927954912185669,0.6209261149001635,0.9095376382973915,0.030426135286688805,0.9597310423851013,0.873817006599943,0.906874669531671,-0.05111987143754959,0.9932926893234253,0.004443436861038208,0.7507825518160743,0.903159734336985,178.5470795493646,178.85330100763682,1.0,-0.0007975042116494293,0.00015433130946989192,-0.0048482758376278325,0.008406840305790907,92.92116174017617,0.8854740313359439,65,2.1666666666666665
0.7368619994738237,0.43296774141527183,0.16071708500385284,0.9999880194664001,0.654243313988321,0.5544353420980634,-0.013564305379986763,0.9999979734420776,0.8450427569839782,0.5610463464591764,-0.06182035803794861,0.9999983310699463,0.696037907198321,0.9068184089710253,0.024701472371816635,0.9999903440475464,0.8052232470930445,0.8993863088767597,-0.024875761941075325,0.999993622303009,0.7033924684777059,1.175876596460442,0.15944340825080872,0.9530287981033325,0.8102012015047219,1.17717591072479,0.07392459362745285,0.970683217048645,0.7169330707827183,1.435278341843226,0.22558541595935822,0.9519175291061401,0.8096018930346892,1.4329677414152717,0.15225283801555634,0.9283694624900818,0.6207847059328726,0.9094786372595476,0.02386276237666607,0.9602710604667664,0.8734288076480462,0.9063802724753334,-0.06082455441355705,0.9932515621185303,0.004202753305435181,0.7506305771456828,0.9031023589238926,178.57766910308123,178.83913565829462,1.0,-0.0007050548323146474,0.00010229510917209999,0.0006999848259167351,-0.0003941696776093148,92.86995908972415,0.8854677242392971,66,2.2
0.7365859839291169,0.4325352185207783,0.15941756963729858,0.9999880194664001,0.6537220129806567,0.5542524562422148,-0.015855589881539345,0.9999979734420776,0.8445514609998083,0.5605064301385452,-0.06323514878749847,0.9999983310699463,0.695677595685004,0.906388040840584,0.024706890806555748,0.9999903440475464,0.8047748468651479,0.8989186034976802,-0.024881254881620407,0.999993622303009,0.7030781509867164,1.1754599434295694,0.158002570271492,0.9524855017662048,0.809768466841802,1.17659495077769,0.07125818729400635,0.9700487852096558,0.716494404552475,1.4360410801247618,0.22279885411262512,0.9515817761421204,0.8092770145642407,1.4325352185207783,0.14998218417167664,0.9275048971176147,0.6204590627234713,0.9092180149873265,0.023377832025289536,0.960070788860321,0.8730457590897,0.905921236150551,-0.06223151832818985,0.9931508302688599,0.003977566957473755,0.750226221275076,0.9026533221691321,178.62814410605404,178.85970848080228,1.0,-0.0005155032448178441,-0.0003338770147117656,0.0014467172888067122,-0.0033342189942522737,92.87784574859964,0.8844064484482467,67,2.2333333333333334
0.7375286177361259,0.43471392400691106,0.16100139915943146,0.9999876618385315,0.6547173930509491,0.5557475189201811,-0.015086596831679344,0.9999979138374329,0.8457058190585676,0.561340883134514,-0.06394125521183014,0.9999983310699463,0.6966806241876468,0.9080380453513683,0.025148889049887657,0.9999903440475464,0.8059075492255097,0.9002881671808911,-0.025324096903204918,0.9999936819076538,0.7042137809651602,1.1773641685294631,0.15854795277118683,0.9524029493331909,0.8109338148446552,1.178380666011403,0.07034895569086075,0.9703448414802551,0.7178684488942986,1.438256647687041,0.2229962795972824,0.9520449638366699,0.8103988161699501,1.4347139240069111,0.1465749740600586,0.9284451603889465,0.6213277972546496,0.9108507304890676,0.02527213655412197,0.9596379995346069,0.8746347930099514,0.9072417420608074,-0.06057631969451904,0.9932434558868408,0.0035520195960998535,0.7512940867065782,0.9041631062661297,178.60613776689354,178.84496124802516,1.0,-0.0005495088855003099,0.0010626955213700363,-0.0002545875661803781,0.010705937120475816,92.73435066873657,0.8820091169785859,68,2.2666666666666666
0.7374266586373487,0.43471126367149077,0.18412691354751587,0.9999875426292419,0.6545393741937519,0.5559438134204745,0.0006838893750682473,0.9999979138374329,0.8456612961842218,0.5611066642839014,-0.04802233353257179,0.9999983310699463,0.6965413362206841,0.9080854581742112,0.025121429935097694,0.9999902844429016,0.8058945844152139,0.9003680020663981,-0.025297250598669052,0.9999936819076538,0.7041833297541797,1.177362766991093,0.16085992753505707,0.9523385763168335,0.8108936045280548,1.1785286825360832,0.07313744723796844,0.9705055356025696,0.718000865003837,1.4380015820860108,0.2236524075269699,0.9517222046852112,0.8102700058417794,1.4347112636714907,0.14842958748340607,0.928327202796936,0.6213031785887523,0.9111873078707841,0.046752236783504486,0.9586158394813538,0.874814253190828,0.9071698643776103,-0.04383903741836548,0.9933329224586487,0.0032786428928375244,0.751217960317949,0.9042267301203046,178.59095333507838,178.8309394171493,1.0,-0.0005551123893209127,0.0005258769513917879,-4.3118384445093635e-05,-0.004128592550363585,92.76498486119193,0.8824507504757343,69,2.3
0.7375516664536317,0.4350749484831715,0.17299090325832367,0.999987781047821,0.6546666883848099,0.5560152301765652,-0.004949108697474003,0.9999979138374329,0.8458910438617463,0.560918382669898,-0.05478469654917717,0.9999983310699463,0.6966580612435681,0.9083226006118414,0.02529745362699032,0.9999903440475464,0.8060816872255963,0.9005976698466378,-0.025472912937402725,0.9999937415122986,0.7042610386883531,1.1776267010739638,0.16694191098213196,0.9519479870796204,0.8110718218215986,1.1789268793145153,0.07338835299015045,0.970718502998352,0.7182222529322193,1.4377203685468773,0.2347705364227295,0.9517439007759094,0.810440462252842,1.4350749484831715,0.15084560215473175,0.9288162589073181,0.6214588649525637,0.9114506704217149,0.04647977277636528,0.9577627182006836,0.8751614367640818,0.9072482096966221,-0.047161661088466644,0.9933450818061829,0.0031129419803619385,0.7513698742345821,0.9044601352292396,178.54458799057826,178.831636500228,1.0,-0.0002933851831944969,5.320554447642967e-05,0.0021050534511464604,-0.003800701797268119,92.75881059440744,0.8825243326388114,70,2.3333333333333335
0.738639958927159,0.435164666538134,0.172658771276474,0.9999877214431763,0.6550091239067958,0.5555011133598582,-0.007167419884353876,0.9999979138374329,0.8461191208180685,0.5608487247707379,-0.05451921373605728,0.9999983310699463,0.6967987394161319,0.90844999328068,0.024910565465688705,0.9999903440475464,0.8062201651159014,0.9007401018688349,-0.025084858760237694,0.9999937415122986,0.7044735081771447,1.1778481441200692,0.16407367587089539,0.9527103900909424,0.811290129154627,1.1792572761407607,0.07123924046754837,0.9710964560508728,0.7184385183162276,1.438091021946116,0.22672609984874725,0.9522249102592468,0.8106908841413625,1.4351646665381341,0.144344300031662,0.9293934106826782,0.6215984205700782,0.9116729190932834,0.04373413324356079,0.957954466342926,0.8754081247331171,0.9074703154906197,-0.04348060116171837,0.9933479428291321,0.003394097089767456,0.7515094522660167,0.9045950475747575,178.56020504541456,178.82296996005647,1.0,-0.0006613740198889242,-0.0010464801270403542,-0.0027822437205847275,-0.008316490131884806,92.72202969410345,0.8823968202489272,71,2.3666666666666667
0.7391325808294784,0.434063638115005,0.16839918494224548,0.9999878406524658,0.6548056927344845,0.5550595823189777,-0.011533367447555065,0.9999979138374329,0.8461290799946437,0.5600460221791169,-0.05933110788464546,0.9999983310699463,0.6962982849784842,0.9066681768417528,0.024997692555189133,0.9999904036521912,0.8056475981412835,0.8987799205393915,-0.025170713663101196,0.9999938011169434,0.7041575920877585,1.1769068767799413,0.16240642964839935,0.9517790079116821,0.8106743416592214,1.1781815796612822,0.06219184398651123,0.9708800315856934,0.7179009517199715,1.4369751668472903,0.2214026004076004,0.951755702495575,0.8101031463972425,1.434063638115005,0.13041189312934875,0.9289804697036743,0.6210582060827838,0.9110928522143223,0.034218765795230865,0.9580676555633545,0.8755323578315449,0.9063825322914877,-0.054802410304546356,0.993462860584259,0.0031673014163970947,0.7509729415598839,0.9027240486905722,178.6408611705652,178.8413981706723,1.0,0.00033283228746365935,-0.009331976274932924,0.007893630429945292,-0.06582387233120733,92.60416467139308,0.8796406617415999,72,2.4
0.7396660245318548,0.4336525773722564,0.1668693721294403,0.9999876022338867,0.6549337848027552,0.5553745220053578,-0.015952493995428085,0.9999979138374329,0.8460161409263152,0.5599734413930049,-0.06120063737034798,0.9999983310699463,0.6962216942798084,0.9065525195139754,0.0249380711466074,0.9999905228614807,0.8054526679807732,0.8986735098912421,-0.025110002607107162,0.9999938607215881,0.7040610151766217,1.1767118941435062,0.16283009946346283,0.9516906142234802,0.8105585334349602,1.177903869495963,0.06382567435503006,0.9710178375244141,0.7179018250105309,1.4365500420179755,0.22235818207263947,0.95205157995224,0.8100469898564342,1.4336525773722564,0.1331365555524826,0.9296272397041321,0.6210078055901711,0.9110019728486892,0.027928534895181656,0.9572814106941223,0.8754617039683612,0.9054659116300962,-0.054812293499708176,0.9934816956520081,0.0029215216636657715,0.7508371811302909,0.9026130147026088,178.61301265820455,178.83783328352038,1.0,-0.00031432351939562176,1.704805528925406e-05,-0.0048991150103616325,0.07076991895985069,92.57977445217401,0.8806754879973302,73,2.433333333333333
0.7403675470942679,0.4337738873536768,0.17347244918346405,0.9999874830245972,0.6558313493831629,0.5556241626195773,-0.012161554768681526,0.9999979138374329,0.8466258112069686,0.5604946071891287,-0.054494328796863556,0.9999983310699463,0.6964709924687558,0.9067148999667242,0.024812297895550728,0.9999905228614807,0.8056765916498634,0.8988811182707416,-0.024982845410704613,0.9999938607215881,0.7043103115337906,1.177166949659074,0.1625492423772812,0.9514092206954956,0.8107851430886666,1.1782404484255313,0.06440778076648712,0.9708686470985413,0.718899918107943,1.4367233341306207,0.2226106822490692,0.9515861868858337,0.8102804916751991,1.4337738873536767,0.13454638421535492,0.9287045001983643,0.6211654951142338,0.9113396355162909,0.03224905580282211,0.957371711730957,0.8756596449542202,0.9057282158845625,-0.044400736689567566,0.9934648275375366,0.003093123435974121,0.7510737920593096,0.9027980091187329,178.44311215030686,178.83921491028661,1.0,0.00015551091490796984,-0.0005478422420392249,0.0034722038793690703,-0.004173926963384796,92.49970553396957,0.8808212870295667,74,2.466666666666667
0.7398020388255687,0.4327151503221334,0.17311690747737885,0.9999873638153076,0.6553289323725888,0.5550824316174813,-0.012203499674797058,0.9999979138374329,0.8459836141636955,0.5605882669316815,-0.054411519318819046,0.9999983310699463,0.6961110237637906,0.9060399742081312,0.02457066997885704,0.9999905824661255,0.8050966278364714,0.898184154712575,-0.02473992109298706,0.9999939203262329,0.7037894549969542,1.1763452681763067,0.163503497838974,0.9521854519844055,0.8101570934133717,1.1773596120547305,0.06776081025600433,0.9711466431617737,0.7186977591450027,1.4356582105655413,0.2278432846069336,0.9524745345115662,0.8097626471899387,1.4327151503221334,0.14256390929222107,0.9295441508293152,0.6206473466481285,0.9103669723781201,0.02706475555896759,0.9582149386405945,0.8749279579985109,0.9051885293050052,-0.04412873834371567,0.9934613108634949,0.003499329090118408,0.7506038258001311,0.9021120644603531,178.33673443364884,178.87303910242767,1.0,0.0007907686240119856,4.3902322008215943e-05,0.0047590508401334445,0.004429095063497593,92.50535609707859,0.8821430034777451,75,2.5
0.7392957724501239,0.4317782460471787,0.17182160913944244,0.9999874830245972,0.6548902259490714,0.5546286437202997,-0.012045144103467464,0.9999979138374329,0.8454128829212526,0.5602061093458982,-0.05694699287414551,0.9999983310699463,0.6955672629674342,0.9055352314098107,0.025086387991905212,0.999990701675415,0.8045480810047854,0.897609369070112,-0.02525165118277073,0.9999940395355225,0.7033217611363398,1.1760047800154045,0.1705644726753235,0.9526557922363281,0.8096042846572087,1.1767280989490554,0.07218784838914871,0.9714595675468445,0.7182471258779719,1.434732907361148,0.24238495528697968,0.953182578086853,0.8092160091529179,1.4317782460471786,0.15711313486099243,0.9303146004676819,0.6204254564216978,0.9095714972603522,0.03534592315554619,0.9572430849075317,0.8743409543452016,0.9045638397607706,-0.044843606650829315,0.9934139847755432,0.0035472512245178223,0.7500576719861098,0.9015723002399614,178.34066096224032,178.87498291549454,1.0,-0.00031859346667544643,0.0005673216195083444,-0.009033990082952428,0.004264712880142323,92.45257197836938,0.883534625787336,76,2.533333333333333
0.7389860033814095,0.43123351656522985,0.17052462697029114,0.9999876022338867,0.6545681934377984,0.5543822135702772,-0.011482142843306065,0.9999979138374329,0.8450492374731751,0.5599586118093586,-0.058493904769420624,0.9999983310699463,0.6951969604317937,0.905346435221931,0.025495639070868492,0.9999908208847046,0.8042081428782545,0.897296254148597,-0.0256594717502594,0.9999940991401672,0.7030393105840368,1.1759058526395862,0.17139090597629547,0.9530379772186279,0.809274402158219,1.176379221872975,0.0729200690984726,0.9717230796813965,0.7179576548596813,1.4342376734178537,0.24378351867198944,0.9536797404289246,0.8088900297132172,1.43123351656523,0.15846364200115204,0.9309404492378235,0.6203300047753803,0.9091022870535201,0.0385061614215374,0.9565110802650452,0.873992679311549,0.9041955662268429,-0.04657793790102005,0.9933876395225525,0.0035479962825775146,0.7497025516550241,0.901321344685264,178.3552027215773,178.8735966613793,1.0,-0.00041088902261702647,0.0008420556853112569,-0.0007019462204603842,0.0020883058317057073,92.37988209187323,0.8845301205938597,77,2.566666666666667
0.7390129806426482,0.4311560998593701,0.16788634657859802,0.9999876618385315,0.6543345026496159,0.5544274955439246,-0.01158672571182251,0.9999979138374329,0.8450436164450859,0.5599960147909899,-0.06282847374677658,0.9999983310699463,0.6950880425321291,0.9058741690396569,0.026060858741402626,0.9999908208847046,0.8042081521319346,0.8977522681099481,-0.026225397363305092,0.9999940991401672,0.7030445956973139,1.1760848300545839,0.1706809550523758,0.9534664750099182,0.8092696673554283,1.1764560896527758,0.07203832268714905,0.9720243215560913,0.7180583132382713,1.434250023525755,0.24280817806720734,0.9542655348777771,0.8087900183161293,1.43115609985937,0.15345855057239532,0.9316138625144958,0.6203326787654078,0.9091488042288557,0.03399559110403061,0.9564903378486633,0.8741119408113085,0.9042903903954402,-0.05256332829594612,0.993434488773346,0.003542959690093994,0.7496480973320319,0.9018132185748025,178.35831529485804,178.85167200721358,1.0,-0.00047756835841322753,0.003903716770544057,-0.0005357026127858867,0.02459838643806325,92.35771803592486,0.88646911339987,78,2.6
0.7394708263235642,0.4310929581808233,0.16519539058208466,0.9999877214431763,0.654255561812136,0.5543872528883652,-0.012018825858831406,0.9999979138374329,0.8450450928118574,0.5602007516077543,-0.0675569623708725,0.9999983310699463,0.6949902871039702,0.9059048618625435,0.026901617646217346,0.9999908804893494,0.8041608122467268,0.8978403993711278,-0.027067091315984726,0.999994158744812,0.7029977940011708,1.1758642613295027,0.17101061344146729,0.9535049796104431,0.8092490639095163,1.1764016860729427,0.07184292376041412,0.9721686244010925,0.7181045159509856,1.4341357733309739,0.2404441386461258,0.9545198678970337,0.8087414284406823,1.4310929581808234,0.1530964970588684,0.9318555593490601,0.6202633296933587,0.9091897382881078,0.025221634656190872,0.9565528631210327,0.874109963453806,0.9043545081055399,-0.06232582777738571,0.9934734106063843,0.003699004650115967,0.7495755496753485,0.9018726306168356,178.35149365271417,178.83934275213494,1.0,-0.0002592955372741461,0.0007264917163269235,0.0015450395680348802,-0.022490954496406222,92.38530815000364,0.8869219951650333,79,2.6333333333333333
0.7394573556741373,0.43110247699606363,0.17581576108932495,0.9999876022338867,0.6543615851159814,0.5543307325601443,-0.005743554327636957,0.9999979138374329,0.8450903335387516,0.5603969811052802,-0.059566646814346313,0.9999983310699463,0.6949864901215381,0.906005747184312,0.02689308486878872,0.9999908208847046,0.8041020081889718,0.89801808745723,-0.027058783918619156,0.999994158744812,0.7029603793136026,1.1757780223478922,0.17062386870384216,0.9534367322921753,0.8092426332204415,1.176454652105934,0.07191767543554306,0.9721455574035645,0.7180405671530679,1.4340163971474758,0.23934035003185272,0.9542128443717957,0.8087778074057657,1.4311024769960636,0.15288716554641724,0.93128901720047,0.6202959981185889,0.909185429293853,0.037783145904541016,0.9551964402198792,0.8744411516420215,0.9043115029916019,-0.05680248886346817,0.9934896230697632,0.0038598179817199707,0.749544249155255,0.902011917320771,178.35097634096897,178.83771317674757,1.0,-0.00023694586884362561,0.0010065925510470907,0.00016315158432449417,0.0020446787572230155,92.40270925245439,0.8874894125185944,80,2.6666666666666665
0.7393925865406763,0.43110725473182643,0.17706039547920227,0.9999874830245972,0.6543304786114112,0.5541290740721139,-0.005668011959642172,0.9999979138374329,0.8450207947540586,0.5610857785127088,-0.05686037987470627,0.9999983310699463,0.6950060273359756,0.9062039923267503,0.026605641469359398,0.9999907612800598,0.8040531761938916,0.8981218635629203,-0.026771198958158493,0.9999940991401672,0.7029845546764005,1.1755979492913184,0.16937950253486633,0.9538798332214355,0.8091882847210663,1.1764046540457151,0.07063272595405579,0.9722289443016052,0.7183475404357011,1.4336341552723055,0.23350206017494202,0.9544214606285095,0.8088993060671748,1.4311072547318264,0.14839543402194977,0.9312283992767334,0.6202451419503427,0.9091234729445258,0.04019585996866226,0.9552178978919983,0.8744021022283767,0.9042596390305342,-0.04489718750119209,0.9934536814689636,0.004426628351211548,0.7495296017649337,0.9021629279448353,178.2891493655332,178.87784377045796,1.0,0.00019008543302288536,0.0015188918955400775,0.0032668550225739075,0.003919688985903886,92.35143976280192,0.8883252706227434,81,2.7
0.7377662959542508,0.4313870490568413,0.18273448944091797,0.9999873638153076,0.6539852212935903,0.5539979903791239,0.0038962203543633223,0.9999979138374329,0.8440368347146062,0.5607210286329535,-0.05264485627412796,0.9999983310699463,0.6949099765422487,0.9061951697831836,0.027077695354819298,0.9999908208847046,0.8037753039892225,0.8979611464868836,-0.027246147394180298,0.999994158744812,0.7029120772839186,1.1754864274734906,0.16713370382785797,0.9539692997932434,0.8089855778633972,1.1762736437037429,0.06897240877151489,0.9726104736328125,0.7182132532806412,1.4333785956131753,0.23071666061878204,0.9541301131248474,0.8088055838597635,1.4313870490568412,0.1441687047481537,0.9315477013587952,0.6200848678282586,0.9089207397528791,0.049412406980991364,0.9544057250022888,0.8741736559109323,0.9040462923599897,-0.04570744186639786,0.9934505820274353,0.004278987646102905,0.7493426402657356,0.9020781581350337,178.30659247530517,178.88706920917087,1.0,-3.191574461189839e-05,0.001041859730890107,-0.001709431179945294,-0.0036711091976290053,92.30262732632896,0.8875353435711167,82,2.7333333333333334
0.7375810237937802,0.43051725452358036,0.18262751400470734,0.9999869465827942,0.6535395597914099,0.5537013605103754,-0.0029399716295301914,0.9999979138374329,0.8435155903718534,0.5599627904678115,-0.053251929581165314,0.9999982714653015,0.6949468408846029,0.9056821100951565,0.026158615946769714,0.999990701675415,0.8033408270626761,0.8974682888515125,-0.026327043771743774,0.9999940395355225,0.7025939173543848,1.1747203002221631,0.16300545632839203,0.9546215534210205,0.8085512286029863,1.1754971757998764,0.06824757903814316,0.9725878834724426,0.7177900716517961,1.4323993526099252,0.22371461987495422,0.9545146226882935,0.8083523297351982,1.4305172545235803,0.14258244633674622,0.9314375519752502,0.6197986834579743,0.9083561532734331,0.031073177233338356,0.9549585580825806,0.873586291197396,0.9031043807686229,-0.045850224792957306,0.9934033751487732,0.003987312316894531,0.7491438339736395,0.9015751994733345,178.25311739415815,178.8816869504231,1.0,0.0015094874107543371,-0.00017119172085019375,0.011625431840397566,-0.009144884593844747,92.37603363371888,0.888942787302764,83,2.7666666666666666
0.7374518662401938,0.43033590592519505,0.17351479828357697,0.9999873042106628,0.6531936582967374,0.5534676189794496,-0.0037461617030203342,0.9999979138374329,0.8432275899366232,0.5597794747496296,-0.063031867146492,0.9999983310699463,0.694319058465998,0.905608661948143,0.027828192338347435,0.9999908208847046,0.8028414999908773,0.897194569627697,-0.027995845302939415,0.999994158744812,0.7022663977585375,1.1742931688072185,0.17346824705600739,0.9545508027076721,0.8081721311437063,1.1750785601906497,0.0685645043849945,0.9730262160301208,0.7175064899582837,1.4317219897891635,0.24005453288555145,0.9549359679222107,0.8079126731610693,1.430335905925195,0.1466461718082428,0.9323574900627136,0.6197864547588271,0.9080380045594618,0.031486812978982925,0.9553982615470886,0.8732506118034201,0.9027335718325752,-0.05338578671216965,0.9935571551322937,0.004020869731903076,0.7485802792284376,0.90140161578792,178.30621702539688,178.84279479878109,1.0,-0.0022111099227672313,0.0011323696145225423,-0.027963689114117805,0.009798421622974365,92.22775592386843,0.8893577204898593,84,2.8
0.7389575628878612,0.4287680902563508,0.16923798620700836,0.9999877214431763,0.6524737009725634,0.5526811210356937,-0.008567024022340775,0.9999979734420776,0.8424730490609084,0.5592012189579648,-0.06650879234075546,0.9999983906745911,0.693527358442291,0.904095477251905,0.027970483526587486,0.9999909400939941,0.801942463071775,0.8955601545053988,-0.028139939531683922,0.9999942183494568,0.7014905878210285,1.1720061190904734,0.17194682359695435,0.9551125764846802,0.8072886994269018,1.1732500319530175,0.062287501990795135,0.9734920859336853,0.7166616702350457,1.430122010289923,0.22545143961906433,0.9559630751609802,0.8070033537232918,1.4287680902563509,0.1307494044303894,0.9337339401245117,0.61913928501414,0.9076275766574503,0.031846802681684494,0.9567757844924927,0.8723028440405344,0.902102730528462,-0.05626503378152847,0.9937480688095093,0.004158049821853638,0.747734910757033,0.8998278158786519,178.33876644200956,178.8330626728427,1.0,-0.00025298469592201336,-0.004819424882403306,0.015884965873678658,-0.048332315678500014,92.1618157985698,0.8892710539860157,85,2.8333333333333335
0.7391778398780101,0.4288712477690195,0.16668888926506042,0.9999877214431763,0.65288440412604,0.5528681363167623,-0.012729237787425518,0.9999979734420776,0.8427993907985905,0.5594767001029359,-0.06564261019229889,0.9999983310699463,0.693701786747719,0.9045004800873601,0.027711331844329834,0.9999909400939941,0.802185870005245,0.8958439487021748,-0.02787879668176174,0.999994158744812,0.7016365977092307,1.172759740350805,0.17149773240089417,0.9549839496612549,0.8075361093944728,1.1735830410893076,0.06496961414813995,0.9730919599533081,0.7168853315781551,1.4307268999445586,0.23395955562591553,0.9557508230209351,0.8072080419073726,1.4288712477690195,0.14687882363796234,0.9326333403587341,0.6191502967940261,0.9080506022361693,0.02242688089609146,0.9582632184028625,0.8725915461617787,0.9024945844088942,-0.05867458134889603,0.993644654750824,0.004213154315948486,0.747943828376482,0.9001722143947674,178.31136887543894,178.82278668524188,1.0,-0.00017774582201710763,0.0004732979128541058,0.0005566230880249224,0.039126097812674974,92.05897140711947,0.8897095205303358,86,2.8666666666666667
0.7389699664323595,0.42863825821206597,0.16997334361076355,0.9999879598617554,0.6526736459555379,0.5528336678943536,-0.012664010748267174,0.9999980330467224,0.8427262549029239,0.5597372632402253,-0.058950889855623245,0.9999983310699463,0.6935909580150493,0.9046402249663293,0.02702874317765236,0.9999909996986389,0.8022292685692115,0.8956406558072083,-0.027193943038582802,0.999994158744812,0.7010946181062246,1.172465571168403,0.17113523185253143,0.9552589058876038,0.8072136381444147,1.1731697592978607,0.071027971804142,0.972979724407196,0.7165215630041578,1.4302580591522702,0.23633554577827454,0.9556400775909424,0.8069914646398062,1.428638258212066,0.155330628156662,0.9321174025535583,0.6188663533836432,0.907846178356347,0.02454960346221924,0.959705650806427,0.8723677708964018,0.902336424990902,-0.050571173429489136,0.993508517742157,0.004402428865432739,0.7479101132921304,0.9001404403867689,178.18019736738427,178.9212609281534,1.0,0.0012402105533502459,0.0015578845973229206,0.010510600886876862,0.008040712049326212,91.89849821942587,0.8906430879252271,87,2.9
0.7386297304435251,0.4285522168593494,0.1707722246646881,0.9999879598617554,0.6524614969386892,0.5529509029544729,-0.012398164719343185,0.9999980330467224,0.8426475736515494,0.5598784073520058,-0.05659685656428337,0.9999983310699463,0.6935062584121332,0.9047519896137666,0.026520079001784325,0.9999909996986389,0.8022049438156885,0.8955249741175917,-0.026684030890464783,0.999994158744812,0.7007237074636473,1.1723461863469853,0.17109544575214386,0.9553138017654419,0.8069849886704301,1.1729085995388175,0.07322375476360321,0.9727075099945068,0.716236143636105,1.4300370325442664,0.2382405698299408,0.9554380774497986,0.8068796646978155,1.4285522168593494,0.1601143628358841,0.9314501881599426,0.6186876875995648,0.9078147957845739,0.02473805658519268,0.9606497883796692,0.872250151817918,0.902252063910624,-0.049212656915187836,0.9932861328125,0.004418283700942993,0.7478556011139108,0.9001384818656791,178.10005961993488,178.98913609410255,1.0,0.0003772428736377522,0.0009500257310047255,-0.006723518452371758,-0.004735191281859945,91.80264627002768,0.8910735585207662,88,2.933333333333333
0.7391355398958224,0.42918921203903126,0.17077863216400146,0.999987781047821,0.6529315659248408,0.5533541898047384,-0.012175487354397774,0.9999980330467224,0.8432890228007591,0.5602838859325621,-0.057348258793354034,0.9999983310699463,0.693752770898802,0.905412147246258,0.026700874790549278,0.9999910593032837,0.8027779387145574,0.8961772597125425,-0.026864726096391678,0.999994158744812,0.701230182038436,1.1731543984442705,0.17131248116493225,0.9545964598655701,0.8075543241125209,1.1735209134500393,0.07331734150648117,0.9724477529525757,0.7167497404397591,1.4310889362830168,0.23874954879283905,0.9548803567886353,0.8073250067371331,1.4291892120390313,0.15849097073078156,0.9305453300476074,0.6189434950109677,0.9083798993968214,0.02654559537768364,0.9607944488525391,0.8729183801757561,0.902972984739125,-0.049239382147789,0.9931278228759766,0.0044164955615997314,0.7482653548066797,0.9007947034794002,178.15646518083588,178.96196473016354,1.0,-0.000938977557089946,4.97493966091988e-05,-0.009528014160706618,-0.0065206411000012735,91.77228985757426,0.8907866457658019,89,2.966666666666667
0.7392089601913671,0.42922803956204475,0.15818604826927185,0.9999875426292419,0.6529943725232745,0.5533890586199506,-0.01926076039671898,0.9999980330467224,0.8434734490254294,0.5600136907192814,-0.06645757704973221,0.9999983310699463,0.6938949521154514,0.9053770491711284,0.026686882600188255,0.9999910593032837,0.802828249328032,0.8962085321576412,-0.026850590482354164,0.999994158744812,0.7013779431176709,1.1729327801863736,0.17107374966144562,0.9540872573852539,0.8076004535950975,1.1734874048983464,0.07226629555225372,0.972274661064148,0.7169251587262506,1.4312881944575968,0.2384263277053833,0.954865038394928,0.8074207851175764,1.4292280395620447,0.15746834874153137,0.9304829835891724,0.6186708657275551,0.9080100668594011,0.015726331621408463,0.9611639976501465,0.8729882753925875,0.9029969328692257,-0.05903150513768196,0.9931027889251709,0.004221796989440918,0.7483616007217416,0.9007927906643848,178.15825810362998,178.9737357798593,1.0,0.00036595976986778043,-0.000458208039502906,0.009958478145802517,-0.003876262871561396,91.81693933816261,0.8905054915979514,90,3.0
0.7394643845750654,0.42964808970567836,0.1549818515777588,0.9999876618385315,0.6531519523011732,0.5536196644457142,-0.021009474992752075,0.9999980330467224,0.8437296938622049,0.5600729085511308,-0.06969903409481049,0.9999983310699463,0.6941792209693712,0.9056087800868812,0.026625286787748337,0.9999910593032837,0.8030896086135564,0.8964703719547664,-0.026789838448166847,0.999994158744812,0.7015924011570128,1.1732728833844424,0.16632722318172455,0.953885018825531,0.8078097192534288,1.173425661087505,0.0683664083480835,0.972184419631958,0.7173691548553582,1.431749274294216,0.23007234930992126,0.9548396468162537,0.8076102568756398,1.4296480897056785,0.14803320169448853,0.9305492043495178,0.6187331846877073,0.9082409911558738,0.01650255173444748,0.9617165327072144,0.8732588265259702,0.9033044844185221,-0.06384171545505524,0.9931110143661499,0.004111349582672119,0.7486344147914639,0.9010395760208239,178.0935907404181,178.97900725194685,1.0,0.00038268591847989594,-0.00016352264118308784,0.00012710886431364606,0.0022551607195644982,91.85198622611325,0.8898516758349724,91,3.033333333333333
0.739114381901005,0.43091748559314436,0.1575756072998047,0.9999876022338867,0.6535883762887865,0.554090301611681,-0.014892970211803913,0.9999980330467224,0.8444806825116914,0.5604176835213476,-0.06853631883859634,0.9999983310699463,0.6947918078558418,0.9065750321121245,0.02795274183154106,0.9999910593032837,0.8037961014113416,0.89747880904107,-0.028117677196860313,0.999994158744812,0.7022239358052471,1.1742749987066194,0.17137674987316132,0.9530423283576965,0.808439911408694,1.1744574999806872,0.06800640374422073,0.9723030924797058,0.7181942018624213,1.4328689101963106,0.2387475073337555,0.9540851712226868,0.8083198669585376,1.4309174855931444,0.1480253040790558,0.9299341440200806,0.6191656302064423,0.9090046681091665,0.022732984274625778,0.9616997241973877,0.8740623692719918,0.904362824518564,-0.0623316690325737,0.9930210709571838,0.004027634859085083,0.7492939546335917,0.9020269205765973,178.0562990945518,179.0126528485241,1.0,2.7466526719772688e-05,0.0014522926003079808,-0.0026073300931141667,0.011850042027970029,91.89710476138121,0.8890063299834977,92,3.066666666666667
0.7395586997601626,0.43169741923757077,0.1580653339624405,0.9999876022338867,0.6542345898629703,0.5543265221413215,-0.01742204651236534,0.9999980330467224,0.8455619726598587,0.5609014208478266,-0.06965101510286331,0.9999983310699463,0.6955251580441868,0.9072073472348083,0.027920633554458618,0.9999910593032837,0.8045389682226584,0.8982034289488695,-0.028085697442293167,0.999994158744812,0.7030131004550974,1.174705488931975,0.17046229541301727,0.9522102475166321,0.8091189472664662,1.1754071525927279,0.06728993356227875,0.9721231460571289,0.7188652448238716,1.4340521676201106,0.2345331907272339,0.9537892937660217,0.8090106097224792,1.4316974192375709,0.1449008285999298,0.9297284483909607,0.6194276863060173,0.9095468196487755,0.022466834634542465,0.9616097211837769,0.8748133906891284,0.9053683267973899,-0.0650244951248169,0.9929957985877991,0.004181653261184692,0.7500320631334226,0.902705388091839,178.10567372540856,179.02922156228283,1.0,0.0007978045664669686,-0.0006436100516027249,0.005881237914162371,-0.01601127817551603,91.9522418160258,0.8883217733393517,93,3.1
0.7393058495480128,0.4322178688889012,0.15942320227622986,0.9999876022338867,0.6544491178007371,0.5547213967202583,-0.017168743535876274,0.9999980330467224,0.845823245499841,0.5608431955256288,-0.06721308082342148,0.9999983310699463,0.6958419640309806,0.9074786086988806,0.027415931224822998,0.9999910593032837,0.8049224345885078,0.8985796886732775,-0.02758209779858589,0.999994158744812,0.7036463679908523,1.1749194934398886,0.16847752034664154,0.9527333974838257,0.8094766677470567,1.175895313485471,0.06937362998723984,0.9722711443901062,0.7191269635823546,1.4345560679777545,0.23100003600120544,0.9542486071586609,0.809357877970178,1.4322178688889011,0.14541390538215637,0.9302400350570679,0.6193825538039403,0.9099299721608142,0.023949578404426575,0.9620510935783386,0.8751888846521264,0.9058951512863282,-0.061829932034015656,0.9929375052452087,0.003891855478286743,0.7503821993097443,0.9030291486860791,178.2593497593334,179.03258798552443,1.0,0.00029811508129201696,-0.00042874128368439727,-0.004032732652001985,0.0017351056338413306,92.02860156326862,0.8876637670532823,94,3.1333333333333333
0.7397387186843527,0.43243878961491733,0.16009458899497986,0.9999876022338867,0.6547655156916579,0.5553870246548789,-0.0169388335198164,0.9999980330467224,0.8462648137262438,0.5611534455167855,-0.06934215128421783,0.9999983310699463,0.6962092179153637,0.9081632810998023,0.027628308162093163,0.9999911189079285,0.8053392427910124,0.8993580978545369,-0.027793478220701218,0.9999942183494568,0.7043341281264993,1.1754437006290228,0.17647507786750793,0.9526177644729614,0.8099193601606239,1.1765125135014545,0.07393170148134232,0.9722615480422974,0.7195992786591867,1.4352660688825225,0.24761763215065002,0.954704761505127,0.8097706794161265,1.4324387896149173,0.16055983304977417,0.9305803775787354,0.6194986307066261,0.9101128280479986,0.02625912055373192,0.9618473649024963,0.8757178594794364,0.9066116544785197,-0.061638958752155304,0.9930612444877625,0.0036640465259552,0.750774230353188,0.9037606894771696,178.3787755333131,179.0199582814026,1.0,4.8577348993034246e-05,0.001966521333703826,-0.0018340951626423531,0.017595932828760884,92.08739172450784,0.8890676685765395,95,3.1666666666666665
0.7392252927704834,0.4320266451509545,0.16060607135295868,0.9999876022338867,0.653902456989244,0.5555260233891944,-0.017017969861626625,0.9999980330467224,0.8459477228769647,0.5609251274877679,-0.06889694184064865,0.9999983310699463,0.6959463327449145,0.9088300765876023,0.02747371420264244,0.999991238117218,0.805033675187043,0.8993724901728447,-0.027638819068670273,0.9999942779541016,0.7041759144830145,1.1750325344817214,0.1739969551563263,0.9532164335250854,0.809630253474287,1.1764226665320763,0.07188225537538528,0.9726948738098145,0.719398727801783,1.434503658860376,0.2465878427028656,0.9554183483123779,0.8094604370059434,1.4320266451509545,0.15560486912727356,0.9317547082901001,0.6190585275599423,0.9097402966087014,0.026301046833395958,0.9623287916183472,0.876059248975182,0.9062599498174051,-0.06416559964418411,0.9930610060691833,0.003431946039199829,0.7504900039659788,0.9041012833802236,178.41310493987908,179.01141912142438,1.0,-4.535366695004574e-06,0.005278078344978523,-0.00041088421012576323,0.025633074151684473,91.83139129175011,0.8920561063510788,96,3.2
0.7385650468085501,0.4307095322648739,0.17705342173576355,0.9999877214431763,0.6532019939333604,0.5551785537542421,-0.008614568039774895,0.9999980330467224,0.8451694416629658,0.5603319699781114,-0.056304700672626495,0.9999983310699463,0.6953535548093485,0.9080266174430431,0.026820939034223557,0.9999912977218628,0.8045619195714259,0.8985477566469715,-0.026986781507730484,0.9999943375587463,0.7035099374632205,1.174009746888279,0.16903413832187653,0.9536823630332947,0.8088247838015469,1.1755234791747282,0.07179366052150726,0.9729354977607727,0.7188325655921382,1.4331709632646366,0.2353963851928711,0.9554576277732849,0.8085891706872741,1.430709532264874,0.15078386664390564,0.9320561289787292,0.6184842375997591,0.9088668615869447,0.03604697808623314,0.9613141417503357,0.8757228884369094,0.9050832803359965,-0.053863056004047394,0.9930627942085266,0.003278791904449463,0.7499577371903872,0.9032871870450073,178.37281445127275,179.0653434321022,1.0,0.0012589747300904136,0.00014292573432512015,0.010039798931458215,-0.040765246131663414,91.8517055457042,0.8938824048069456,97,3.2333333333333334
0.7380868947978723,0.42967850812160147,0.17923544347286224,0.9999878406524658,0.6527586819621264,0.5547914836791863,-0.007626686245203018,0.9999980330467224,0.8446189369784096,0.5598996546744216,-0.05422766134142876,0.9999983310699463,0.6949259252948599,0.9074107846509399,0.02624284103512764,0.9999913573265076,0.8042272846339947,0.8979275784312973,-0.026409531012177467,0.9999943971633911,0.7030324072036979,1.1732428567710533,0.16541749238967896,0.9541022777557373,0.8082546163399683,1.1747457336104226,0.07170923054218292,0.9729511737823486,0.7184225007803201,1.4321803070238919,0.22783496975898743,0.9554257392883301,0.8078374470135975,1.4296785081216015,0.14833948016166687,0.9318913221359253,0.6180603236582379,0.9082130117509559,0.03969420865178108,0.9602935910224915,0.8754578236755576,0.9043238627033583,-0.05275840312242508,0.9930649995803833,0.0032522082328796387,0.7495766049644274,0.9026691815411186,178.34527350884295,179.07272417241825,1.0,0.000980759932624534,-4.740068296396013e-05,-0.00214399146647219,-0.0014704633730093827,91.86053440193503,0.8953412174455955,98,3.2666666666666666
0.7373766822904747,0.4279184071149377,0.18531876802444458,0.9999878406524658,0.6519044394258549,0.5540908764706198,0.00038199039408937097,0.9999980330467224,0.8435812844373828,0.5591578805635418,-0.049697134643793106,0.9999983310699463,0.6940735267269506,0.9065080707164519,0.02623332105576992,0.9999914169311523,0.8032590962845321,0.8969386421710042,-0.026400208473205566,0.9999944567680359,0.7020433752942175,1.1727678685178358,0.1654721200466156,0.9552370309829712,0.8072574384513052,1.173797819617366,0.07150430977344513,0.9735035300254822,0.7173789404220274,1.4309960113355398,0.22880041599273682,0.9562960863113403,0.8068344244908626,1.4279184071149378,0.1483144909143448,0.9330961108207703,0.6174358144807011,0.9070965874863512,0.041621413081884384,0.9605217576026917,0.8744383014643025,0.9033140535027571,-0.05009617656469345,0.9932172894477844,0.003229975700378418,0.7486663115057413,0.901723356443728,178.31582941166386,179.0772283338614,1.0,9.848421023634773e-05,0.001287562940470037,-0.006848645467465689,0.010376374818662293,91.81456763137787,0.8977714671497469,99,3.3
0.7369124732284024,0.4267959864095597,0.1829817295074463,0.9999878406524658,0.6514199225539263,0.5529962230088099,-0.0018328264122828841,0.9999980926513672,0.8430341517748682,0.558586487678524,-0.05228657275438309,0.9999983310699463,0.6935414571972146,0.9059189993309437,0.026233356446027756,0.9999914169311523,0.8027653705413376,0.8963587823922314,-0.02640012465417385,0.9999944567680359,0.7016005957965321,1.1721831420230917,0.17063994705677032,0.9559130072593689,0.8067503672334334,1.173020864091859,0.07216684520244598,0.9735512137413025,0.7168563883666429,1.43007875428439,0.2461855709552765,0.9568197131156921,0.8063079116845643,1.4267959864095596,0.15891535580158234,0.9333207011222839,0.6170711685311784,0.9064463016883394,0.04032496362924576,0.9610224962234497,0.8739314721855715,0.9027061272851638,-0.05508921295404434,0.9931613802909851,0.003565847873687744,0.7481534138692761,0.9011388908615876,178.34828656181992,179.07488297735102,1.0,-0.00021474660247952797,1.4572090882539398e-05,-0.0025703620536030826,-0.01044138750623471,91.8038180574633,0.8995301467869413,100,3.3333333333333335
0.7369441799995561,0.42685261263113383,0.18079084157943726,0.9999876618385315,0.6512723063319203,0.5527177835066599,-0.0015939308796077967,0.9999980926513672,0.842913381871787,0.5578205120717307,-0.053502846509218216,0.9999983310699463,0.6936370082152481,0.9058873414158074,0.02654389478266239,0.9999913573265076,0.8028152147376856,0.8963811557416209,-0.0267119612544775,0.9999943971633911,0.7016531186521059,1.1722925717009056,0.16909834742546082,0.9562823176383972,0.8067548893750781,1.1729125992447065,0.06976199150085449,0.9739043712615967,0.7168736033902938,1.4301208633194369,0.23361320793628693,0.9571236968040466,0.8063438115807782,1.4268526126311338,0.14600934088230133,0.9339743256568909,0.6171061721242251,0.9066524937185416,0.04005204886198044,0.9613882303237915,0.873971108211627,0.9026022700857735,-0.05438295006752014,0.9933208227157593,0.003254711627960205,0.7482261114764669,0.9011342485787142,178.34506039023498,179.09102625280568,1.0,0.0002759133735574821,-0.0003448917169468527,0.003603845809129617,-0.0026401745468507907,91.86405715308085,0.8993258120992569,101,3.3666666666666667
0.7366519046528788,0.4267122483426013,0.1786036193370819,0.999987781047821,0.6510076104285598,0.5525448476854053,-0.005627995356917381,0.9999980926513672,0.8425931037678118,0.5575496682493586,-0.05423799157142639,0.9999983310699463,0.6934437994918161,0.9055573942294659,0.026067009195685387,0.9999913573265076,0.8025494015560132,0.8960495662893633,-0.02623533084988594,0.9999943971633911,0.7014323160780404,1.1718471965765356,0.16852693259716034,0.9567866325378418,0.8064661039296961,1.1726037462801884,0.06965110450983047,0.9741510152816772,0.7166026836169671,1.4296552164144103,0.23150520026683807,0.957520604133606,0.8062612498118901,1.4267122483426014,0.14473247528076172,0.9345584511756897,0.6168904788981109,0.9063347749720019,0.039786338806152344,0.9617874622344971,0.8736399456748924,0.9019813680836164,-0.05264032632112503,0.9933260679244995,0.003193467855453491,0.7479966005239146,0.9008034802594146,178.35070974887486,179.14241197345004,1.0,0.00041019581344986435,7.30683900501522e-05,0.0010407779435992136,0.0032359485952934176,91.87435772401281,0.8989182354640879,102,3.4
0.7361840803742215,0.4273163840197633,0.17773376405239105,0.9999879002571106,0.6512556299418664,0.5531566408993964,-0.008844433352351189,0.9999980926513672,0.8429873611385358,0.5577637151817818,-0.054087281227111816,0.9999983310699463,0.6937739620334205,0.9059545877911153,0.02505326271057129,0.9999913573265076,0.8028701501339636,0.8965067236903916,-0.02522171474993229,0.9999943375587463,0.7016870224706134,1.1723847852961622,0.1639547199010849,0.9568052887916565,0.8067946274022074,1.173054065851338,0.06824220716953278,0.9740977883338928,0.7168891387503069,1.4302099337419727,0.22407594323158264,0.9573996067047119,0.80675939719147,1.4273163840197634,0.14195063710212708,0.9342917799949646,0.617107416538743,0.9068937485813299,0.039260927587747574,0.9627577662467957,0.8739960207617146,0.902131315611011,-0.05199630931019783,0.9933333396911621,0.0029385387897491455,0.7483220560836921,0.9012306557407535,178.32678459640888,179.179032604958,1.0,0.0002764916250394752,0.0006009605886140778,-0.0010181650133468184,0.004014953300073307,91.92246598931688,0.8983580514539689,103,3.433333333333333
0.7365496261407801,0.4281951906478414,0.1572524607181549,0.9999880194664001,0.6516514572002947,0.5536230642743504,-0.018665172159671783,0.9999980926513672,0.8436606865305535,0.5582478279576689,-0.07309838384389877,0.9999983310699463,0.6943734831422642,0.9065915084906632,0.026617836207151413,0.9999914169311523,0.8033936377520601,0.8972537122821932,-0.026784315705299377,0.9999943971633911,0.7021110325719975,1.1728894407977184,0.1665550023317337,0.9563113451004028,0.8072833576158361,1.1737524931389443,0.06712207198143005,0.9742158651351929,0.7173600360293964,1.430803235707589,0.23097562789916992,0.9576147794723511,0.807253622984795,1.4281951906478414,0.14263780415058136,0.9350923299789429,0.6174188086782672,0.9074605451601488,0.024569766595959663,0.9634876847267151,0.8748598884081739,0.9021375786781376,-0.06683805584907532,0.9933783411979675,0.0029480457305908203,0.7488835604471621,0.9019226103864282,178.28067654366856,179.1873339171488,1.0,0.000856878161203509,0.0011536011731067511,0.004490809312021534,0.004274547260836626,92.00575323268534,0.897942082834877,104,3.466666666666667
0.7397385201436578,0.4282419173786721,0.15825395286083221,0.9999881386756897,0.651611422954041,0.5537259516529395,-0.017296304926276207,0.9999980926513672,0.8437777816327255,0.5584137343204223,-0.07100607454776764,0.9999983310699463,0.6942637645518885,0.9068832964403927,0.02676570415496826,0.9999914765357971,0.8034878943445907,0.897689059117561,-0.0269317626953125,0.9999943971633911,0.7021876303528878,1.1730151187256614,0.16848969459533691,0.9572024345397949,0.8073942552124906,1.1737461352655536,0.06717253476381302,0.9747523665428162,0.717214803603948,1.4309114323009904,0.2340056151151657,0.958540678024292,0.8072999908307316,1.4282419173786722,0.14381280541419983,0.9364839792251587,0.6174443252164188,0.9075948615999219,0.02429872564971447,0.9642977714538574,0.8756167922831511,0.9021534314596246,-0.06477126479148865,0.9935394525527954,0.0029878616333007812,0.7488758294482396,0.9022861777789769,178.37067736857512,179.1680648607252,1.0,-0.0007035187785997195,0.00186234553272401,-0.011339837250319966,0.005149308185372107,92.07482142758289,0.8988940631859265,105,3.5
0.7403490293783366,0.42948807046480314,0.16092902421951294,0.9999884366989136,0.6521800436895108,0.554210494935946,-0.0170854814350605,0.9999980926513672,0.844417588158924,0.5589076929686357,-0.06988576799631119,0.9999983310699463,0.6949227206328249,0.9076827664919292,0.02756478823721409,0.9999914169311523,0.8043565774671708,0.898474723346408,-0.02772960066795349,0.9999943971633911,0.7028501139410984,1.1741080073818595,0.16984039545059204,0.9566193222999573,0.808133617009089,1.1748186007357337,0.0672362670302391,0.9745270013809204,0.7177938678376856,1.4320808189494805,0.23559066653251648,0.957772970199585,0.8079935949256596,1.4294880704648032,0.14385253190994263,0.9357277750968933,0.6179794626165841,0.908371645191154,0.02995416522026062,0.9638524651527405,0.8764134766013832,0.9026397251448868,-0.06423567980527878,0.9935023188591003,0.0029912590980529785,0.7496396490499979,0.9030787449191686,178.38900996474496,179.1854336710611,1.0,0.0009123172078678272,5.871159632747405e-05,0.01316831026209151,-0.014706413218133187,92.08517774862332,0.897339273152477,106,3.533333333333333
0.7408916926466895,0.4305647963142167,0.16194455325603485,0.9999885559082031,0.652692984742827,0.5546432872532359,-0.01642446033656597,0.9999980926513672,0.8449517419299725,0.5595864153338508,-0.06906469166278839,0.9999983310699463,0.6957128676915174,0.9084029149580956,0.027717137709259987,0.9999913573265076,0.8052455120355502,0.899253369597177,-0.027880489826202393,0.9999943375587463,0.7034123151631007,1.1750205674855663,0.1711021214723587,0.9557746052742004,0.8087662684057101,1.1758041130474994,0.06922860443592072,0.9738160967826843,0.7183911959640426,1.433096683527493,0.24063310027122498,0.9569080471992493,0.8086062808600099,1.4305647963142167,0.1544240266084671,0.9339589476585388,0.6183226860747421,0.9087331936970527,0.025958847254514694,0.9644277095794678,0.8770870389387018,0.9027917358377067,-0.06532071530818939,0.9933443665504456,0.003145456314086914,0.7504791898635338,0.9038281422776363,178.33238917635077,179.23462788592838,1.0,0.001956648335135742,0.00041463095432639566,0.007738127239995155,0.0026386736097980556,92.15858172725993,0.8962364992429964,107,3.566666666666667
0.7408994829680137,0.4306494725468146,0.1549985110759735,0.9999889135360718,0.6528035367442113,0.5542152930745629,-0.022519420832395554,0.999998152256012,0.8449901666033589,0.5596471499074269,-0.07763580977916718,0.9999983906745911,0.6962179243687915,0.908232653621355,0.02795984409749508,0.9999914169311523,0.8055017374129478,0.8990620920803102,-0.028122682124376297,0.9999943971633911,0.7036722432181413,1.175041766760918,0.17101700603961945,0.9563984870910645,0.8088546938251702,1.1759178968755606,0.06631501019001007,0.9743020534515381,0.7184829919005036,1.432976795619443,0.23585014045238495,0.9578519463539124,0.8088220017039246,1.4306494725468146,0.14074048399925232,0.9355593323707581,0.6184823830214545,0.9087303419886271,0.025370866060256958,0.9649977684020996,0.8770502713961269,0.9023504136396401,-0.072968490421772,0.9934157729148865,0.003456294536590576,0.7508598308908697,0.9036473728508326,178.31401585293497,179.298780580895,1.0,0.0026512031946470545,-0.0016881860477212947,0.005303256439362034,-0.016058165434272922,92.19473048636503,0.895481448994803,108,3.6
