nose_x,nose_y,nose_z,nose_visibility,left_shoulder_x,left_shoulder_y,left_shoulder_z,left_shoulder_visibility,right_shoulder_x,right_shoulder_y,right_shoulder_z,right_shoulder_visibility,left_hip_x,left_hip_y,left_hip_z,left_hip_visibility,right_hip_x,right_hip_y,right_hip_z,right_hip_visibility,left_knee_x,left_knee_y,left_knee_z,left_knee_visibility,right_knee_x,right_knee_y,right_knee_z,right_knee_visibility,left_ankle_x,left_ankle_y,left_ankle_z,left_ankle_visibility,right_ankle_x,right_ankle_y,right_ankle_z,right_ankle_visibility,left_wrist_x,left_wrist_y,left_wrist_z,left_wrist_visibility,right_wrist_x,right_wrist_y,right_wrist_z,right_wrist_visibility,trunk_lateral_inclination,center_mass_x,center_mass_y,left_knee_angle,right_knee_angle,person_height,center_mass_velocity_x,center_mass_velocity_y,center_mass_acceleration_x,center_mass_acceleration_y,body_orientation,torso_leg_ratio,frame,timestamp
0.9891487487070361,0.5063148365575701,-0.25351300835609436,0.9998996257781982,0.9582895740828858,0.600722610306942,0.05076078698039055,0.99994957447052,0.9257168409163409,0.6149653143089959,-0.3204509913921356,0.9999741911888123,0.9693138288825339,0.9838060792326861,0.11730760335922241,0.9999520778656006,0.9456626122945532,0.9898505652229999,-0.11751103401184082,0.999943196773529,0.955413482030838,1.2542932556475634,0.22022151947021484,0.9350883960723877,0.947986219368655,1.2802590067930208,-0.07585393637418747,0.9441831111907959,0.9445344917789964,1.5063148365575703,0.330084890127182,0.9611851572990417,0.9344381364383448,1.546967323610724,-0.007018323987722397,0.8997957110404968,0.9970663443941911,0.8911802728867007,0.0259677954018116,0.8511293530464172,1.0019647733992978,1.024397144305468,-0.45787596702575684,0.9964754581451416,0.008140742778778076,0.9574882205885435,0.986828322227843,179.52990215991588,176.6336007443531,1.0,0.30038432931770837,-0.11273135255995397,1.6978900535327963,-0.5988240638553941,102.68770136502316,0.8915800516613,0,0.0
1.0449180473341495,0.5465742596319497,-0.2840169668197632,0.9999068975448608,0.9866416135372367,0.6389172661317585,0.008619816042482853,0.9999426603317261,0.9742226104129722,0.6483969489282668,-0.36011821031570435,0.9999761581420898,1.014006808430663,1.0146568656254487,0.12076113373041153,0.9999526143074036,1.0077445435476726,1.0250987704292982,-0.12095414102077484,0.9999474883079529,1.0083359506048104,1.2876080653314568,0.2468114197254181,0.8790578246116638,1.0098024220762607,1.3173016052804312,-0.07393179833889008,0.9387126564979553,0.9891171290125333,1.5465742596319496,0.35677605867385864,0.9363609552383423,0.9878191949254768,1.609235935876867,-0.0031959388870745897,0.9050303101539612,1.0660634932436241,0.9746491865999916,0.011131083592772484,0.7722120881080627,1.0525397308351137,1.0658590898828622,-0.5121306777000427,0.9963898658752441,0.00518307089805603,1.0108756759891677,1.0198778180273735,176.94586375297644,175.29013611371036,1.0,0.07126469686686492,-0.08429469464680199,-1.742648293699569,0.24086919223164913,144.88234731457084,0.849676330448161,1,0.03333333333333333
1.0534339489968507,0.5511629772765918,-0.22687050700187683,0.9999144077301025,0.9720318648517585,0.6443477620371468,0.06147569417953491,0.9999222755432129,0.9826417991653452,0.6580057934600549,-0.33284032344818115,0.9999774694442749,1.0126863029493853,1.0247527346977,0.12056779861450195,0.9999510645866394,1.013401408360074,1.0332342200227873,-0.1207960844039917,0.999950647354126,1.0132013015159436,1.2950303788366475,0.28388547897338867,0.8230535387992859,1.0182495360823471,1.321721477450056,-0.03075791522860527,0.9370783567428589,0.9972879334313423,1.5511629772765918,0.4407784044742584,0.9059054851531982,0.9980419211242785,1.6158641902121247,0.0786764994263649,0.9107807278633118,0.9891548552607043,0.653178421209573,0.3818618655204773,0.7051308155059814,1.0593432892055938,1.06308004082092,-0.4201439321041107,0.9954683184623718,0.007432669401168823,1.0130438556547297,1.0289934773602436,176.33564285008066,175.1071683171948,1.0,-0.0193800435465597,0.03241920798042944,-0.6824864758487107,0.8785043468394927,178.71929046152056,0.8644386441077189,2,0.06666666666666667
1.042763983442411,0.5497233685804851,-0.27408722043037415,0.9999226927757263,0.9689599312281114,0.6452160375582913,0.062102388590574265,0.9999101161956787,0.9737122523146968,0.6558776271066434,-0.3235403001308441,0.9999791979789734,1.0042851373074932,1.0201068481006677,0.12638026475906372,0.9999493956565857,1.0064481802590899,1.027582767417034,-0.1266065537929535,0.9999539256095886,1.0047893542787123,1.2904400146849386,0.27814361453056335,0.789330244064331,1.010060031293863,1.3145304052567772,-0.045995987951755524,0.9388161301612854,0.9911386260054906,1.5497233685804852,0.4208386540412903,0.8878747224807739,0.9927540562629354,1.6031649294691708,0.03426211327314377,0.9168438911437988,1.0242186744194557,0.8917420821431005,0.08460499346256256,0.6416580080986023,1.0560549296317687,1.0537301587603702,-0.42522525787353516,0.9957001805305481,0.0058428943157196045,1.0053666587832917,1.0238448077588507,176.87941285717037,175.84761014361172,1.0,-0.00445733114244839,0.015518573005500184,0.11188336758595788,-0.12615858142567032,169.2459802718665,0.8603924268403155,3,0.1
1.0299953542809446,0.5423866787901701,-0.25070470571517944,0.9999302625656128,0.9493790716535805,0.6416193667701162,0.0702383890748024,0.9999063014984131,0.9675043612050327,0.649730461248008,-0.3306038975715637,0.9999810457229614,0.9833489175732517,1.0087838801393738,0.13263541460037231,0.9999504089355469,1.000761820550155,1.0156600386810113,-0.13282175362110138,0.9999576807022095,0.9876166816455195,1.2792647792273275,0.2539939284324646,0.7747220993041992,1.0009384932803644,1.297899453657851,-0.09476916491985321,0.9437049627304077,0.9790142027035871,1.54238667879017,0.37497591972351074,0.8833340406417847,0.9829590339569501,1.5837714061204204,-0.04960076883435249,0.9241257309913635,1.0160516417399428,0.9821878639374957,0.05586295574903488,0.5825945734977722,1.0423043067416873,1.0391297857864639,-0.4344209134578705,0.996006190776825,0.0044987499713897705,0.9920553690617033,1.0122219594101924,177.22348250901743,176.36534837058934,1.0,-0.009744285715886113,0.004229906738956255,-0.03909766137821173,-0.08129673726020216,116.83442719475148,0.8555176888073883,4,0.13333333333333333
1.0326782662530156,0.5446327410812982,-0.2837308943271637,0.9999371767044067,0.9572597938873244,0.6462343522850535,0.044674843549728394,0.9999086856842041,0.9683278738422114,0.6515306802132176,-0.3397364020347595,0.9999827742576599,0.9871350950287734,1.0130403732170787,0.12961404025554657,0.9999517798423767,1.0070192687414745,1.0192154974244538,-0.1297881305217743,0.9999611377716064,0.9885546848728265,1.286974112613537,0.270871102809906,0.7521706223487854,1.0030316774074501,1.3041799166030037,-0.10817904770374298,0.9480594992637634,0.981844748972627,1.5446327410812983,0.40421468019485474,0.8756951093673706,0.9881291635984872,1.5877486734255712,-0.05990784615278244,0.9305821061134338,1.0301971366341482,1.003590632151301,0.049206577241420746,0.5338342785835266,1.046894858737284,1.0432511980989072,-0.4781875014305115,0.9963030219078064,0.0029289424419403076,0.997077181885124,1.0161279353207664,178.21132501389266,177.79338159639929,1.0,0.016572403685636602,0.007306118021867023,0.20773034282312894,0.024157417230772128,111.90872816131639,0.8593957665830482,5,0.16666666666666666
1.0376507953756076,0.5490578096769203,-0.29889512062072754,0.9999434351921082,0.9667480068774528,0.6493789573780223,0.045395057648420334,0.999913215637207,0.9720701216491897,0.6545770637089433,-0.34699922800064087,0.9999843835830688,0.9951597667383335,1.0197137633590356,0.13200685381889343,0.9999532699584961,1.0108070617899845,1.0246244325475147,-0.13220541179180145,0.9999642372131348,0.9954155917596581,1.2936375102597057,0.2540314197540283,0.7317326664924622,1.0079145798193316,1.3133723664405506,-0.09493451565504074,0.9515729546546936,0.9877199109676872,1.5490578096769203,0.3877490162849426,0.8659980297088623,0.9936180929345391,1.5975067742389735,-0.026903662830591202,0.9359737634658813,1.0381409730341016,1.0527579189854537,0.05293989181518555,0.4949013590812683,1.053254928766179,1.0501242985348949,-0.49485698342323303,0.996599555015564,0.002856999635696411,1.002983414264159,1.0221690979532752,178.2207199331242,177.69347002425297,1.0,-0.0018576211764638182,-0.001725521841584579,-0.14064973282587062,-0.06888728172360066,111.8107719549302,0.8605487569959419,6,0.2
1.0399466948924765,0.5503117793075458,-0.2943432033061981,0.999949038028717,0.9698295331676013,0.6516720676658184,0.05750981718301773,0.9999173283576965,0.9743934621855475,0.6557337872286004,-0.3422110080718994,0.9999858140945435,0.9998100673855685,1.0230720004471818,0.13399092853069305,0.9999537467956543,1.011979566012948,1.0269224179373384,-0.13420499861240387,0.9999668598175049,1.0051446019035783,1.29311768051877,0.26018041372299194,0.7015684843063354,1.0112612694665297,1.3139867780147751,-0.09565013647079468,0.9544574618339539,0.9909440803691729,1.5503117793075458,0.39549344778060913,0.8517442941665649,0.9928124126428239,1.6015861901752366,-0.028519120067358017,0.9405054450035095,1.0439450129584287,1.0343471355926923,0.0662907287478447,0.46148309111595154,1.0557884778165176,1.052343155653448,-0.4979201853275299,0.996877908706665,0.0022261738777160645,1.0058948166992583,1.0249972091922601,175.70803798283194,176.47299928124502,1.0,0.0007416977168880548,-0.00028062045931467135,0.019424109702942487,0.010811902171008188,112.17240348609627,0.8635051948259982,7,0.23333333333333334
1.0391066565113023,0.5481177330378203,-0.26525071263313293,0.999954104423523,0.9693155941582917,0.6524538970197422,0.06607729196548462,0.9999221563339233,0.971767841076075,0.6541743454306072,-0.3346092104911804,0.9999871253967285,0.9983475097356016,1.0215393670903665,0.13176625967025757,0.9999542832374573,1.00755681561587,1.0250766646054867,-0.13195694983005524,0.9999692440032959,1.0053157166132265,1.2904946962249142,0.2509087920188904,0.6621192693710327,1.0061374022531708,1.3112106407259059,-0.08590969443321228,0.9557325839996338,0.9891486255519156,1.5481177330378204,0.3813249468803406,0.8259895443916321,0.9892406838717298,1.5984989283022013,-0.016035575419664383,0.9433960914611816,1.0438794678681724,1.0202569556139942,0.07875917851924896,0.4288230240345001,1.0540221669486314,1.0496871754075752,-0.4801854193210602,0.9971032738685608,0.0009446144104003906,1.0029521626757358,1.0233080158479266,174.92501077126443,176.91827717221665,1.0,-0.008729782426662745,0.0008306014409923446,-0.07034712545952487,0.008250804683551749,115.50937096658298,0.866205133038163,8,0.26666666666666666
1.0399540067155666,0.5474745317180113,-0.28168171644210815,0.9999586343765259,0.9707111908055978,0.652786573729321,0.049111392349004745,0.999926745891571,0.9709158900090182,0.6536571422927548,-0.3347858786582947,0.999988317489624,0.9996514903806026,1.0222338500631518,0.12925298511981964,0.9999549984931946,1.0058371833823754,1.0251899409986565,-0.129441499710083,0.9999713897705078,1.0050246816661472,1.2916857283302938,0.25442537665367126,0.6336729526519775,1.0060998408968387,1.3122259801059726,-0.08524499833583832,0.9575622081756592,0.9894603788194283,1.5474745317180114,0.38189542293548584,0.8114066123962402,0.9895944209807349,1.5979725010606696,-0.001860827556811273,0.9464713931083679,1.0443018568692375,1.0154233143709803,0.06327805668115616,0.3976069688796997,1.053696855674797,1.049350090882756,-0.4792209565639496,0.9972882270812988,0.0004780888557434082,1.002744336881489,1.0237118955309041,175.37555024057113,176.6416991345266,1.0,4.924501588503116e-05,0.004868464156633942,0.06866161640259336,0.03158860485120018,120.02180886195491,0.8698337708158964,9,0.3
1.0352517464638766,0.543338129716904,-0.2652197778224945,0.9999626874923706,0.9666729225063347,0.6497730036739657,0.051628001034259796,0.9999313354492188,0.9661844705741166,0.6497065780963519,-0.3358653485774994,0.99998939037323,0.9959215450794403,1.0168236400374746,0.12897394597530365,0.9999558925628662,1.001077702385137,1.019659596704471,-0.12914830446243286,0.9999732971191406,1.0010619458711945,1.2835773200738312,0.24406775832176208,0.5924230217933655,0.9992964608603337,1.304755585711173,-0.08191483467817307,0.9559574127197266,0.9838174126530634,1.543338129716904,0.3763003647327423,0.7780218720436096,0.9837383063193658,1.589025329027848,-0.0023134364746510983,0.9460315108299255,1.0395093507895363,1.010046720222266,0.07008812576532364,0.3720160722732544,1.0488469199630608,1.0432740784085144,-0.47689351439476013,0.9974392056465149,3.668665885925293e-05,0.9984996237322886,1.0182416183709728,175.0979585211685,177.22528466031693,1.0,0.010798873860243176,0.002473532693265248,0.08086166100508235,-0.017807414685269137,123.36740949699207,0.8689819465214258,10,0.3333333333333333
1.0350661664256564,0.5433082744114914,-0.2450093924999237,0.9999663233757019,0.9656233270100137,0.6504100190863291,0.06330888718366623,0.999935507774353,0.9654245279181538,0.6486216892610724,-0.33371609449386597,0.9999903440475464,0.9943529744142336,1.0156611123062402,0.12962272763252258,0.9999570846557617,1.000020310909927,1.0182483020052364,-0.12979403138160706,0.9999752044677734,0.9994435241680703,1.2817150683192744,0.23630230128765106,0.548669695854187,0.9980651837978417,1.3028917509852274,-0.08715690672397614,0.9533814787864685,0.982212330036878,1.5433082744114914,0.3553279936313629,0.7382113933563232,0.9819813136396165,1.5866154443835836,-0.02482590824365616,0.9438264966011047,1.0400735330364492,1.0123814121663859,0.07879532873630524,0.34602582454681396,1.0472044402989356,1.0418242580470398,-0.46940699219703674,0.9975983500480652,0.0009892582893371582,0.9971866426620803,1.0169547071557383,175.1352239746863,177.14900151096103,1.0,0.001975066995455964,0.0023940802126194306,-0.06431353669528646,-0.0005515807566765927,119.03458958347072,0.8667352397672358,11,0.36666666666666664
1.0345847960709178,0.5436158603911747,-0.24468818306922913,0.9999696016311646,0.9655122143186688,0.651981256860578,0.06788302212953568,0.9999390840530396,0.965118143257751,0.6479419208164808,-0.32984399795532227,0.9999911785125732,0.9922991408497184,1.0153871828925785,0.13037702441215515,0.9999585151672363,0.9971938049014473,1.0176178835046268,-0.13054241240024567,0.9999769926071167,0.9981471123258645,1.2820787571472485,0.23950812220573425,0.5082806944847107,0.9965701820640602,1.3028361811068767,-0.09019507467746735,0.9521967768669128,0.9814629403622978,1.5436158603911747,0.35994642972946167,0.7045295834541321,0.980665646316916,1.589800988730752,-0.030491281300783157,0.9433853626251221,1.0406298030775227,1.009426265912907,0.08250527083873749,0.32157886028289795,1.0442768984454112,1.0407132470863236,-0.4697141647338867,0.9977007508277893,0.0022361278533935547,0.9947464728755828,1.0165025331986026,175.09371883305178,176.9530001008854,1.0,-0.012515986644083406,0.002270755873404951,-0.10697899192946564,-0.0008973192707245015,118.71640567365235,0.8622473552008332,12,0.4
1.0335513946135513,0.5436612419545147,-0.2494736611843109,0.9999725222587585,0.9651840640896042,0.6523245818833262,0.06874924898147583,0.9999423027038574,0.9653663422513515,0.6474511159076595,-0.32750600576400757,0.9999919533729553,0.9907913481573685,1.0167326295179684,0.13093510270118713,0.9999599456787109,0.9953208636347912,1.0175565397213329,-0.13110898435115814,0.9999786019325256,0.9972203656355738,1.2818890344567597,0.24173405766487122,0.477548211812973,0.9957687040770535,1.3027179191107838,-0.0923810824751854,0.9530678987503052,0.9806947089889873,1.5436612419545148,0.3656606078147888,0.6853188276290894,0.9804952144719391,1.5896313854587543,-0.031095106154680252,0.9450890421867371,1.040793239266396,1.0077960498902,0.08257965743541718,0.30508559942245483,1.043769409086803,1.0394267986666148,-0.4694870412349701,0.9978326559066772,0.0026995837688446045,0.9930561058960798,1.0171445846196507,174.99878716004824,176.86282323002914,1.0,-0.008254600543248683,0.009894449589807439,0.03290540731224022,0.058987895428857066,104.32889696643741,0.864579974429895,13,0.43333333333333335
1.0352521715569736,0.5442659341553168,-0.21464940905570984,0.9999750256538391,0.965324522225146,0.6527002557846464,0.07776622474193573,0.9999449253082275,0.9659813692248812,0.6481313069149118,-0.3194847106933594,0.9999926090240479,0.9920583136204718,1.0241267110328371,0.13031932711601257,0.9999610781669617,0.9969977556560403,1.0244789973521966,-0.13049007952213287,0.9999800324440002,0.9976699007161269,1.28410087131611,0.24761554598808289,0.4449526369571686,0.9964813922527713,1.3046295755138384,-0.07549630850553513,0.9514886140823364,0.9807706074703553,1.5442659341553169,0.37605714797973633,0.657546877861023,0.9816586491004714,1.5921184824000933,-0.018771840259432793,0.9447644948959351,1.0426039668840086,1.008707020328375,0.09811487048864365,0.28550848364830017,1.045413423347695,1.0407955637779638,-0.4609052538871765,0.9979240298271179,0.0025278329849243164,0.9945280346382561,1.024302854192517,175.04696667214176,177.1540853992322,1.0,0.0020129301881219985,0.04471998903393218,0.07758809000953991,0.26281705879893663,98.19631077161789,0.8855024982429043,14,0.4666666666666667
1.0352999119210746,0.544371200444286,-0.2615043520927429,0.9999774694442749,0.9656647414919649,0.652904895996047,0.06578825414180756,0.9999479055404663,0.9671500425734568,0.6476039912871823,-0.33054959774017334,0.9999932646751404,0.9925761894562487,1.0266072517488858,0.13045719265937805,0.9999619722366333,0.9969410063073824,1.026953811221779,-0.13063998520374298,0.9999812841415405,0.9980421276186126,1.2851622852314892,0.27180811762809753,0.42202088236808777,0.9974395560934264,1.3057615000344402,-0.07303069531917572,0.9530899524688721,0.9819803087386777,1.544371200444286,0.4277493953704834,0.6469154953956604,0.9820848694505615,1.5934966255455616,0.0025439641904085875,0.9468210935592651,1.0439423398337397,1.0086415655562786,0.07956653088331223,0.2717868387699127,1.0462079656506205,1.0414334217212697,-0.48492318391799927,0.9980337023735046,0.0029311180114746094,0.9947585978818155,1.0267805314853324,175.24314299384145,176.84291420355532,1.0,-0.002514928980053665,0.014015285710764516,-0.03357118820002767,-0.22778775377027555,98.65860345778292,0.8926900639022188,15,0.5
1.0350769192295541,0.5446295591851262,-0.2736881375312805,0.9999796748161316,0.9655017118014321,0.6522295996720516,0.052783459424972534,0.9999510049819946,0.9679830989723155,0.6470655764228982,-0.3381200432777405,0.9999938011169434,0.992588391872476,1.0278722730207137,0.12962572276592255,0.9999637007713318,0.9965533295052564,1.0276359914968833,-0.12980762124061584,0.9999825954437256,0.9978852156861181,1.2858213084326526,0.27572423219680786,0.4172707796096802,0.9973204899090434,1.3062759369365475,-0.06931237876415253,0.9559110999107361,0.9832382404399493,1.5446295591851262,0.43418121337890625,0.6552857160568237,0.9819474232648264,1.593723836698854,0.01787804812192917,0.9502950310707092,1.0441573734117964,1.0110911107807865,0.07483396679162979,0.26500919461250305,1.046671960723802,1.0414510229470104,-0.48653578758239746,0.9981096386909485,0.0028554797172546387,0.9945708606888662,1.0277541322587986,175.58449401967647,176.7809196775507,1.0,-0.0013124899475146054,0.0076386831902645344,0.009263166617691946,-0.04912300769653877,90.71394153339594,0.8952331540601559,16,0.5333333333333333
1.034359329298065,0.5443692643739256,-0.23495860397815704,0.9999816417694092,0.9603044666249926,0.6511374694805255,0.07786481082439423,0.9999539256095886,0.9692481360216996,0.6467851832520729,-0.3224427103996277,0.9999943375587463,0.9875173403196906,1.0273639928736398,0.13230742514133453,0.9999651312828064,0.9959321734024965,1.0272238103055091,-0.13249436020851135,0.9999837279319763,0.997298333880074,1.2855589488979586,0.26840418577194214,0.415146142244339,0.9971458678278797,1.3060137513604093,-0.06683922559022903,0.9588928818702698,0.9828491853760382,1.5443692643739257,0.41421937942504883,0.6591089367866516,0.9815000493763735,1.5931896485355797,0.014959156513214111,0.9535806179046631,1.0404440716538725,1.0132613679200329,0.1002592220902443,0.2607852816581726,1.045958601749459,1.0406802593474485,-0.44236621260643005,0.9982087016105652,0.002407580614089966,0.9917247568610935,1.0272939015895743,174.63509212188086,176.63208210588172,1.0,-0.017771241309996005,-0.00037771260405666606,-0.11933254989034398,-0.05809825204173798,93.1826601750723,0.8951780072396941,17,0.5666666666666667
1.0337297268310737,0.543905715809708,-0.23361942172050476,0.9999834299087524,0.9583745639390657,0.6495461057462942,0.07910507172346115,0.9999563694000244,0.9698657417156027,0.6462904245910235,-0.3216603696346283,0.9999948143959045,0.9813190157805965,1.0266547621733235,0.1335693895816803,0.9999657869338989,0.9945516106681503,1.0266080286198866,-0.13376381993293762,0.999984622001648,0.9962493092936939,1.285788116421896,0.2669079303741455,0.39955881237983704,0.9967072765811756,1.3061168891239445,-0.06734266132116318,0.960478663444519,0.9825307500589957,1.543905715809708,0.41077691316604614,0.6489585638046265,0.9808943219217139,1.5929099384662317,0.010192353278398514,0.9552539587020874,1.0376577143017434,1.0124851272350606,0.10250699520111084,0.2545686364173889,1.0450714433814117,1.0400437098709934,-0.4433862268924713,0.998302698135376,0.0018021166324615479,0.9879353132243734,1.026631395396605,173.66015597204714,176.40219341558193,1.0,-0.024270302348025796,-4.596412892854351e-05,-0.050072108120499045,0.0025496454340396416,93.27940887528919,0.894943673211194,18,0.6
1.03270858192463,0.5432727685783685,-0.22279293835163116,0.9999850392341614,0.9574503490595598,0.6485733257419876,0.08886167407035828,0.9999581575393677,0.9690959582752786,0.6455425243189652,-0.31524673104286194,0.999995231628418,0.97699222001794,1.0254861184540374,0.13447996973991394,0.9999662637710571,0.9915360008243918,1.0257402987408986,-0.13467594981193542,0.99998539686203,0.9941706338189292,1.2852184643530702,0.2635989785194397,0.3830244541168213,0.9958019915127664,1.3057337070489905,-0.06388037651777267,0.9614540934562683,0.9811300986785314,1.5432727685783685,0.4066312313079834,0.6384885907173157,0.9800534628379923,1.592306221952636,0.013433587737381458,0.9564208984375,1.0367813826869772,1.01107754908245,0.10845984518527985,0.24571746587753296,1.0436373661586968,1.0391356966685816,-0.43716302514076233,0.9983668923377991,0.0016794204711914062,0.9842641104211659,1.025613208597468,173.32310249810305,175.98159394205754,1.0,-0.020030635777077768,0.0005408690556118305,0.03217693249834771,0.004480606364711316,93.96921891870969,0.8940899947953523,19,0.6333333333333333
1.0327997175465595,0.5431590954498482,-0.2352682650089264,0.999986469745636,0.9576148280527035,0.6484195218781755,0.08442822098731995,0.9999601244926453,0.9690219242920446,0.6454499423611053,-0.3171546757221222,0.9999955892562866,0.9762331994117526,1.0247338755629103,0.13519668579101562,0.9999669790267944,0.9885034673418588,1.0254236599931752,-0.13538609445095062,0.9999861717224121,0.9926576626117316,1.2852386615944797,0.261587917804718,0.3683774471282959,0.9956103013759925,1.3058267853738381,-0.07759900391101837,0.9627605080604553,0.9809659617251925,1.5431590954498482,0.4047415256500244,0.631507933139801,0.9805556190460313,1.5929830864061754,-0.010986942797899246,0.958044707775116,1.0367680485570379,1.0117542472215149,0.10545480251312256,0.2433253824710846,1.0431369111306932,1.0396220544938304,-0.44399815797805786,0.9984316825866699,0.001645594835281372,0.9823683333768056,1.0250787677780429,173.79687818051534,175.5470597568981,1.0,-0.013726746436774654,-0.0035350742690051194,0.0470995916155454,-0.030459015154532906,96.04998094163263,0.8923652806258775,20,0.6666666666666666
1.0341911953131022,0.543684915264676,-0.2676835358142853,0.999987781047821,0.9627704223781018,0.6492575295762868,0.0774715393781662,0.9999611973762512,0.9699835521003051,0.646074813609851,-0.3172897696495056,0.9999959468841553,0.9781490363184613,1.0249765599125191,0.1351301372051239,0.9999677538871765,0.9852022738499929,1.0261806503962096,-0.13533428311347961,0.9999869465827942,0.994077205640092,1.2861231451967525,0.24864307045936584,0.3718488812446594,0.9965433138792451,1.3066528717929502,-0.09733954071998596,0.965243399143219,0.983046044213367,1.5436849152646759,0.3850095570087433,0.642225444316864,0.9812505141314548,1.5945836062806082,-0.038698967546224594,0.9609016180038452,1.037962174568248,1.012801927061597,0.08270283788442612,0.24031519889831543,1.043904780485788,1.0412541232804322,-0.4458966851234436,0.9985187649726868,0.0017618834972381592,0.9816756550842272,1.0255786051543643,174.05723733138802,174.64419577797364,1.0,-0.012884203844019806,-0.0042217727223636,0.00646252121287246,-0.005152367763609628,102.03170711977839,0.8918037176351058,21,0.7
1.0346485599141804,0.5437676477673902,-0.23341917991638184,0.9999889731407166,0.9627361862115899,0.6467848391523019,0.0937221422791481,0.9999627470970154,0.9707991676936237,0.6454843200539162,-0.3010239005088806,0.9999962449073792,0.9755776815156239,1.0241924983654662,0.1345571130514145,0.9999684691429138,0.9833507493331286,1.025503248443841,-0.13475772738456726,0.9999876022338867,0.9942221886693943,1.286343160207562,0.23780634999275208,0.3719281554222107,0.9967114399479706,1.3060456583867166,-0.09793959558010101,0.9673238396644592,0.9846980078558849,1.54376764776739,0.36126095056533813,0.6488251090049744,0.982350913351892,1.5944821847945452,-0.0403183288872242,0.9631904363632202,1.034825932798831,1.0134798007608188,0.1012093648314476,0.2374434918165207,1.0437925790502054,1.0414129607993001,-0.424807071685791,0.9985891580581665,0.0007197856903076172,0.9794642154243762,1.0248478734046538,173.81303664273005,174.42311886998453,1.0,-0.019536035246257917,-0.007664785255848467,-0.053647551897101006,-0.02777239212370552,101.52034488599243,0.8896569946073868,22,0.7333333333333333
1.0351141886687252,0.5435667490039493,-0.23535212874412537,0.9999900460243225,0.9618342763113866,0.6427645190865768,0.09940077364444733,0.9999642372131348,0.9718261987186869,0.644344287966099,-0.30441245436668396,0.999996542930603,0.9723186179870432,1.0234475238864533,0.1365378350019455,0.9999684691429138,0.9822909426889334,1.025345486279641,-0.13676069676876068,0.9999880194664001,0.9929327120860718,1.2862136657061098,0.24063754081726074,0.36648672819137573,0.9964997098301283,1.3057788518468927,-0.0947977602481842,0.9688335061073303,0.9847078135566912,1.5435667490039493,0.368779718875885,0.6530961990356445,0.9833474959058832,1.594241461928523,-0.027929726988077164,0.9651015400886536,1.0324687137977484,1.0132972046403705,0.11068006604909897,0.23641765117645264,1.0432707105885703,1.0407081490866366,-0.431774765253067,0.998665452003479,0.0008744597434997559,0.9773047803379883,1.0243965050830472,173.683787241094,174.4889192332785,1.0,-0.015793160952812302,-0.0024203804534373282,0.029175898301512983,0.040901571201494145,102.35340266799268,0.8893428472990562,23,0.7666666666666667
1.035382575439623,0.5434462869797547,-0.25884637236595154,0.9999909996986389,0.9607563148865452,0.6412422207217086,0.09115804731845856,0.9999657869338989,0.9725500580173294,0.6438768121228678,-0.3119151294231415,0.9999968409538269,0.9704242724843333,1.0224820584013299,0.13749295473098755,0.9999688267707825,0.9819392223044986,1.0254012580373155,-0.13772399723529816,0.9999884963035583,0.9918035951199649,1.2859980555539552,0.2558419704437256,0.3718520998954773,0.9968691478912366,1.30551315656215,-0.08643536269664764,0.9707806706428528,0.9849126945664217,1.5434462869797547,0.3896210491657257,0.6662197709083557,0.9852718199781305,1.593408761873954,-0.011181180365383625,0.9673889875411987,1.0287300867785907,1.013175702942228,0.10418295860290527,0.2353459894657135,1.0431610057212932,1.0405377211172042,-0.4415197968482971,0.9987428784370422,0.001458287239074707,0.9761817473944159,1.0239416582193226,173.8284718426135,174.64222533145886,1.0,-0.008865811968223385,-0.0037728873079290915,0.0529463654839347,-0.01033573991477325,105.67824073788144,0.8890262335011672,24,0.8
1.0367846155668428,0.5433275652835909,-0.2571958601474762,0.9999918937683105,0.9615055363586341,0.6388566986009159,0.08920861035585403,0.9999669790267944,0.9732131339246392,0.6429254887856838,-0.3125283718109131,0.999997079372406,0.9682896889021934,1.021937074058959,0.1383775770664215,0.9999685883522034,0.9803971016896043,1.025427408178714,-0.13860365748405457,0.9999887943267822,0.9869783854270421,1.2863599801438388,0.2703501582145691,0.360399454832077,0.9994549246833405,1.3054915638234525,-0.068817138671875,0.9717414975166321,0.9831449833580818,1.543327565283591,0.41691797971725464,0.6631330847740173,0.9858215809768499,1.592645467378933,0.0174795500934124,0.9683516621589661,1.028762037259376,1.0130654402651509,0.10890591144561768,0.229112908244133,1.0425099523086019,1.0405071074074035,-0.43708014488220215,0.9987851977348328,0.00225222110748291,0.9743433952958988,1.0236822411188364,175.10254575285302,173.3889164743259,1.0,-0.013446386591521729,-0.0016550943591296609,-0.034171696973492934,0.015796864536894308,107.09582568910618,0.889778788562317,25,0.8333333333333334
1.0370535728200356,0.5420581530209496,-0.2584945559501648,0.9999926686286926,0.9627496338472494,0.6362665392113671,0.08827643096446991,0.9999678730964661,0.9727483688240238,0.6401585545932756,-0.3108184039592743,0.9999973177909851,0.9647937695080392,1.0192070722644249,0.13803358376026154,0.9999679327011108,0.9715825483543574,1.0216084668208698,-0.13825978338718414,0.9999889135360718,0.9853834465960826,1.283987503677112,0.26650092005729675,0.3543670177459717,0.9988856617839493,1.3029221176682257,-0.06626062095165253,0.972449004650116,0.9814235047334117,1.5420581530209496,0.4045824408531189,0.6636118292808533,0.9841129419614437,1.5895418799534875,0.015888163819909096,0.969139039516449,1.0261880228632796,1.011106624476297,0.10732706636190414,0.22268062829971313,1.0395385857341277,1.0385673015463914,-0.4366527497768402,0.9988109469413757,0.0021584033966064453,0.9681881589311984,1.0204077695426474,174.6744512337865,171.5059956371104,1.0,-0.03423529978822133,-0.010753577744455999,-0.1643979633559325,-0.07188804029613842,109.78605522254641,0.8857975016452068,26,0.8666666666666667
1.036643039557308,0.5401021328047925,-0.24638216197490692,0.9999933838844299,0.9606482133831328,0.632161064528272,0.10061951726675034,0.9999687671661377,0.9724754480619531,0.6376448334231463,-0.30423176288604736,0.9999974966049194,0.9558456763182813,1.0161364345285044,0.13894280791282654,0.9999667406082153,0.9665095395494322,1.0186733065026752,-0.1391967386007309,0.999988853931427,0.9796333381516935,1.281331440421441,0.27068132162094116,0.3693355321884155,0.9971454162875646,1.300064431726212,-0.04517360031604767,0.9741894006729126,0.9784578582971358,1.5401021328047924,0.4103822708129883,0.6746039986610413,0.982189069237478,1.5847312560521942,0.03582019731402397,0.9709758758544922,1.02249731284448,1.005558615994091,0.12693928182125092,0.22594088315963745,1.035256894853702,1.0354340204872101,-0.430694043636322,0.9988818764686584,0.0030503571033477783,0.9611776079338568,1.0174048705155898,174.61408990722666,170.77896825812033,1.0,-0.030092497517774926,0.0005783453029150622,0.02974359578979153,0.083201652154779,102.66501605902329,0.8860950423013896,27,0.9
1.03986088281818,0.5397445306165852,-0.22677850723266602,0.9999939799308777,0.9606582846676284,0.630451968065631,0.10188790410757065,0.9999681711196899,0.9737947855580199,0.6369105058274087,-0.30344608426094055,0.999997615814209,0.9521062639891703,1.0148977937202366,0.13911937177181244,0.9999659061431885,0.9630834222261297,1.0177431485259145,-0.13936008512973785,0.9999887943267822,0.9791775071971841,1.2804611723654258,0.27047795057296753,0.36589154601097107,0.9970313857520438,1.2990133783078588,-0.0475085973739624,0.9747719168663025,0.978434523695423,1.5397445306165853,0.4089435935020447,0.6740844249725342,0.9828707927274145,1.5829837502076187,0.037662554532289505,0.9714252948760986,1.0143853728416077,1.0070343553300927,0.1250268965959549,0.21509702503681183,1.0328585470999387,1.0348094945538282,-0.42197760939598083,0.9988411068916321,0.0035947561264038086,0.9575948431076501,1.0163204711230756,174.01525410539853,170.26319172144963,1.0,-0.022644021712625775,-0.0035245862844970025,0.056095457327953756,-0.030973030929499858,103.25730438910054,0.8865168271103281,28,0.9333333333333333
1.0352693579132222,0.53510436019419,-0.21276433765888214,0.9999945759773254,0.954381755697892,0.6246536389021334,0.11977410316467285,0.9999682307243347,0.9683826340923157,0.6310179883896632,-0.29051393270492554,0.9999977946281433,0.9387521987081366,1.0055428929536334,0.1399599313735962,0.9999660849571228,0.9511620030091037,1.0084893225256861,-0.14019456505775452,0.9999890923500061,0.9716261817201436,1.272967095582836,0.25775203108787537,0.3629096448421478,0.9904284326576402,1.2900737446589523,-0.0536431148648262,0.9754641652107239,0.9680833914884122,1.53510436019419,0.38555529713630676,0.6719562411308289,0.9763609496793871,1.5707369627236878,0.02746228501200676,0.9720246195793152,0.9912582811566444,1.001900780096893,0.13276457786560059,0.20396849513053894,1.0225332230197126,1.0269010815171589,-0.39550718665122986,0.9988528490066528,0.003571063280105591,0.9449571008586202,1.0070161077396598,172.21758451697272,169.19200786974596,1.0,-0.03772356289522206,-0.008621240601805288,-0.11670197881177995,-0.03918947359531368,101.00651065906351,0.8790476094778606,29,0.9666666666666667
1.0387580280677482,0.5351629792300704,-0.2142789661884308,0.9999951124191284,0.9556949882420731,0.6248098419840004,0.13242611289024353,0.9999679923057556,0.9724671377202965,0.6310670499289085,-0.2840574383735657,0.9999979138374329,0.9374021058034951,1.00556238755181,0.14185762405395508,0.9999662041664124,0.9489971767377469,1.0081692521074608,-0.14209076762199402,0.99998939037323,0.9758545000097735,1.27373681960612,0.2528133988380432,0.3730848431587219,0.9908745399025881,1.290273236884621,-0.07106470316648483,0.9769915342330933,0.968249985339773,1.5351629792300703,0.38270050287246704,0.6802082657814026,0.9761444113090265,1.5710155202935785,0.003330587176606059,0.9735405445098877,0.9825991605001645,1.002812745133867,0.135907843708992,0.19825495779514313,1.021746640683362,1.0275213890586266,-0.40351223945617676,0.9989128112792969,0.0035107433795928955,0.943199641270621,1.0068658198296354,170.17403538944254,168.55283181938515,1.0,-0.013865683207919043,-0.0015941958707041065,0.18258870040448433,0.053778155676292,99.92024790689754,0.879871416158333,30,1.0
1.0435409131316122,0.5364460253282427,-0.21967613697052002,0.9999955892562866,0.9602401485710311,0.6272705751958991,0.13239696621894836,0.9999682307243347,0.9771585758390859,0.6320238081185097,-0.2802065312862396,0.9999980330467224,0.9373461889856611,1.0066464756227655,0.14198274910449982,0.9999662041664124,0.9476062297654868,1.009266440636725,-0.1422192007303238,0.9999896287918091,0.9782886191999536,1.2766453770581205,0.2469549924135208,0.3804367780685425,0.9917754410503086,1.2929986762987284,-0.06837945431470871,0.9780877232551575,0.9692147730038958,1.5364460253282428,0.37890976667404175,0.6870081424713135,0.976416805422932,1.5733203632516195,0.012441827915608883,0.974824845790863,0.9814639283161578,1.004345870689051,0.13425743579864502,0.19627664983272552,1.0219086545092888,1.0300467533373554,-0.4060344099998474,0.9989584684371948,0.0026640594005584717,0.942476209375574,1.0079564581297453,169.37709127666596,168.01560070167258,1.0,-0.013171504535164663,0.00011450315732173002,0.005394811892106475,0.01301469308039884,100.87130838025128,0.8803340390461917,31,1.0333333333333334
1.0530314130814575,0.5414332303550654,-0.22199277579784393,0.9999960064888,0.9672467569804933,0.6307889618934824,0.12873950600624084,0.9999685287475586,0.985102080749328,0.6350357804654252,-0.28436845541000366,0.999998152256012,0.9401423526363144,1.0113197391620816,0.14257152378559113,0.9999668002128601,0.9473107853785853,1.0142390563399368,-0.14281818270683289,0.999989926815033,0.9827416271819893,1.284084603895133,0.2574042081832886,0.3949556052684784,0.9962234772822904,1.3001739143812616,-0.0613374300301075,0.9792744517326355,0.9739167957745595,1.5414332303550653,0.40580838918685913,0.6935513615608215,0.980884588895238,1.5814355145271153,0.03452267497777939,0.9760012626647949,0.9910199880545708,1.0403159037722547,0.13906824588775635,0.19423051178455353,1.025601904174709,1.0360958478335436,-0.4108313024044037,0.9989717602729797,0.002369314432144165,0.9437265690074498,1.0127793977510093,169.1595102239865,167.17121445127503,1.0,-0.022385504484716812,0.0013049828314370864,-0.06629434529276669,0.008618404597704424,108.08424818966057,0.8802321055182908,32,1.0666666666666667
1.06061169019603,0.5466830109938291,-0.2085518091917038,0.9999963641166687,0.9701491625318985,0.6335662060489375,0.133220374584198,0.9999675154685974,0.9936371827368315,0.6383576416786775,-0.2755538821220398,0.9999982714653015,0.9348862588124563,1.0149046756603346,0.14129120111465454,0.999967098236084,0.9520926116601802,1.0183117925178071,-0.14155855774879456,0.9999902844429016,0.9854651620880932,1.2900793971966298,0.24675771594047546,0.41750791668891907,0.9998841175054927,1.3057586953410627,-0.04580364003777504,0.9805709719657898,0.9760456626340059,1.546683010993829,0.37674248218536377,0.7079601883888245,0.9852978239068481,1.5867943267961384,0.05644509196281433,0.9775643944740295,0.9708686845514485,1.0430872768846584,0.14304575324058533,0.18249140679836273,1.0294793917294631,1.0428078081860637,-0.38233134150505066,0.9990442991256714,0.002664119005203247,0.9434894352363182,1.016608234089071,167.4826248302617,167.5891406118604,1.0,-0.025842468565993842,0.0029498346364312594,-0.025405860158693186,0.012326600858587557,95.91733935107374,0.8783315051058791,33,1.1
1.0639188882110993,0.5495526140458763,-0.2069791853427887,0.9999967217445374,0.9710933468896052,0.6349116149892837,0.14615604281425476,0.9999644160270691,0.9973714686489565,0.6403915146353745,-0.269500732421875,0.9999983906745911,0.9303011980491248,1.01622212163312,0.14116160571575165,0.9999669790267944,0.9541362712316325,1.0199923166336937,-0.14142504334449768,0.9999905824661255,0.9844939406276939,1.2927186525792786,0.23800063133239746,0.42402708530426025,1.0014214979043559,1.3079593685384934,-0.036458421498537064,0.9811199903488159,0.9753289662587727,1.5495526140458762,0.3626854121685028,0.7138940691947937,0.9870914508434689,1.5879869419268247,0.06268203258514404,0.9784578680992126,0.9634116980164399,1.0357392459974952,0.17647701501846313,0.16940194368362427,1.0323762973194412,1.047169943976259,-0.3750231862068176,0.9991077780723572,0.003042936325073242,0.9422187346403786,1.0181072191334068,166.8670194553948,167.74555993142488,1.0,-0.01902438264765969,0.0012852494801497934,0.052040795857157505,-0.012671999949653292,92.88227469010998,0.876927166499337,34,1.1333333333333333
1.0685900720525303,0.5539659980527329,-0.14991751313209534,0.9999970197677612,0.9704352721113145,0.6356763090908633,0.17234870791435242,0.9999600648880005,1.001186798726013,0.6444804086930389,-0.23858335614204407,0.9999983906745911,0.9234894169909651,1.017006235646584,0.14070990681648254,0.9999659061431885,0.9553372679230743,1.020972827018139,-0.14099593460559845,0.9999904632568359,0.9848527584036363,1.2934513549173592,0.23274974524974823,0.4140509068965912,1.0021160272810679,1.3088218025176155,-0.026289884001016617,0.9800406098365784,0.9759519021935668,1.553965998052733,0.3455198109149933,0.7026841640472412,0.9874289970533263,1.588959995867709,0.0670146718621254,0.977450430393219,0.9558541264733436,0.9897731701873024,0.2510250210762024,0.1583775281906128,1.0359865316090469,1.0557101674603446,-0.3290010690689087,0.9990571141242981,0.004886627197265625,0.9394133424570197,1.0189895313323616,165.52797136104024,167.76832946052997,1.0,-0.024382854374615136,0.003190450439451295,-0.04037664878147996,0.014374555505504068,90.08110778498434,0.8710343581153209,35,1.1666666666666667
1.0752196292042608,0.5603621709790287,-0.1751546710729599,0.9999973177909851,0.9734710522735227,0.6383948659946478,0.15465661883354187,0.9999564290046692,1.0076859044638142,0.6512306334760272,-0.2576131522655487,0.9999983310699463,0.9237219362683444,1.0228228648143722,0.14064794778823853,0.9999667406082153,0.9586025518560202,1.0297570383741497,-0.14093202352523804,0.999990701675415,0.9893629753892696,1.2976388991979275,0.2580798268318176,0.4442829191684723,1.0066063551102242,1.3154295407406802,-0.0010762156452983618,0.9813072085380554,0.9790125091340476,1.5603621709790287,0.3959113657474518,0.718797504901886,0.9909807373534311,1.5943382963588668,0.10841788351535797,0.9788256287574768,0.9574083791602267,0.9855410841192053,0.23137123882770538,0.1490756869316101,1.039959269931184,1.0642805333044907,-0.3552849590778351,0.9988372325897217,0.007101833820343018,0.9411622440621823,1.026289951594261,164.31023626895464,167.25465954035076,1.0,-0.00928536076029327,0.030674185209791215,0.11443145816996,0.2071747826613093,93.86995082548451,0.8770396759804199,36,1.2
1.0930605476197452,0.5796396172876443,-0.14545267820358276,0.9999975562095642,0.9862239540590079,0.6579408936453529,0.16978125274181366,0.9999529719352722,1.0226369999641671,0.6683427695009442,-0.23232421278953552,0.9999983310699463,0.9226372940332191,1.035296563737779,0.13819202780723572,0.9999668598175049,0.9657218954122723,1.0419957834854523,-0.1384599655866623,0.9999908208847046,1.0027499812939409,1.3104319253561258,0.24063532054424286,0.4487013816833496,1.020451195592188,1.3300725795094646,-0.023480992764234543,0.9817946553230286,0.9935030344114159,1.5796396172876443,0.3605075180530548,0.7171046137809753,1.0018159308532566,1.6120434128695726,0.046974267810583115,0.9794589281082153,0.9638686068979668,1.0299514775172773,0.22046694159507751,0.13734406232833862,1.0547182998190823,1.0855714801813252,-0.33955368399620056,0.9987215399742126,0.005692541599273682,0.9441795947227457,1.0386461736116155,161.79846731744564,165.4619073442156,1.0,-0.05869788627709766,0.008474229776720285,-0.39423068181201587,-0.1801855322526349,89.2733166244727,0.8620656748078267,37,1.2333333333333334
1.1112421987085297,0.5971319374283927,-0.16365906596183777,0.9999977946281433,0.9991290570362235,0.677042977179511,0.1576785147190094,0.9999521970748901,1.0356666087799395,0.6894167192096508,-0.2454908788204193,0.9999983310699463,0.9260275329823618,1.0497579077993788,0.13598433136940002,0.9999675154685974,0.9691185961432027,1.0548908734281484,-0.1362369954586029,0.9999910593032837,1.0105538603887732,1.3245097815266849,0.23995380103588104,0.47482430934906006,1.0331742686800973,1.3458755431696918,-0.0324988067150116,0.9831005930900574,1.0047656647125538,1.5971319374283928,0.3618517518043518,0.726280927658081,1.0137309335019111,1.6293186823953436,0.04578355327248573,0.9808100461959839,0.9812279123376615,1.0699061216727632,0.1616273820400238,0.12862810492515564,1.0692091691474936,1.1021583676273203,-0.3373435437679291,0.9987170696258545,0.006699621677398682,0.9475730645627822,1.0523243906137636,161.6833959891731,163.66108010567544,1.0,-0.05058025801371466,0.01877299710762093,0.06546212632831115,0.07637735636809607,85.69630078486051,0.8572338019568084,38,1.2666666666666666
1.1244677292485983,0.6112537855501824,-0.14864715933799744,0.9999979734420776,1.0102668391829914,0.6949812222715339,0.16568954288959503,0.9999501705169678,1.0461984714899593,0.7041029202018323,-0.2307274341583252,0.9999983310699463,0.9279748971974835,1.0637328672423123,0.1348370611667633,0.999967634677887,0.966694156202954,1.0690185446903606,-0.13508059084415436,0.9999911785125732,1.0167061552217058,1.3361795157617011,0.2398240864276886,0.49232983589172363,1.0436451602745118,1.3578864932258166,-0.04772167652845383,0.9842836260795593,1.0137922902930576,1.6112537855501823,0.3576066493988037,0.732660174369812,1.0235690052433017,1.6420709090080057,0.02355564758181572,0.9821344614028931,0.9938786399083087,1.0950048482033878,0.15862074494361877,0.12055620551109314,1.0814618686956903,1.121323603122333,-0.32730811834335327,0.998742938041687,0.0048947930335998535,0.9473345267002188,1.0663757059663364,161.3535357919227,161.04254496969457,1.0,-0.068115994352202,0.03560556318528455,-0.1327334607154281,0.12949334686256217,85.19336478944483,0.8646706380512702,39,1.3
1.136189037707997,0.6273200447703683,-0.1540485918521881,0.999998152256012,1.0241668414926113,0.7134213373927283,0.15890134871006012,0.9999526739120483,1.0547525752029567,0.7171090266833275,-0.23873969912528992,0.9999983906745911,0.9332311170627808,1.0768125494951466,0.132930189371109,0.999968945980072,0.9651437740954745,1.0815575905768182,-0.13315768539905548,0.9999914765357971,1.0247653171596385,1.346773660891104,0.22473283112049103,0.5221315026283264,1.0530169285995916,1.3667783761539352,-0.0686924010515213,0.9856401681900024,1.021193718266852,1.6273200447703682,0.32630354166030884,0.7505600452423096,1.032193199498382,1.6522502617911237,0.007637930102646351,0.983709454536438,1.0172969095325552,1.1440466896100998,0.14175984263420105,0.1254429668188095,1.0906146566758024,1.142250255074225,-0.33798256516456604,0.9988007545471191,0.0019634366035461426,0.9491874455791276,1.0791850700359824,160.54064650984702,158.7045050655714,1.0,-0.045057885318454456,0.0358090984957959,0.19037094900953047,-0.0006131134029878916,84.40796472663281,0.8641129986606354,40,1.3333333333333333
1.141914402229072,0.6378465620466941,-0.12818750739097595,0.9999982714653015,1.0292566240654426,0.7193439365762173,0.1664448380470276,0.9999525547027588,1.0603792422464757,0.7296600962337012,-0.22296884655952454,0.9999984502792358,0.9298652510016799,1.0859272690754969,0.13037177920341492,0.9999693632125854,0.9668007562938363,1.0915625870485186,-0.13058969378471375,0.999991774559021,1.0294428523698733,1.3523093153174692,0.2100505828857422,0.5396568179130554,1.0598934292783957,1.3713437373029351,-0.0765644758939743,0.986793041229248,1.0258074644487805,1.637846562046694,0.2975723147392273,0.7633421421051025,1.0367736800928353,1.6597642615063732,-0.01592589169740677,0.9850909113883972,0.9974706237782281,1.138743460502,0.14424729347229004,0.11805305629968643,1.0977516418397872,1.152363541940897,-0.3166494369506836,0.998882532119751,0.005467802286148071,0.9483330036477582,1.0887449280620076,158.7740674472339,157.01294501786546,1.0,-0.04049240746913137,0.03652462938089026,0.03739631640101292,0.004334663629218094,83.50497419255848,0.8666901456224815,41,1.3666666666666667
1.1599755611289664,0.6605096411232187,-0.11762486398220062,0.9999983906745911,1.0439598041583145,0.7369020395281348,0.1663702130317688,0.9999538064002991,1.0754581219189474,0.748653909150236,-0.23130151629447937,0.9999984502792358,0.9374949929109597,1.1106489558027637,0.1309596747159958,0.999970018863678,0.9750882601901568,1.1177642823562013,-0.1311863362789154,0.9999918937683105,1.0454076618654682,1.3694999354245883,0.21985015273094177,0.547579824924469,1.0777160090285833,1.3875502597699176,-0.08157040178775787,0.9877249598503113,1.0397704137416477,1.6605096411232187,0.3171658515930176,0.7653594613075256,1.0508408916025451,1.6830635373583724,-0.009961905889213085,0.9860255718231201,1.0136619903424835,1.1725084938761698,0.149732768535614,0.11275976896286011,1.114563964867555,1.176819565465925,-0.31992489099502563,0.998824954032898,0.006142258644104004,0.9562916265505582,1.1142066190794826,156.25942193951946,153.9765648294219,1.0,-0.04118611639847772,0.07729459673318571,-0.0009420391049230241,0.30720272471257254,84.8176363876817,0.8807714116963158,42,1.4
1.1725920217798205,0.6759856776909393,-0.12851817905902863,0.9999985098838806,1.0583128997840185,0.7536065113797513,0.15769243240356445,0.9999569058418274,1.0867216066923717,0.7660284629354009,-0.23787519335746765,0.9999985098838806,0.9458799643680809,1.1271846972950574,0.1313798874616623,0.9999707341194153,0.979356444803051,1.1348861794599279,-0.131608247756958,0.9999920129776001,1.0554653858150007,1.3820053051814922,0.19883261620998383,0.5716760158538818,1.0876722747678278,1.3955266214117807,-0.10380429029464722,0.9888014197349548,1.0485213755247125,1.6759856776909392,0.27753156423568726,0.7804649472236633,1.0606309087900931,1.6992533853374214,-0.04231150448322296,0.9872591495513916,1.038580060885587,1.1745642809699095,0.1263851821422577,0.1257365345954895,1.127077161388254,1.1992679498901095,-0.3284928500652313,0.9988752603530884,0.006430774927139282,0.9626182045855659,1.1310354383774928,155.376799338499,152.34568098356073,1.0,-0.022201123579945494,0.0478035928349546,0.15096532932182222,-0.2355027110658732,86.20602743376585,0.8883708691633,43,1.4333333333333333
1.1860975479640674,0.6915335705177816,-0.13986961543560028,0.9999986290931702,1.0722264650842928,0.7713649348622204,0.15471753478050232,0.9999596476554871,1.0971658159182602,0.7853289164693649,-0.24608060717582703,0.9999985694885254,0.9511698812400242,1.1451010013606473,0.13178452849388123,0.9999704957008362,0.9839061933221006,1.1538665826436632,-0.13200947642326355,0.9999918937683105,1.0609028854393536,1.3950870252916292,0.22388949990272522,0.5854215621948242,1.0977055653113619,1.408843777534454,-0.0925239771604538,0.9896938800811768,1.05044146363206,1.6915335705177816,0.2937941253185272,0.7922879457473755,1.0698899917747493,1.7154304983744175,-0.023981843143701553,0.988287091255188,1.0657887564529631,1.1930084090026571,0.13744036853313446,0.14151638746261597,1.138637025855321,1.2177512231820737,-0.3336227834224701,0.9989457726478577,0.007161259651184082,0.9675380372810624,1.1494837920021552,154.27951748149238,150.76416277007306,1.0,-0.033725850247354944,0.062193188195048904,-0.09094242913565007,0.11202063917655439,87.0424388023034,0.9034005517852914,44,1.4666666666666666
1.1871290196755864,0.6923938571018435,-0.1446043998003006,0.9999987483024597,1.0746640110496537,0.7736914488423308,0.15496817231178284,0.9999610185623169,1.0971662165586413,0.7864989439762078,-0.2467418909072876,0.9999985694885254,0.9506977589541805,1.1463019876512415,0.13184072077274323,0.9999712109565735,0.9778560099400865,1.1518772494143483,-0.1320646107196808,0.9999920129776001,1.0605838487655628,1.3961420690024637,0.22455373406410217,0.6030281186103821,1.0973126403918394,1.4079856653391487,-0.088143490254879,0.9905632734298706,1.042536414067542,1.6923938571018435,0.3107554316520691,0.8053750395774841,1.069446558002751,1.7151316190472539,-0.026496995240449905,0.9893075823783875,1.0729536412266296,1.1869995624135365,0.13795273005962372,0.14323970675468445,1.139128846756012,1.2188526728130975,-0.33602550625801086,0.9989932775497437,0.0065690577030181885,0.9642768844471336,1.1490896185327948,152.77276537372646,149.8102291493541,1.0,-0.023267325444350572,-0.0017746118768021033,0.07770286684729784,-0.4754012626729646,83.19885083082235,0.9038804815003424,45,1.5
1.1988497910795477,0.707952581912451,-0.17811819911003113,0.9999988675117493,1.0851574705583835,0.797110955073805,0.14535854756832123,0.9999610185623169,1.1075210541877272,0.8015377675893522,-0.24996884167194366,0.9999985098838806,0.9585257688104933,1.160211792690769,0.1318230926990509,0.9999703168869019,0.9785003162511577,1.165360593757004,-0.13204535841941833,0.9999916553497314,1.0724247403755678,1.4095808443630298,0.23087427020072937,0.5945754647254944,1.1071513810376674,1.4203753707140285,-0.10316459834575653,0.99111008644104,1.0537561290154602,1.707952581912451,0.3347066640853882,0.8002833724021912,1.074962607537415,1.7309891301785467,-0.03476642444729805,0.9899147152900696,1.0818465971363702,1.2033735958841492,0.12505464255809784,0.1392841339111328,1.1507151099560649,1.23971908124494,-0.3390915095806122,0.9988893270492554,0.002249777317047119,0.9685130425308256,1.1627861932238865,151.8712825995819,147.31333331738819,1.0,-0.03669397740845897,0.024303204159945163,-0.10392568349112147,0.20525904227809694,85.22811213995479,0.9025531946148816,46,1.5333333333333334
1.212201813276967,0.7278522729051566,-0.1727163940668106,0.9999989867210388,1.0965309325810664,0.8160697437571065,0.14447808265686035,0.9999608397483826,1.1200577339872502,0.8210615800735918,-0.24547216296195984,0.9999984502792358,0.9664156448622159,1.1805929177555137,0.12954166531562805,0.9999695420265198,0.9861230425066541,1.184186409008608,-0.12976814806461334,0.999991238117218,1.083357327890245,1.4304742099228838,0.23777565360069275,0.5950931906700134,1.1192764680518206,1.4360129205352454,-0.09538459032773972,0.9915550947189331,1.0583361834281493,1.7278522729051566,0.3415790796279907,0.7991955876350403,1.087577563294637,1.7487380918611253,-0.016077768057584763,0.9904119968414307,1.0925813178300825,1.2198344541598023,0.1340520679950714,0.13858427107334137,1.1633933268409675,1.2598978140207588,-0.3233756422996521,0.9987682104110718,0.0025089681148529053,0.976269343684435,1.182389663382061,150.11143399672514,146.34439521041043,1.0,-0.02315479988056142,0.05063479960609831,0.10630410411096736,0.19861867925497367,80.69006190138836,0.9076092850605919,47,1.5666666666666667
1.2312980065946366,0.7508314061485661,-0.2199602872133255,0.9999990463256836,1.117957439304596,0.8399007377636089,0.10875412076711655,0.9999619722366333,1.1373433752713713,0.8439888246872053,-0.27453309297561646,0.9999983906745911,0.9818252107506706,1.1996287181857925,0.1281595677137375,0.999968945980072,0.9939214407237634,1.2044410238700696,-0.1283549815416336,0.9999909996986389,1.103156756653884,1.4527862065866988,0.2422092705965042,0.5884247422218323,1.1378000095036773,1.4582511222078356,-0.10214926302433014,0.9920336604118347,1.0770465774746345,1.7508314061485661,0.3626484274864197,0.7950354814529419,1.1042846709116827,1.7762440467260523,-0.01627197302877903,0.9909430146217346,1.1366710111762162,1.2635261931406214,0.09308253973722458,0.14341600239276886,1.1817795111917846,1.2919373704047417,-0.3424205183982849,0.9986683130264282,0.00202295184135437,0.9878733257372171,1.2020348710279312,149.38625695711372,144.4356269162933,1.0,-0.02853163997875017,0.008185636745095532,-0.038321466673223954,-0.33057336360826955,90.96620487376246,0.898119869728482,48,1.6
1.2707464415339802,0.7941328307956935,-0.20548541843891144,0.9999991059303284,1.1526207632489271,0.8929893252389375,0.11626376956701279,0.9999585151672363,1.170109028369848,0.8938278615930898,-0.2736234962940216,0.999998152256012,1.001082894535767,1.2457376369954807,0.1282692849636078,0.9999672770500183,1.012646965257201,1.2524328771628448,-0.12845726311206818,0.9999905824661255,1.1442746759970228,1.498022047297726,0.2503170073032379,0.5580247044563293,1.1746459369890236,1.503791933109993,-0.11076122522354126,0.9919260740280151,1.1178429760042379,1.7941328307956934,0.38618966937065125,0.7654200196266174,1.137807138875802,1.828043929535602,-0.01935996487736702,0.9907194375991821,1.1823862247611774,1.3341703160367888,0.09642501175403595,0.13472311198711395,1.218818463560024,1.356652014497674,-0.3423982560634613,0.9979062676429749,0.00040212273597717285,1.006864929896484,1.2490852570791628,145.3207218764531,140.71685747160797,1.0,-0.09853019297018885,0.06881766919335817,-0.5445615549449307,0.4758466927528502,96.82154214646411,0.9148809229192905,49,1.6333333333333333
1.2925971224818238,0.8255686454016643,-0.17675115168094635,0.9999991655349731,1.1691685178154432,0.9230154352141131,0.11907021701335907,0.9999586343765259,1.1877223867980506,0.923721901237011,-0.27164965867996216,0.9999979138374329,1.0074853533483954,1.2766330388249676,0.128564715385437,0.9999684691429138,1.0203932475403457,1.2787798761503228,-0.12875914573669434,0.9999908804893494,1.1610229784807313,1.5291557591933365,0.2533159852027893,0.5549484491348267,1.1949215878984027,1.532578332281179,-0.10705482959747314,0.9925106763839722,1.13597877693623,1.8255686454016642,0.38798946142196655,0.7649745941162109,1.1575505848070606,1.8628601125831437,-0.0038616072852164507,0.9913950562477112,1.2069014156190698,1.3859352313417006,0.10166281461715698,0.12989318370819092,1.239903633836397,1.4062218198359904,-0.282962441444397,0.9966316819190979,0.0003330111503601074,1.0139393004443706,1.2777064574876453,143.87026377383495,139.0295583898311,1.0,-0.07932286904935598,0.05307221526066403,0.1596572793528224,-0.12929830424039507,74.87186793907722,0.9127607338226702,50,1.6666666666666667
1.3160340246645215,0.8571181929524311,-0.20354194939136505,0.9999992251396179,1.1900892330545838,0.9572566085362414,0.12164100259542465,0.9999589323997498,1.2067068279141913,0.9559250457276114,-0.27755728363990784,0.9999976754188538,1.027028246641095,1.3072151327848467,0.12980909645557404,0.9999698400497437,1.027080775297215,1.3120946329489342,-0.12995822727680206,0.999991238117218,1.1961501129945467,1.5567293392757664,0.2497609555721283,0.5480870008468628,1.2169473409234666,1.5690149937126545,-0.11034940183162689,0.993061363697052,1.1601928316666428,1.857118192952431,0.38652658462524414,0.7617067098617554,1.176582416109612,1.9038590408962626,-0.019049551337957382,0.9920393228530884,1.2259619277965297,1.4299421579673162,0.11038926988840103,0.12691105902194977,1.25982694640236,1.4469382681430825,-0.3060179054737091,0.9949197173118591,0.0006164610385894775,1.027054510969155,1.3096548828668904,139.04443515759914,136.66150184836096,1.0,-0.03904948425119822,0.06407829484144234,0.3064417038470228,0.07376410646105021,154.40035380644994,0.9130419590698348,51,1.7
1.3377973676894104,0.8924637126175701,-0.21170420944690704,0.9999992847442627,1.211256432584417,0.9853226914824976,0.12240447849035263,0.9999592304229736,1.2259511831758738,0.9887276990625868,-0.27381232380867004,0.9999974966049194,1.0386960279283013,1.3426066589379482,0.12988443672657013,0.9999704957008362,1.0378369730001942,1.3476781058694547,-0.13003602623939514,0.9999914169311523,1.2169548761743894,1.5864360990604887,0.24981340765953064,0.5494816899299622,1.2363355120625712,1.5985551930168755,-0.08530598878860474,0.9936362504959106,1.183012993689379,1.89246371261757,0.3947793245315552,0.7694208025932312,1.1964984708678021,1.9392562070177464,0.025416383519768715,0.9927414655685425,1.2552386547833247,1.4665076771354082,0.11324305832386017,0.13215170800685883,1.2821912490623246,1.488278532872408,-0.2925012409687042,0.9944772720336914,0.0015475749969482422,1.0382665004642477,1.3451423824037014,137.50133005216688,134.97918791383424,1.0,-0.05856926419803649,0.08227201454756382,-0.1391979284656787,0.12592473580401556,163.8345663191638,0.9192551192374483,52,1.7333333333333334
1.3666660552666634,0.9339429999167556,-0.18342024087905884,0.9999992847442627,1.2392918160481483,1.0255783558486424,0.15243762731552124,0.999956488609314,1.2522822520724277,1.0306381947763192,-0.26138660311698914,0.9999969601631165,1.0545323787699612,1.385470972508298,0.13296730816364288,0.9999712705612183,1.0556267175888965,1.3893889043530538,-0.13312724232673645,0.9999915361404419,1.246580375954565,1.6253223875264187,0.2682594656944275,0.5282933115959167,1.2645090427740144,1.6395428797329834,-0.08570046722888947,0.9940744042396545,1.2126190541937572,1.9339429999167554,0.42144545912742615,0.7643624544143677,1.2257754416474798,1.9850139812399636,0.017313919961452484,0.9932796359062195,1.2859746922054496,1.522191569358325,0.16494238376617432,0.13201649487018585,1.3120437133533724,1.5384217535314901,-0.2827323079109192,0.9929873943328857,0.002244412899017334,1.0550795481794288,1.3874299384306759,135.036201556982,133.7404275486221,1.0,-0.07047169317778197,0.0736449933790462,-0.0841397935715799,-0.08569774252793604,137.21935567169248,0.9245328510801154,53,1.7666666666666666
1.3912995882220844,0.9696480291329754,-0.15443101525306702,0.9999991059303284,1.2553312530205667,1.0557996320515957,0.1571972370147705,0.9999529719352722,1.2741448821191919,1.0708055809303352,-0.2613828778266907,0.9999960660934448,1.0590365683536662,1.4264066838152774,0.13576732575893402,0.9999721050262451,1.0737340644745144,1.4328876898610063,-0.13594302535057068,0.9999915957450867,1.2690664204348958,1.6562685323725868,0.303934246301651,0.51952064037323,1.2907969412351197,1.6735642474102521,-0.04984655603766441,0.9945321083068848,1.2418463047880894,1.9696480291329754,0.48603683710098267,0.7665849328041077,1.2510274556564007,2.02173655678926,0.09992806613445282,0.9937788844108582,1.3139143676979108,1.578107824438869,0.16811028122901917,0.13030396401882172,1.3374179602774305,1.5978016104841837,-0.2689598798751831,0.9913627505302429,0.006520003080368042,1.0663853164140902,1.4296471868381417,132.61711749070176,131.43684688929196,1.0,-0.07844727511071893,0.09658112570573532,-0.047491440154569325,0.15626467069297784,85.88730181069712,0.9481199526289718,54,1.8
1.4074142087176025,0.9985377337655721,-0.14786799252033234,0.9999987483024597,1.2725432073518144,1.1024573404241629,0.1596633642911911,0.9999512434005737,1.2890421502311267,1.1081207527798327,-0.26151353120803833,0.9999954700469971,1.0688827422048,1.4608468164477475,0.13695037364959717,0.9999730587005615,1.0764209048007087,1.461805198341856,-0.13711334764957428,0.9999917149543762,1.2862027577998951,1.6794762774744432,0.28487712144851685,0.5099654793739319,1.3077483346740804,1.6960848451080823,-0.06253515183925629,0.9949870109558105,1.267878590584583,1.998537733765572,0.43608465790748596,0.7767730951309204,1.2656621672521784,2.048767017138954,0.07974547147750854,0.9943280220031738,1.3395667804997318,1.6356553122270903,0.17172911763191223,0.13942770659923553,1.355607608764833,1.6470952396354699,-0.260762095451355,0.990791916847229,0.0024264752864837646,1.0726518235027545,1.4613260073948018,131.8851268028778,128.5582594475818,1.0,-0.06846879965644449,0.08964729104906671,0.0864082306833159,-0.06467139762488619,67.63747461626559,0.9601302844196979,55,1.8333333333333333
1.4010270376003071,0.99887073009594,-0.13125324249267578,0.9999983906745911,1.2693128622103664,1.1072239687815282,0.17122907936573029,0.9999489188194275,1.2880243916736371,1.1127502290700357,-0.24927735328674316,0.9999946355819702,1.0641202789268849,1.4665415198262315,0.1367211490869522,0.999973475933075,1.0730721071515814,1.4666886586881152,-0.13688993453979492,0.9999915957450867,1.2861049109820315,1.6768827811581317,0.24478097259998322,0.4972495436668396,1.3057229159668124,1.6945590538275819,-0.07205788791179657,0.9953933954238892,1.2683496450483567,1.9988707300959399,0.39819279313087463,0.7839831113815308,1.265646489983675,2.0481511230151117,0.05489615350961685,0.9948192834854126,1.3389984113036024,1.6383714787587738,0.18049733340740204,0.14768245816230774,1.353893091934739,1.647188128369339,-0.23937442898750305,0.989828884601593,0.0023684799671173096,1.0685961930392331,1.4666150892571734,130.30104286719865,127.93890848180578,1.0,-0.02790692567055705,0.04336634988314458,0.30509110072426293,-0.3480796722812632,61.21262712378947,0.9706655387831764,56,1.8666666666666667
1.411263936861654,1.025346879528207,-0.14591176807880402,0.9999983310699463,1.2792258933967753,1.1357268449336457,0.16366644203662872,0.9999486804008484,1.2993393377252729,1.1374538293036212,-0.2496146708726883,0.999994158744812,1.0729508083121218,1.498297251662103,0.13666866719722748,0.9999732375144958,1.0814038016309266,1.4984124871353806,-0.13684026896953583,0.9999912977218628,1.3007783037633809,1.6961102681067959,0.22778841853141785,0.5027564764022827,1.3180988004184215,1.7143007292688885,-0.08802802860736847,0.9958104491233826,1.2849408130770172,2.025346879528207,0.38958272337913513,0.7975504994392395,1.2796816292917035,2.072450328973357,0.060799114406108856,0.995294988155365,1.353345800057449,1.6789480619370267,0.1679162234067917,0.16995249688625336,1.3685003200633612,1.6874698588534296,-0.24882543087005615,0.9898862242698669,0.0007315874099731445,1.0771773049715243,1.4983548693987416,128.21239137084473,126.24531333389086,1.0,-0.030403094461374833,0.11218060060629988,-0.01672334566531872,0.5266296708543841,61.14444055426221,0.9856572771268586,57,1.9
1.4169505213822833,1.0528478799344887,-0.14193406701087952,0.9999982714653015,1.28622522471056,1.166908137928954,0.16207532584667206,0.9999504089355469,1.3051718911372374,1.166946626302015,-0.2507277727127075,0.9999938011169434,1.0744158820243859,1.5283939257237005,0.1366024762392044,0.9999730587005615,1.0868977823511672,1.527488559669037,-0.13677039742469788,0.9999909400939941,1.312464619687564,1.7159812760112216,0.21361961960792542,0.5024559497833252,1.3274627062960789,1.7357712717803462,-0.08130344748497009,0.9961700439453125,1.2990611326978792,2.0528478799344887,0.37107494473457336,0.8095307946205139,1.2941696233112336,2.0964857269674657,0.07473750412464142,0.9957267642021179,1.36680024242695,1.7141201746447279,0.1618911772966385,0.200541153550148,1.3817399917602156,1.7270083016076971,-0.22236335277557373,0.9900311231613159,1.6123056411743164e-05,1.0806568321877765,1.5279412426963688,125.96032104918581,125.61290863904803,1.0,-0.06943931482364996,0.10224034382887313,-0.31089696260880517,-0.09001056401286588,55.48356940281441,0.9901956135071232,58,1.9333333333333333
1.4299144141753035,1.0851578414071306,-0.1414545327425003,0.9999983310699463,1.297132273630531,1.2009720983928238,0.17819342017173767,0.9999502897262573,1.314623978114064,1.202825657475426,-0.227644681930542,0.9999931454658508,1.0811697102518465,1.566585381619035,0.13534656167030334,0.9999713897705078,1.0966023138975043,1.5627082545670028,-0.13554388284683228,0.999989926815033,1.3232070435967351,1.7458788914178374,0.21323010325431824,0.49069756269454956,1.3420446638045374,1.7632930302495209,-0.0792035162448883,0.9964190721511841,1.3170562462918889,2.0851578414071303,0.3636099696159363,0.8139049410820007,1.313922853953772,2.1315139349149073,0.07008734345436096,0.9960658550262451,1.3827973972896077,1.754101861611755,0.17290538549423218,0.221738800406456,1.3971740536394648,1.7663864119999986,-0.20983004570007324,0.9894115924835205,0.0007648766040802002,1.0888860120746753,1.5646468180930189,125.49126063318518,124.88967178856143,1.0,-0.05931647919581582,0.09860821587023721,0.08133984229884848,-0.03771532283182809,45.32772621679303,0.9989333210624921,59,1.9666666666666666
1.443429499520041,1.1238564602245373,-0.14042320847511292,0.9999982714653015,1.3038025801984143,1.2381963299743062,0.1817471981048584,0.999946653842926,1.3269276099570477,1.239338914534381,-0.22765859961509705,0.9999918341636658,1.0872853777979727,1.6086973389756682,0.13531509041786194,0.9999692440032959,1.1037040607528743,1.6042989395051808,-0.13552036881446838,0.9999885559082031,1.3452623080237505,1.7812880065507202,0.20793108642101288,0.4798906743526459,1.3624310554924297,1.7944760041077201,-0.08018556982278824,0.9966054558753967,1.3394791401533164,2.1238564602245376,0.3542805016040802,0.8151358366012573,1.336885216028573,2.1693432291688097,0.06899753957986832,0.996328592300415,1.396549732627865,1.7913024846768757,0.1807764768600464,0.22954557836055756,1.4157930609627278,1.8084487478448872,-0.21802806854248047,0.9875748753547668,0.0004634261131286621,1.0954947192754236,1.6064981392404245,122.8159885345733,122.41924382544929,1.0,-0.09587650834199142,0.11360558036258722,-0.2760219050275012,0.10318518053598033,44.70156764243469,1.004825111092553,60,2.0
1.433217624121537,1.149587119874342,-0.17149782180786133,0.9999980926513672,1.303411952979477,1.2775604372215243,0.16626989841461182,0.9999402165412903,1.311108448735777,1.2681875374210612,-0.25296950340270996,0.999989926815033,1.101078492551187,1.6634367889254704,0.1352691352367401,0.9999666810035706,1.1021717769027637,1.657610649025381,-0.1354769915342331,0.9999872446060181,1.3615943731366627,1.8156607015329258,0.21232068538665771,0.4819782078266144,1.375561134644873,1.8220997827040646,-0.10575278103351593,0.9968546628952026,1.3562428499790915,2.149587119874342,0.36145222187042236,0.8193200826644897,1.3528518167253543,2.1969723437953528,0.05468669533729553,0.99661785364151,1.400074174669224,1.8197327971696124,0.18028070032596588,0.2301381528377533,1.417727061758704,1.832122064108362,-0.2758401930332184,0.986912190914154,0.003756105899810791,1.1016251347269752,1.6605237189754258,119.38033237602517,117.56722910471643,1.0,-0.054661761814962795,0.26474038405358247,0.3245311144410426,1.1469106604899268,17.04213106820417,1.0653469204388104,61,2.033333333333333
1.4205028168064413,1.1691436897918077,-0.2010241448879242,0.9999980926513672,1.310630977693179,1.3014806037377764,0.14700660109519958,0.9999272227287292,1.2967889389092797,1.2857297682360775,-0.2536175549030304,0.9999867081642151,1.110902814346381,1.6985725725637135,0.13149328529834747,0.9999604225158691,1.1071352471351736,1.6877625579886069,-0.13162314891815186,0.9999842047691345,1.372490391702337,1.8490348051268555,0.21596236526966095,0.4672461152076721,1.3870885989934603,1.839521272283139,-0.10631147772073746,0.9966732859611511,1.3694669177028107,2.1691436897918077,0.3663792014122009,0.8111303448677063,1.3644533449956189,2.209693732254097,0.054035477340221405,0.9966039657592773,1.4005491784411424,1.8401575878569627,0.1587342619895935,0.22222355008125305,1.4184836173865356,1.844874603305916,-0.2619009017944336,0.9835207462310791,0.006258666515350342,1.1090190307407775,1.6931675652761602,119.36587806641204,114.96233129704386,1.0,-0.014974152476961905,0.13880916048802164,0.30141217350184996,-0.9622399641038734,45.9161041150214,1.0899758895886174,62,2.066666666666667
1.3949040072580317,1.171291075113916,-0.18633410334587097,0.9999974966049194,1.298286404613692,1.3036818391008478,0.1433667242527008,0.9999203085899353,1.2757845289829888,1.2885963450968736,-0.2658997178077698,0.9999855756759644,1.1060649687314983,1.7080607776257033,0.13098111748695374,0.9999569058418274,1.1011746212184768,1.6980008353447924,-0.131087988615036,0.9999827146530151,1.3660377211506425,1.8498830277593343,0.20046380162239075,0.4637649953365326,1.3808516082484605,1.8380685018684397,-0.10370645672082901,0.9967498183250427,1.36989669649299,2.171291075113916,0.3672492802143097,0.8077257871627808,1.3665557667554344,2.2019864007785364,0.07289638370275497,0.9966797828674316,1.377772248096205,1.8422332409700066,0.14045272767543793,0.21903420984745026,1.4040447107214167,1.8453887049878592,-0.29378026723861694,0.9839247465133667,0.00600200891494751,1.1036197949749875,1.7030308064852477,119.30156191999,114.35299630606784,1.0,-0.030643475777404998,0.0928698370534454,-0.12100551356559945,-0.35295162257996193,51.349419090235074,1.0998197680512203,63,2.1
1.3719295007484062,1.1718976198869457,-0.1804150938987732,0.9999967217445374,1.2585747606950328,1.3004541974045563,0.14124423265457153,0.9999176859855652,1.251062158541067,1.2911230527842494,-0.2764608860015869,0.9999847412109375,1.095286171931029,1.712275075503558,0.13106726109981537,0.9999557733535767,1.0912442839548029,1.706191194380219,-0.13117529451847076,0.9999821186065674,1.3601612979825317,1.8470115662506923,0.17029127478599548,0.4706132709980011,1.3696280261536924,1.8290883197242904,-0.10046549886465073,0.9968728423118591,1.3752467283539362,2.1718976198869457,0.3397403061389923,0.8052544593811035,1.37050160370621,2.1962126195775755,0.08872224390506744,0.9967702031135559,1.3582238764580663,1.8467195747141023,0.12952212989330292,0.21312598884105682,1.3887983417157925,1.8500039925984864,-0.2984047532081604,0.9843749403953552,0.0037124156951904297,1.0932652279429158,1.7092331349418886,119.62000253954474,113.95619295549287,1.0,-0.0812736918997537,0.04802612219687868,-0.3958932169626188,-0.35068010561027196,55.226997356214035,1.0984705404166595,64,2.1333333333333333
1.3559732879957098,1.172713770581686,-0.1080499067902565,0.9999916553497314,1.22868283522868,1.2912010963272196,0.16273218393325806,0.9999165534973145,1.2310577549700248,1.2906908376478623,-0.2545529305934906,0.9999841451644897,1.088429031509488,1.718506894428907,0.13107134401798248,0.9999560713768005,1.0938237207311414,1.7125908996905082,-0.13118796050548553,0.9999821186065674,1.3568471153776787,1.8450615677070432,0.18651683628559113,0.462515652179718,1.3730085633279867,1.8329312384722118,-0.09721378237009048,0.9969635009765625,1.3788886370577358,2.172713770581686,0.35171830654144287,0.7895074486732483,1.3757841000088975,2.197603723039705,0.08596218377351761,0.9967295527458191,1.3283100533133898,1.8395707634852576,0.13833990693092346,0.20214955508708954,1.374161943329574,1.8529484084137524,-0.2870630621910095,0.9839200377464294,0.00020235776901245117,1.0911263761203147,1.7155488970597077,119.09165113594409,113.75413425876137,1.0,-0.041092149658375696,0.006021218244531022,0.29418273933788425,-0.3066695350994298,24.189831374385584,1.0982651127235576,65,2.1666666666666665
1.3547500165862778,1.1723624922352902,-0.07604411244392395,0.999976634979248,1.2156720842489637,1.2848720660153412,0.1744166910648346,0.9999173283576965,1.2304621546274361,1.2886263568214584,-0.2517775595188141,0.9999836683273315,1.0899407271875494,1.7191567822230005,0.13301119208335876,0.9999570250511169,1.098253574023166,1.7152433233274074,-0.1331673115491867,0.9999822378158569,1.3557868658043006,1.8398505745622014,0.1938803493976593,0.450600802898407,1.3744591782744284,1.8341504613843622,-0.09183706343173981,0.9970508217811584,1.3797514420282888,2.17236249223529,0.356441468000412,0.7732264995574951,1.3799276101121984,2.1948489715981245,0.08741563558578491,0.9965894818305969,1.3180649312530757,1.8349986557969002,0.14513985812664032,0.19238616526126862,1.3692213746797268,1.8484802531524835,-0.29002508521080017,0.9825677871704102,0.001487433910369873,1.0940971506053578,1.717200052775204,118.54024079151277,114.16056333326505,1.0,0.01416363584513823,-5.616849128762829e-05,0.40880949078694756,-0.04497423190113428,48.6437859279898,1.104205152494574,66,2.2
1.3387230720643046,1.1597991856297172,-0.08310534060001373,0.9999717473983765,1.199608089724653,1.2735176460608575,0.1723054200410843,0.9999182224273682,1.2100394318946683,1.2776722300990264,-0.2535066306591034,0.9999838471412659,1.0891658711318946,1.7066230831800984,0.1340186446905136,0.9999586343765259,1.0929509260892467,1.709784576514437,-0.1342034637928009,0.9999827742576599,1.3554084321150393,1.8112834433168572,0.16410240530967712,0.45267340540885925,1.3685116041855825,1.820578371358175,-0.10842160880565643,0.9971485137939453,1.3716632234635109,2.1597991856297174,0.30943381786346436,0.7654098272323608,1.372169493264921,2.18301039932629,0.06939162313938141,0.9964510202407837,1.3021570474656363,1.821733336744371,0.14628556370735168,0.18088170886039734,1.3436297300657387,1.8355119840375405,-0.3025009036064148,0.9824341535568237,0.0016552209854125977,1.0910583986105706,1.7082038298472677,114.13020875052909,112.48166596890545,1.0,0.023788988252186533,0.004233827125829342,0.07599845577130768,0.03359531066930083,115.5649603588311,1.1108273991088522,67,2.2333333333333334
1.3159347973540474,1.1571856508285807,-0.10687689483165741,0.9999714493751526,1.1947087237547922,1.2739728705000632,0.16007527709007263,0.9999191761016846,1.1893299151164953,1.2792698983604227,-0.2610839009284973,0.9999841451644897,1.0938012042594005,1.714710302453326,0.13443408906459808,0.999961256980896,1.0913334767742215,1.724606076147041,-0.13462187349796295,0.9999838471412659,1.3682267148893663,1.7919688729777512,0.17933973670005798,0.47227856516838074,1.3708549334067064,1.8134749708506197,-0.12365777790546417,0.997347891330719,1.3731726545748444,2.157185650828581,0.33255311846733093,0.7705363631248474,1.3693189226416,2.1865433025100183,0.051541924476623535,0.9965846538543701,1.2938668685323818,1.8142436502505734,0.13733059167861938,0.16825343668460846,1.3180281456186136,1.83623563977844,-0.3037426173686981,0.9819743037223816,0.0021079182624816895,1.092567340516811,1.7196581893001834,106.49929710674962,107.40124135578888,1.0,0.0017801374916973129,0.07175541927598665,-0.1671631385003648,0.5121605433763091,178.8933322991481,1.1393467931224057,68,2.2666666666666666
1.2769765792875578,1.12953519695575,-0.10333462804555893,0.999969482421875,1.1558562737609934,1.2538207477399619,0.15234217047691345,0.9999215006828308,1.1548479792430506,1.262243634456074,-0.26429373025894165,0.9999848008155823,1.0810609568078313,1.695245276895294,0.134104922413826,0.9999638795852661,1.0770849302314975,1.7131329546627254,-0.13429954648017883,0.9999849796295166,1.357897618574177,1.768722555992549,0.18252071738243103,0.4960579574108124,1.3557896759821138,1.7934066718300428,-0.12595990300178528,0.9975576996803284,1.356316032371436,2.12953519695575,0.3333927392959595,0.7830482721328735,1.3518570312403992,2.162091857259254,0.0472455695271492,0.9968271851539612,1.2580564730805353,1.783001990382262,0.13387009501457214,0.15946261584758759,1.2701752552088184,1.8086371011813924,-0.3046386241912842,0.9831965565681458,0.003390789031982422,1.0790729435196644,1.7041891157790097,104.6134243751921,105.45654974169156,1.0,-0.006698007512754682,0.030472658712923675,-0.06011404385986182,-0.2875627488798528,177.08508095550485,1.1682250590620062,69,2.3
1.2480748493386,1.1161523296476152,-0.1096382588148117,0.9999719262123108,1.12776450986083,1.2434716834435273,0.15291611850261688,0.9999247193336487,1.131169433904832,1.256069813920783,-0.26295608282089233,0.9999858140945435,1.0769389249123402,1.6939942496189222,0.13393330574035645,0.9999662041664124,1.0728762582645506,1.7153660175366565,-0.13413771986961365,0.9999860525131226,1.3530628094044805,1.7583801716855672,0.1992933303117752,0.5211462378501892,1.3507082088636568,1.786418736048778,-0.12994498014450073,0.9977594017982483,1.3514000184049948,2.116152329647615,0.34994930028915405,0.7933496236801147,1.347671827144064,2.153965450521239,0.04055871441960335,0.9970459342002869,1.2387254659059268,1.7628759751107839,0.1449718475341797,0.15892484784126282,1.243254156461333,1.798099418826894,-0.29981058835983276,0.9845796823501587,0.005091726779937744,1.0749075915884454,1.7046801335777895,102.85927588113537,103.87202838166986,1.0,0.000756971615363109,0.055925702315733294,0.057510491455423356,0.19798577257023242,175.6733722992391,1.2016248746387364,70,2.3333333333333335
1.2191728927004177,1.0891206866559933,-0.1460588276386261,0.9999746084213257,1.1023319203210946,1.2240595317921945,0.14829975366592407,0.9999270439147949,1.0990223236960612,1.2357451246140885,-0.2581172287464142,0.9999867081642151,1.060877454754229,1.6748986705565403,0.13285672664642334,0.9999683499336243,1.056492925307052,1.6891613142669126,-0.13308821618556976,0.9999869465827942,1.327233625606256,1.734207722382445,0.20517513155937195,0.55610591173172,1.3312568916654155,1.749671915343559,-0.11080823838710785,0.9979170560836792,1.33042067146783,2.0891206866559933,0.3531545102596283,0.8057327270507812,1.3316110401394408,2.118638577179828,0.06235561519861221,0.997178852558136,1.1960646684696923,1.7295020053893295,0.15944024920463562,0.15821804106235504,1.2061058449454054,1.7647116819046829,-0.3005654513835907,0.9856271147727966,0.004796862602233887,1.0586851900306407,1.6820299924117263,103.0676466872699,102.47484956645069,1.0,0.0026770216263011922,0.027836237559407593,0.014811454386406811,-0.20876500043091586,168.1654141050129,1.2233068118818848,71,2.3666666666666667
1.1965275909470114,1.0707996427382684,-0.14523565769195557,0.999976634979248,1.0832292354611937,1.2133140270129197,0.1439693719148636,0.9999303221702576,1.0755569726421046,1.2280007960644905,-0.26439327001571655,0.9999876022338867,1.0538977094666346,1.6666636589269341,0.13325196504592896,0.9999707341194153,1.0486597668154727,1.6825650254682167,-0.1334751695394516,0.9999879598617554,1.3126868122186515,1.7191310076864112,0.2175290584564209,0.5819341540336609,1.325056418580353,1.7346496453622204,-0.11874135583639145,0.9980757236480713,1.317432448030408,2.0707996427382684,0.3831765651702881,0.8145796656608582,1.329832661151627,2.1056624742865324,0.05397006869316101,0.9973310232162476,1.1724747203686325,1.710344269017824,0.15734988451004028,0.15430009365081787,1.1852352125859615,1.7524047420553983,-0.31729835271835327,0.9865924119949341,0.006063520908355713,1.0512787381410538,1.6746143421975754,102.23403787089062,101.40932019708914,1.0,-0.010423095236168684,0.017066521558697263,-0.10111042551804096,-0.08199027885617778,165.46986398150378,1.2540286518151584,72,2.4
1.1603561581118667,1.0624404379237937,-0.14879919588565826,0.9999788403511047,1.0460832741023822,1.2057823120689963,0.13184192776679993,0.9999351501464844,1.0489959050274762,1.2236867324084075,-0.2642991840839386,0.9999884366989136,1.046913502290715,1.6686484792706535,0.13138732314109802,0.999972939491272,1.0454331300602369,1.6858655017389554,-0.13160650432109833,0.999988853931427,1.3065378096517766,1.7151665731605148,0.2127690315246582,0.6136912107467651,1.3212189826813565,1.7258246203363763,-0.11684359610080719,0.9982361197471619,1.3032007871345699,2.0624404379237937,0.3608488440513611,0.8278982043266296,1.3310024998182257,2.098165277690976,0.04552646726369858,0.9975346326828003,1.1427769536307057,1.7039862531932752,0.13548758625984192,0.1519010365009308,1.1608602355002955,1.7455708757332369,-0.31275948882102966,0.9873082637786865,0.007419407367706299,1.0461733161754758,1.6772569905048045,99.60761262806433,99.7494586937347,1.0,-0.009613022433510506,0.0699710545722907,0.0061062466519617295,0.41922934384016997,174.98285123846523,1.2876285975628328,73,2.433333333333333
1.14433137798077,1.060860501405815,-0.17856702208518982,0.9999808669090271,1.03560057687229,1.203173603323109,0.10290642827749252,0.9999390244483948,1.0334653264057054,1.2236358507697254,-0.26397353410720825,0.9999892115592957,1.0478886443968793,1.6638259248225797,0.12330665439367294,0.9999740719795227,1.0433013917436071,1.6847810330537578,-0.12351218611001968,0.9999893307685852,1.3071423376334494,1.7166292926494537,0.18904322385787964,0.6254807114601135,1.3218068703685493,1.7270886459507828,-0.11577387154102325,0.9980930685997009,1.3150353041841658,2.060860501405815,0.3100229799747467,0.8277863264083862,1.330107736590622,2.0951259442391796,0.04416181519627571,0.9972695708274841,1.1368764539519038,1.6961061120420544,0.08899778872728348,0.14363829791545868,1.1502259958417254,1.7451044305889647,-0.32645183801651,0.9875816106796265,0.008476823568344116,1.0455950180702431,1.6743034789381688,102.82574451385135,99.92978507012748,1.0,-0.006771582754928175,-0.026283939404395856,0.021654773554958158,-0.7329858854364444,166.12421953130954,1.2691377214594222,74,2.466666666666667
1.1333329190680506,1.0633009394741804,-0.17945951223373413,0.9999827146530151,1.0235897825706985,1.2073607763369936,0.09750959277153015,0.999943196773529,1.0272619552805926,1.2272318536090538,-0.264675110578537,0.9999900460243225,1.0521920064671628,1.6679703257924288,0.12321116030216217,0.9999755024909973,1.0479351416639144,1.6927719065709435,-0.12341781705617905,0.999989926815033,1.3115663902626078,1.724174756460786,0.19717678427696228,0.6314342021942139,1.3277845870626541,1.7342015177572043,-0.11511000245809555,0.9980154037475586,1.3224618080526378,2.06330093947418,0.31714189052581787,0.8241503238677979,1.3352358707298673,2.1020520365847304,0.042638152837753296,0.9970701932907104,1.1264408935326422,1.6982790818021956,0.09629903733730316,0.1361123025417328,1.148922131108748,1.749352210727886,-0.3256435692310333,0.9879626035690308,0.008195966482162476,1.0500635740655386,1.680371116181686,104.06668633041697,99.58148641330035,1.0,-0.0009453355824996699,-0.010199931500159697,0.046759067233788074,0.12934952093644667,166.7075271421557,1.2721374332648068,75,2.5
1.1167158210364567,1.0578143561879723,-0.1770411878824234,0.9999843239784241,1.0059763242126711,1.2038172058231449,0.11276572942733765,0.9999462366104126,1.0137046575521276,1.2190783643909566,-0.25455695390701294,0.9999908804893494,1.0464652328012474,1.6622286901741758,0.1237812489271164,0.9999769926071167,1.045398006321525,1.6855630226591307,-0.12399037927389145,0.9999906420707703,1.3041716489178583,1.719740779584631,0.2110958993434906,0.6266018152236938,1.3238125061366424,1.7274975674944208,-0.10112889111042023,0.9978256821632385,1.3213429375792451,2.057814356187972,0.34423449635505676,0.8130642175674438,1.3305302339894958,2.0949149377633716,0.04311131685972214,0.9967348575592041,1.0800148280728037,1.6957843365442336,0.10956788063049316,0.12595424056053162,1.1402993291132684,1.7375464250722368,-0.31912368535995483,0.9887293577194214,0.006313681602478027,1.0459316195613861,1.6738958564166533,105.4881363600401,99.61291325432762,1.0,-0.007267648487564276,-0.01058684225175602,-0.048191924598891926,-0.003183104731256997,172.333811192478,1.2648268236135698,76,2.533333333333333
1.1117384684263216,1.0532599942963743,-0.17002086341381073,0.9999856948852539,0.9948612042295353,1.2006614280203223,0.0949292927980423,0.9999486207962036,1.0079840700851872,1.2097666076065732,-0.2712012529373169,0.9999915957450867,1.0439410544867265,1.6572692882316267,0.12402515113353729,0.9999784231185913,1.0472824680762578,1.6792771786064744,-0.12423720210790634,0.9999912977218628,1.2940065297820442,1.7164869775475602,0.22612285614013672,0.6138396859169006,1.3211620537449964,1.7205349854352048,-0.10039516538381577,0.9973164796829224,1.3178973782793602,2.0532599942963743,0.3581557869911194,0.8058711886405945,1.327165734157152,2.0892277565243034,0.035742394626140594,0.996163547039032,1.087111206977881,1.6965599261876967,0.10543747991323471,0.11617015302181244,1.1379734941634119,1.728722253473927,-0.343756765127182,0.9891660213470459,0.0037765800952911377,1.0456117612814921,1.6682732334190506,107.38051464891015,99.49964902777639,1.0,0.018155912646211848,-0.010227423011926048,0.1952765750658064,0.0025540401017973154,177.50188271974164,1.2650737419751903,77,2.566666666666667
1.0980628815849651,1.0472872212215947,-0.16404500603675842,0.9999867677688599,0.981002149966137,1.1959760570487765,0.08844274282455444,0.9999515414237976,0.9975659503813745,1.2030858084685672,-0.29045945405960083,0.999992311000824,1.0405418502029091,1.6518415822719301,0.12452618777751923,0.9999800324440002,1.0446089142474027,1.672752877097363,-0.12472900003194809,0.9999920129776001,1.2864480503642908,1.7125542192234837,0.24200788140296936,0.5977546572685242,1.3197479923084003,1.713544715033682,-0.10096486657857895,0.996942400932312,1.3101829888719643,2.0472872212215947,0.3832702040672302,0.7979331016540527,1.3256217728571342,2.0825105644887767,0.03488517180085182,0.9955773949623108,1.0761462635966645,1.681962024069736,0.09757351875305176,0.10746391117572784,1.1284984225344243,1.7184331571122764,-0.34936678409576416,0.9898416996002197,0.0029580891132354736,1.0425753822251558,1.6622972296846465,107.92448871149821,99.34523008516034,1.0,0.0015642114149142545,-0.006317662154832924,-0.1288008445947506,0.03020788238524465,176.4350429453967,1.2660463067863474,78,2.6
1.09070088078322,1.0529944347297973,-0.1864139288663864,0.999987781047821,0.9793288112648216,1.2020772698779885,0.06338487565517426,0.9999546408653259,0.9926916367458011,1.209015301451356,-0.3149385452270508,0.9999929666519165,1.0475842373186777,1.6599296873756997,0.12559621036052704,0.9999815225601196,1.0530603082694474,1.6800610730504437,-0.12579381465911865,0.9999926090240479,1.2930484841490626,1.7189032797175516,0.2595561146736145,0.5890008807182312,1.327758728046023,1.7166994318533193,-0.11129496246576309,0.9967835545539856,1.3138279502652617,2.052994434729797,0.41105714440345764,0.7930141687393188,1.3330669114618592,2.090890798157643,0.014857550151646137,0.9952988624572754,1.09147559680527,1.6904722600045168,0.07352546602487564,0.09973904490470886,1.1315629213611762,1.7252097172326115,-0.37673118710517883,0.9903678894042969,0.002872079610824585,1.0503222727940627,1.6699953802130718,107.06849516202828,98.40981146825462,1.0,0.01956995093541153,-0.005814262860029943,0.14316273250611453,0.0042590897228258024,173.26184611324774,1.2723585170651053,79,2.6333333333333333
1.0806940238038572,1.0525980912898845,-0.2158440798521042,0.999988853931427,0.9746223554518295,1.202732278465936,0.0480135902762413,0.999957263469696,0.9859899966484692,1.2089385478076764,-0.32476258277893066,0.9999935626983643,1.0482836340727115,1.6585061413185889,0.12581908702850342,0.9999827146530151,1.0534528503952785,1.678780851697604,-0.12601658701896667,0.9999931454658508,1.293568119450084,1.7131691267948808,0.2416156530380249,0.5984978079795837,1.3277931720458005,1.7127671158188154,-0.11538343131542206,0.9966311454772949,1.3127195596331753,2.0525980912898847,0.388732373714447,0.7939844727516174,1.332674589962838,2.08968659048705,0.015480304136872292,0.9949621558189392,1.09271261188172,1.6912591687613434,0.05438828468322754,0.09278763830661774,1.1272918889715637,1.7249657668150662,-0.4024983048439026,0.9909153580665588,0.0025700628757476807,1.050868242233995,1.6686434965080963,105.79272597847505,97.80401235999258,1.0,0.00685736561264877,-0.005720534086075421,-0.09514326262474386,0.0006865348726564373,174.8773101940992,1.2698676450589466,80,2.6666666666666665
1.0700311942830727,1.0528798797018106,-0.2286127358675003,0.9999898672103882,0.9747712601546215,1.2043644362720687,0.045967672020196915,0.9999597668647766,0.9761333654189913,1.2092234848593884,-0.32376429438591003,0.9999940395355225,1.0490880342564293,1.658241398903983,0.12594828009605408,0.9999838471412659,1.0533686486660752,1.6778834058618886,-0.1261436492204666,0.9999935626983643,1.2941036270802186,1.7103910036574197,0.2205791175365448,0.6154766082763672,1.3278862555749311,1.71102470499713,-0.12429188191890717,0.9964895248413086,1.3126460477934299,2.052879879701811,0.3572368621826172,0.7988477945327759,1.3324966019330842,2.0881065067296407,0.01066947728395462,0.9946058392524719,1.1009556901285364,1.6911568798693393,0.04633559659123421,0.08743739873170853,1.1252365405750202,1.7242793248425317,-0.407348096370697,0.9910246133804321,0.002012312412261963,1.0512283414612522,1.6680624023829358,105.11462583995565,97.58423800219651,1.0,0.0034229862980811473,-0.0036326955041066232,-0.027009069941796447,0.016418565831679367,177.0046325086243,1.2680536725404494,81,2.7
1.0592677833784483,1.050554648913034,-0.23818647861480713,0.9999907612800598,0.9681024324553318,1.203110498096362,0.03851192444562912,0.999962329864502,0.965191658416096,1.208522997048048,-0.33422887325286865,0.9999944567680359,1.0502986698213945,1.6550530107402703,0.12641838192939758,0.999984860420227,1.05181126047856,1.6756704665165048,-0.12659212946891785,0.9999939799308777,1.2928208931830583,1.7076508930989776,0.22270850837230682,0.6181620955467224,1.325916215786781,1.7070985474228575,-0.13755711913108826,0.9961904883384705,1.3102803632201019,2.050554648913034,0.37113144993782043,0.7930046916007996,1.330614819090981,2.083343112807801,-0.00011505353904794902,0.9937582612037659,1.1018769476455206,1.6876850988620429,0.024789074435830116,0.08341778814792633,1.1196564274790464,1.7208261268847107,-0.4163685739040375,0.9904799461364746,0.00224459171295166,1.0510549651499774,1.6653617386283877,105.15150631591064,97.2562875151208,1.0,0.010058271597718839,-0.0032993093764117735,0.05272308238311107,0.002607655121065695,173.88806395024633,1.2714865071181094,82,2.7333333333333334
1.0496612337837583,1.0468215310179694,-0.21886737644672394,0.9999911785125732,0.9595576806698825,1.2031457461665231,0.038368094712495804,0.9999641180038452,0.9558379902896881,1.207213620199409,-0.3248147666454315,0.9999947547912598,1.0517442460681217,1.6481533979679688,0.12479992210865021,0.9999856948852539,1.0485998467848643,1.6710815064258868,-0.12496347725391388,0.9999942779541016,1.292081737760252,1.699980319742923,0.20335134863853455,0.6062968969345093,1.3220240990371863,1.7011048239842081,-0.1364329308271408,0.9946407675743103,1.3111414255369498,2.046821531017969,0.3314007520675659,0.7778939604759216,1.3278152672227146,2.077081699431393,-0.009048955515027046,0.9916823506355286,1.1004030548172175,1.6825519368575395,0.02946537360548973,0.07780004292726517,1.1158697165548646,1.714187932198183,-0.4077524244785309,0.9891918301582336,0.0016921758651733398,1.050172046426493,1.6596174521969278,105.31441451863643,97.14870898625158,1.0,0.018546171516898746,-0.004887292814041535,0.06719104386383477,-0.01260503650801983,160.4873811171607,1.2657160765178732,83,2.7666666666666666
1.042549115371349,1.045634115236042,-0.21009548008441925,0.9999917149543762,0.9502316470356954,1.2034307271771076,0.05424485355615616,0.9999657869338989,0.9483127215652315,1.2069090480586164,-0.3164471685886383,0.9999950528144836,1.0505396745214892,1.646886929299724,0.124900221824646,0.9999866485595703,1.046743060003147,1.6719638287846552,-0.12506525218486786,0.9999946355819702,1.2926249660479627,1.6963686318542488,0.20396235585212708,0.6037198305130005,1.323185021098587,1.6992590473498654,-0.13430163264274597,0.9938114881515503,1.3100976114804492,2.045634115236042,0.33148089051246643,0.770659863948822,1.3279167574082738,2.0746939090510654,-0.005095344968140125,0.9905205965042114,1.099226358894045,1.6801309313689905,0.05012119561433792,0.07288788259029388,1.1151556453020475,1.7123352887702197,-0.3936592638492584,0.9885205626487732,0.0014479756355285645,1.0486413672623183,1.6594253790421896,104.41594938442616,96.36105117487956,1.0,-0.005947709671734352,0.007743816586132263,-0.18845579490095982,0.09720967837332507,158.6452726507971,1.2697571973366948,84,2.8
1.0292717385463697,1.042976051785855,-0.20584794878959656,0.999992311000824,0.944002528356117,1.2032246972889482,0.05458161234855652,0.9999668598175049,0.9385353083817035,1.2055432621567455,-0.2936287522315979,0.999995231628418,1.0478576997961537,1.6436018242120825,0.12385020405054092,0.9999871253967285,1.0420961575618026,1.6698423078637992,-0.12403066456317902,0.9999947547912598,1.289759871907294,1.692485471813088,0.20553115010261536,0.6001452803611755,1.3206442020444071,1.6955826080196277,-0.13130654394626617,0.992725670337677,1.3069551801289387,2.042976051785855,0.33101457357406616,0.7636231184005737,1.3267274337213995,2.0668702461131456,0.002453036606311798,0.98909991979599,1.098788098262334,1.6758050667730675,0.05753709003329277,0.0699639692902565,1.1119477831295823,1.7090416884365578,-0.38690224289894104,0.9880703091621399,0.0009670257568359375,1.0449769286789783,1.6567220660379407,104.23320915497551,96.21830052293983,1.0,-0.01278981121915868,0.00348136055019312,-0.052517549405899595,-0.032550159731527924,154.34651468170728,1.27333053166055,85,2.8333333333333335
1.0170117013493418,1.0381989206631674,-0.22393885254859924,0.9999930262565613,0.9362590641651296,1.2003176226826857,0.06014362722635269,0.9999683499336243,0.9289408139742602,1.200942286314405,-0.2977931797504425,0.9999955296516418,1.042819042114162,1.634641893652439,0.1247820034623146,0.9999876022338867,1.037307295820898,1.6615342887994056,-0.12496449053287506,0.9999949336051941,1.281647775048272,1.6849212002189167,0.21869567036628723,0.5978412628173828,1.314331393728104,1.687407338716743,-0.14267846941947937,0.99261873960495,1.29368663049155,2.0381989206631674,0.33790919184684753,0.7611818909645081,1.3207442941130287,2.0560958466126507,-0.023041438311338425,0.9887380599975586,1.0946045389948262,1.6670834409522195,0.029267599806189537,0.07069341093301773,1.1048218855283982,1.7010852250552697,-0.41371792554855347,0.988575279712677,0.0002617835998535156,1.04006316896753,1.6480880912259224,103.84030717357028,96.33223219263651,1.0,0.0005580241701496002,-0.0055737087356015685,0.10171750951364068,-0.06919417030613143,154.63228381151222,1.2709004097862324,86,2.8666666666666667
1.0111311853310134,1.0373012906246273,-0.2172292023897171,0.9999935030937195,0.9285461588674568,1.2020278980577002,0.06263711303472519,0.9999687075614929,0.9252402481958959,1.2007951181631964,-0.29976075887680054,0.999995768070221,1.0404330489318405,1.6320640153111974,0.12497265636920929,0.999987781047821,1.0364652029578476,1.6585032005737153,-0.12515732645988464,0.9999949932098389,1.2801476323200924,1.6838600974585336,0.2205595076084137,0.5814498066902161,1.3130497105880445,1.685188089171979,-0.14002758264541626,0.9917528033256531,1.295660053447936,2.0373012906246273,0.3343636691570282,0.7534257173538208,1.3198268025959858,2.0542892107316795,-0.027726750820875168,0.9876599907875061,1.0894200271524213,1.6632672020934094,0.03226671367883682,0.06718955188989639,1.10107644066673,1.6995163310651367,-0.42234548926353455,0.9887478947639465,0.0005170702934265137,1.038449125944844,1.6452836079424562,104.70576313554842,96.56273686461527,1.0,-0.005531656707351464,-0.010627146556584643,-0.045920122276342956,-0.03814472254696333,156.88117548180236,1.260999691657961,87,2.9
1.0114262968788221,1.039992430643421,-0.2337970733642578,0.9999939799308777,0.936636184201346,1.2057055235514351,0.0534919910132885,0.9999693036079407,0.924187824840874,1.203497794549209,-0.30692121386528015,0.9999959468841553,1.0464634046669725,1.6241983900451284,0.12469792366027832,0.9999876618385315,1.0387300168843925,1.6583714150567546,-0.1248798817396164,0.9999948740005493,1.2826328830733753,1.6872718051149826,0.22118544578552246,0.5560588240623474,1.3155241295311129,1.6887052270992078,-0.14373528957366943,0.9901623129844666,1.3008357902416812,2.0399924306434207,0.3357924222946167,0.7357469797134399,1.322352070765795,2.0566030105990927,-0.032711002975702286,0.9852835536003113,1.0917385086317148,1.6615382709573356,0.009691429324448109,0.06529068946838379,1.1014641920737047,1.7027193582734805,-0.445993572473526,0.9887937307357788,0.0009241700172424316,1.0425967107756824,1.6412849025509415,107.90715806993032,97.31732580171689,1.0,0.016380594242775683,-0.056726881366200424,0.17148570381704134,-0.36043304182066566,152.5438639831167,1.2341292252854723,88,2.933333333333333
1.008578604026126,1.042319924891584,-0.2592613101005554,0.9999944567680359,0.9407983634487586,1.2072889329733818,0.026879921555519104,0.9999704957008362,0.9231497679384941,1.2068273481789575,-0.3231516182422638,0.9999960660934448,1.0537431147291323,1.6201003137692869,0.12341829389333725,0.9999877214431763,1.0421233556487313,1.6573659065513955,-0.12358357012271881,0.9999948143959045,1.2853409681388137,1.6910871213136671,0.2211340367794037,0.5486277341842651,1.3172168418987233,1.6912965955376429,-0.1419084370136261,0.9895356893539429,1.3065798577343473,2.0423199248915838,0.3392511308193207,0.7311897277832031,1.3242464204006505,2.0598302018196453,-0.024309121072292328,0.9841416478157043,1.0986369773197453,1.6559995471135907,-0.009618238545954227,0.06390064209699631,1.1000315708598967,1.7052545090431834,-0.4548679292201996,0.9874165058135986,0.00019294023513793945,1.0479332351889317,1.6387331101603413,110.50120557139331,98.12423800091001,1.0,0.031027267092535792,-0.04031664211247735,0.11903644467415554,0.13426332111423245,147.3804418079196,1.2160902403422724,89,2.966666666666667
1.010098014202568,1.047216581821369,-0.2513585686683655,0.9999949336051941,0.9438926888446664,1.212877476124438,0.03592226654291153,0.999971330165863,0.9256439264369679,1.21453717058971,-0.31854549050331116,0.9999962449073792,1.05910912544814,1.6259112548236794,0.12329240143299103,0.9999878406524658,1.0467166971435682,1.664666388022073,-0.1234527975320816,0.9999948740005493,1.2909290873377515,1.6962578680280105,0.22571174800395966,0.5386671423912048,1.3224568375967698,1.6988132160600968,-0.14327159523963928,0.9892199635505676,1.312131043253809,2.047216581821369,0.3539990782737732,0.7245401740074158,1.3298934546041197,2.0689040295173275,-0.024204518646001816,0.9834237098693848,1.1029793227045959,1.6562287127428919,-0.0020785736851394176,0.061435386538505554,1.103287302077067,1.7131664439825192,-0.45185837149620056,0.9869341254234314,0.000690758228302002,1.0529129112958542,1.6452888214228762,110.33773666496324,98.21054474878349,1.0,0.0033817619670980245,-0.0039756914882012615,-0.20899247792367684,0.27471239661578967,146.68115650374563,1.218211990757452,90,3.0
1.0167219752296004,1.0581874565919414,-0.24174439907073975,0.999995231628418,0.949921550111669,1.2243616200431495,0.035855427384376526,0.9999719262123108,0.9307125149748088,1.2265632630411056,-0.31771987676620483,0.9999963045120239,1.0686683587812005,1.6394133280009242,0.12205877155065536,0.9999879002571106,1.0567691919195206,1.6801724242009537,-0.12221992015838623,0.9999948740005493,1.2965891594927474,1.712389689220169,0.22635695338249207,0.5261660218238831,1.3346424339902911,1.7152331587938086,-0.14202812314033508,0.9886672496795654,1.3190063876853737,2.0581874565919414,0.3580804467201233,0.7128120064735413,1.342583501615808,2.0872444595105244,-0.020064139738678932,0.9823541045188904,1.1130065888074208,1.669877028543932,0.00117837218567729,0.058560434728860855,1.1124045239592242,1.729681847621927,-0.4380098879337311,0.9854292273521423,0.000907599925994873,1.0627187753503604,1.659792876100939,111.46333706208223,98.41417704329693,1.0,-0.0022550078101983384,-0.009584117684830152,-0.04196889656976717,-0.041236062618133576,147.7595284728564,1.2255627827057494,91,3.033333333333333
1.0161652028741874,1.0620799333024311,-0.25442269444465637,0.9999955892562866,0.9486974000761248,1.2274397821661114,0.027473539113998413,0.999972403049469,0.9301345286020035,1.2299039801994491,-0.31744199991226196,0.9999964237213135,1.0710003852619476,1.6427307100154482,0.12115879356861115,0.9999877214431763,1.0596924108034524,1.6839717115109833,-0.12131883203983307,0.9999948143959045,1.299778148255407,1.7178143211345311,0.22917509078979492,0.5173545479774475,1.3379021225933085,1.7195819168651678,-0.1409340798854828,0.9883600473403931,1.3240353014739965,2.062079933302431,0.36270326375961304,0.704842746257782,1.3458323150996303,2.091237073505023,-0.019813934341073036,0.9814162850379944,1.115755923656098,1.6735896412367692,-0.006099342368543148,0.056368667632341385,1.1134302199007944,1.7343888467100979,-0.4379917085170746,0.9848937392234802,0.001013338565826416,1.0653463980327,1.6633512107632158,112.19998563004103,98.51643038466133,1.0,7.782467948317253e-05,-0.004316911387695373,0.01902342906425593,0.043042255729667835,148.25709284012098,1.2225497956767126,92,3.066666666666667
1.0217880897228804,1.0718817092798743,-0.27157819271087646,0.9999959468841553,0.9493830018431807,1.2365757442097545,0.023676613345742226,0.9999727010726929,0.9363341005950173,1.2396494159366482,-0.32911691069602966,0.9999966025352478,1.0795650853091783,1.6539235503573901,0.12144581973552704,0.9999876022338867,1.0699332248651205,1.696642548555104,-0.12159768491983414,0.9999948143959045,1.3092270033270725,1.7308564801967616,0.2372162789106369,0.5077446699142456,1.3479085303336127,1.7337824929967898,-0.14836616814136505,0.9883372783660889,1.3360181163336187,2.0718817092798743,0.382222056388855,0.6950050592422485,1.3560941803980218,2.107279979435829,-0.02666974626481533,0.9805210828781128,1.121237691438119,1.6808832077769955,-0.01979021355509758,0.05364052206277847,1.1212235973862472,1.7491136082817524,-0.46472492814064026,0.9849326610565186,0.0012543797492980957,1.0747491550871495,1.6752830494562472,113.01195350551592,98.86565513909831,1.0,0.009372556088040161,-0.005838133318156616,0.0692153545319463,-0.011083085981185927,149.96986312019138,1.2231111221835278,93,3.1
1.0206270732658578,1.0746185929461918,-0.26045531034469604,0.9999961256980896,0.9519069237416992,1.2383254458515742,0.02457372099161148,0.999972403049469,0.9346063636989254,1.2417628282222242,-0.3242301940917969,0.9999967217445374,1.0842402212643953,1.654169290606392,0.120636485517025,0.9999874234199524,1.0727559766405435,1.6977404268038012,-0.1207876056432724,0.9999948143959045,1.3107709742523956,1.7334974820782876,0.23626704514026642,0.49306944012641907,1.34947279014423,1.7372453858213426,-0.14942821860313416,0.9879364371299744,1.338668752605809,2.0746185929461918,0.376517653465271,0.6830374598503113,1.3581574425266698,2.1104217218110257,-0.03261679783463478,0.9793193340301514,1.121983487078954,1.6787961365758708,-0.01688695140182972,0.05077172815799713,1.12191430356075,1.752180249831484,-0.4501602053642273,0.9849541187286377,0.001400768756866455,1.0784980989524693,1.6759548587050965,113.97499961566913,99.45798456499884,1.0,0.01650970978796771,-0.013407687610967023,0.05391243764800215,-0.0572239750217193,147.5815657659086,1.217064908898467,94,3.1333333333333333
1.0205220467493472,1.0766984520763883,-0.2545371353626251,0.9999963641166687,0.953538792453112,1.2400624566207379,0.0269470252096653,0.9999722242355347,0.9331715768642276,1.2432109098354829,-0.3118954300880432,0.9999967813491821,1.0862975447877499,1.6562818515698452,0.12081257253885269,0.9999871850013733,1.0741676397603785,1.6994571246162438,-0.12096679210662842,0.9999947547912598,1.3167913624856618,1.7332401857358992,0.2280019074678421,0.48410606384277344,1.3507072196928251,1.7389388509156012,-0.14804790914058685,0.9877330660820007,1.3401836788044779,2.0766984520763883,0.36150193214416504,0.6739099621772766,1.3594984085333273,2.1126279196380158,-0.030582640320062637,0.9785663485527039,1.1229323543025969,1.6796380040147756,-0.010286858305335045,0.048850759863853455,1.121126210382531,1.7535664790464391,-0.4395143985748291,0.9848568439483643,0.00128173828125,1.080232592274064,1.6778694880930445,112.35966431374351,99.47290201592949,1.0,0.004902269652202568,0.001729790609342341,-0.08766824254736852,0.11426817940581369,146.61674393014513,1.2170326374494818,95,3.1666666666666665
1.0241113107059714,1.0817822499312233,-0.255374014377594,0.9999966025352478,0.9549053014123366,1.2452823474904202,0.02768007293343544,0.9999728202819824,0.9367192231611856,1.2485006982062488,-0.3092295527458191,0.9999969005584717,1.090683074648298,1.6635372244577598,0.11967959254980087,0.9999871850013733,1.078732330353232,1.7068368926388608,-0.11984141170978546,0.9999947547912598,1.3224124867537843,1.7399112983254372,0.22275304794311523,0.4813604950904846,1.3564811581357386,1.746341971230991,-0.14678286015987396,0.9876264929771423,1.3450838619443997,2.0817822499312233,0.35981273651123047,0.6666791439056396,1.3655973188644785,2.121256303669505,-0.02601473033428192,0.9779292941093445,1.1270583189322627,1.6877197011791945,-0.00972550455480814,0.0481872633099556,1.125977080720053,1.7611255346457189,-0.4333621561527252,0.9853366613388062,0.00130462646484375,1.084707702500765,1.6851870585483104,112.0353894565595,99.48795029778692,1.0,-0.0009662722003480637,0.0011329072805392711,-0.042310224468917364,-0.004341072575839778,146.5855035885999,1.22126900490436,96,3.2
1.0226074283965667,1.0820783227181074,-0.24400489032268524,0.9999967217445374,0.9555899681282275,1.2450343831291526,0.039004672318696976,0.9999721646308899,0.9334173318962282,1.2480590370577442,-0.29527878761291504,0.9999969601631165,1.0918192108452383,1.6635987662928533,0.11903051286935806,0.999987006187439,1.0785903560231138,1.705739425637713,-0.11918647587299347,0.999994695186615,1.3274784752151192,1.7389562238899587,0.20829561352729797,0.45981234312057495,1.3561019864378658,1.745207822201392,-0.14586879312992096,0.9858452081680298,1.3481094553072246,2.0820783227181074,0.32400211691856384,0.6570520997047424,1.36627825478321,2.120792687494106,-0.029343951493501663,0.9761520028114319,1.1270120898684164,1.6885328289401194,-0.005295064300298691,0.04601764678955078,1.1248719421302287,1.7608554886832384,-0.40988683700561523,0.9854397177696228,0.0012263059616088867,1.085204783434176,1.684669095965283,111.17376379003619,99.64648220063785,1.0,0.00509589544957441,-0.001856393731302566,0.04591919547252878,-0.02264229960452053,144.54340837197043,1.2173412055416848,97,3.2333333333333334
1.0212234506638538,1.081879578887472,-0.24921686947345734,0.9999969005584717,0.9561886815023123,1.244525835458446,0.0382969006896019,0.9999715685844421,0.931549742480863,1.2475637192150115,-0.2980629801750183,0.9999970197677612,1.0936256610652255,1.6628761699386765,0.11862953007221222,0.9999868273735046,1.0782031693509977,1.704816512379538,-0.11877987533807755,0.9999946355819702,1.3295220667602583,1.7372796332907503,0.20470567047595978,0.4460444748401642,1.3555558429370598,1.7438017075457877,-0.14550916850566864,0.9847942590713501,1.3490234817304474,2.081879578887472,0.3274082541465759,0.6513826847076416,1.3663058542894457,2.11914450183747,-0.027835506945848465,0.9749147891998291,1.1266061421624378,1.688031146538066,-0.009269030764698982,0.04423467814922333,1.1239934768970499,1.7602292344288986,-0.41527947783470154,0.9855509400367737,0.001232147216796875,1.0859144152081117,1.6838463411591071,110.74465535675726,99.64171102040929,1.0,0.00924490099684223,-0.001390942841787576,0.03395767173130333,0.0038018020450601236,141.62383667603928,1.217061761812096,98,3.2666666666666666
1.0198104279389848,1.0815638083588284,-0.2483576536178589,0.9999969601631165,0.9554961339624358,1.2434430136717383,0.03802226483821869,0.9999710917472839,0.932001112080915,1.2469212398131135,-0.2966552972793579,0.9999970197677612,1.093743619832188,1.6615456471113537,0.11784525960683823,0.9999865889549255,1.0796783070293308,1.70315559199845,-0.11800563335418701,0.9999945163726807,1.3282749362377821,1.7358095707527712,0.20845448970794678,0.4398435652256012,1.35428726353873,1.7421221789884982,-0.14267651736736298,0.9842331409454346,1.344725482003898,2.0815638083588284,0.32360920310020447,0.6484096646308899,1.3651270424704347,2.1172283637015554,-0.03319180756807327,0.9743857979774475,1.1265556597305502,1.6823515739417447,-0.017945144325494766,0.042670007795095444,1.122565515169575,1.7584164989698863,-0.4221421778202057,0.985542356967926,0.0014119744300842285,1.0867109634307592,1.6823506195549018,110.29430402811006,99.73153174584198,1.0,0.012430791324117337,-0.0002317925145654684,0.02281500937057916,0.00827147000225787,143.02662696671638,1.2191151218804002,99,3.3
1.020345964252349,1.0830147604029408,-0.24807624518871307,0.9999971389770508,0.9563196000621157,1.2441715514679232,0.03707638010382652,0.9999710917472839,0.933275027667767,1.2487143101231633,-0.29520174860954285,0.999997079372406,1.0969424491347222,1.662683017522405,0.11691693216562271,0.9999866485595703,1.0824483296278922,1.7041049666524992,-0.1170763373374939,0.9999945163726807,1.3304463556779782,1.735794678650621,0.19864420592784882,0.4382057785987854,1.355062257434156,1.7431658448486533,-0.14264383912086487,0.9837465882301331,1.3441432409477956,2.083014760402941,0.32010596990585327,0.6461358070373535,1.3666824992062918,2.117946151833418,-0.031279947608709335,0.973977267742157,1.1265537546551854,1.6838470044839926,-0.01988014578819275,0.042033687233924866,1.1226164327069807,1.7593783556303777,-0.41977205872535706,0.9857308864593506,0.0018430352210998535,1.089695389381307,1.683393992087452,109.64468411981615,99.92991369838074,1.0,0.018219938493592026,0.0004278654832154683,0.044903095706963485,0.0051241085273791105,142.14162696808773,1.2220888138000239,100,3.3333333333333335
1.0204215421776939,1.0843366509182233,-0.24135351181030273,0.9999972581863403,0.9566746235506277,1.244483103433099,0.04216110706329346,0.999970018863678,0.9329147023361967,1.2487994686691357,-0.28314727544784546,0.9999971389770508,1.0985106908734048,1.6632469479813476,0.11574824899435043,0.9999862909317017,1.082628591775555,1.7042750488093,-0.11591903865337372,0.9999944567680359,1.3311025548952617,1.7363212538444373,0.19838806986808777,0.4338339567184448,1.3554212728824706,1.74365578295143,-0.13912470638751984,0.9830641150474548,1.3444756160706866,2.0843366509182233,0.31413838267326355,0.6387106776237488,1.3670987660988394,2.118534572546921,-0.030445972457528114,0.9731351137161255,1.1269739835832047,1.6848253941942006,-0.012437249533832073,0.040955957025289536,1.1223897926750084,1.759895203378145,-0.4123912751674652,0.9865021109580994,0.0017507076263427734,1.0905696413244799,1.6837609983953237,109.64196192569754,99.99873799621105,1.0,0.0044935342280169495,-0.0007206827507099796,-0.10697390289311708,-0.00894864182129174,140.1270992552446,1.219795090836098,101,3.3666666666666667
1.0196027332287436,1.0837910015694314,-0.24062152206897736,0.9999971985816956,0.9590082491498577,1.243782929410971,0.04373164474964142,0.9999679923057556,0.9323552240101053,1.2484760277228284,-0.28736788034439087,0.9999971389770508,1.0986431564929158,1.6617727431926768,0.11583751440048218,0.9999858140945435,1.0815506032059155,1.7029448622979768,-0.11600299179553986,0.9999943375587463,1.330074567628222,1.7347644065381547,0.2010146677494049,0.41610226035118103,1.354138350306571,1.7419271624975563,-0.13634850084781647,0.9807687401771545,1.34412493904221,2.0837910015694314,0.32092270255088806,0.6262911558151245,1.3657155403952583,2.1165967351216928,-0.01971345767378807,0.9706188440322876,1.1251751286197438,1.6836547820601637,-0.010913319885730743,0.03851262107491493,1.1213890836903566,1.7589816160188152,-0.41345739364624023,0.9867157340049744,0.0019052624702453613,1.0900968798494157,1.6823588027453267,109.8101154034717,99.90844874317028,1.0,0.0039984614274042925,0.0011065342264852062,-0.0037000477216551186,0.013766147453684173,138.98171657190116,1.2183435923457733,102,3.4
1.0200115613675305,1.08401505121492,-0.24077145755290985,0.9999971985816956,0.9598573579206453,1.244503101262691,0.043295763432979584,0.9999669790267944,0.9323223915380304,1.2486969968782546,-0.28588181734085083,0.9999971985816956,1.0986268783735031,1.6619668449815017,0.1144774928689003,0.9999856352806091,1.0806620490695917,1.7031256951466778,-0.11465249955654144,0.9999942779541016,1.330015815022818,1.7348184370481776,0.19689908623695374,0.41901856660842896,1.3542294944669444,1.7410962860464982,-0.13630439341068268,0.9807537794113159,1.3432077259418498,2.08401505121492,0.3209371268749237,0.623031497001648,1.3657986439693461,2.115664918855322,-0.01577623374760151,0.9704453349113464,1.1266720044142868,1.684429287055365,-0.011156740598380566,0.037664059549570084,1.1213154381257604,1.7598023848954565,-0.40945643186569214,0.9872708320617676,0.0017024874687194824,1.0896444637215474,1.6825462700640896,109.6398195477198,99.67115792752912,1.0,-0.004234520808499214,0.0006106855439309959,-0.0664272639461729,-0.004001185846890365,138.03253841527714,1.2191476949834157,103,3.433333333333333
1.0176672835975773,1.081646633679888,-0.24203069508075714,0.9999972581863403,0.957374801673321,1.2412599156017428,0.04189039766788483,0.999966561794281,0.9300858414319396,1.2464590052375304,-0.28789451718330383,0.9999972581863403,1.0953496169217092,1.657708269463765,0.11462332308292389,0.9999858140945435,1.0778062222865261,1.6986144718270129,-0.11479562520980835,0.9999943971633911,1.3251778469255218,1.7304139568091739,0.20868444442749023,0.42012301087379456,1.3504989349722798,1.7355721894467253,-0.13994944095611572,0.9811622500419617,1.3338729190663137,2.0816466336798882,0.344648152589798,0.6215026378631592,1.3617952360007852,2.110415085868157,-0.02936062589287758,0.971002995967865,1.1239963767603929,1.6806898184287176,-0.015273255296051502,0.036999281495809555,1.118450368741731,1.755573813475795,-0.42356348037719727,0.9877749681472778,0.0021161437034606934,1.0865779196041176,1.678161370645389,108.97277744727995,99.4443503120359,1.0,-0.0012601892424170973,0.0004905263704315542,0.020613552010325713,-0.0008246626303803191,138.4563034104555,1.2184594872727006,104,3.466666666666667
1.0158324187943049,1.0795354114943363,-0.23561231791973114,0.999997079372406,0.9556247566293454,1.2386441581068761,0.04723154753446579,0.9999646544456482,0.9283981521622933,1.2438944244308223,-0.28680098056793213,0.9999971985816956,1.0930335910507847,1.6545555369550369,0.11470923572778702,0.999985933303833,1.075766943182739,1.696029513493978,-0.11488807201385498,0.9999944567680359,1.3149704564740192,1.7298822299763084,0.22115810215473175,0.4121105670928955,1.3476020176537027,1.7323878196919476,-0.13842298090457916,0.9810019135475159,1.3256742714371321,2.0795354114943363,0.3511858284473419,0.6173058152198792,1.3584991773350301,2.10646863763802,-0.0292403195053339,0.9710676074028015,1.1216847792768367,1.6768503896962903,-0.012101788073778152,0.03504948690533638,1.1161745278782844,1.752263452126832,-0.41982150077819824,0.9871472120285034,0.0021413564682006836,1.0844002671167619,1.6752925252245074,110.50094692873463,99.28675649693834,1.0,0.00035321053586187594,0.004321109620401844,0.012300835930068666,0.029259451611507857,139.11429758325426,1.2218589483633924,105,3.5
1.013280091115788,1.0770601223982144,-0.236781045794487,0.9999969601631165,0.953774537690718,1.2354839965070727,0.047127075493335724,0.9999634027481079,0.926300675978516,1.240649197074185,-0.2879723906517029,0.9999971985816956,1.090026908250605,1.6502732001490805,0.11486293375492096,0.9999856948852539,1.0729264460688608,1.6916688493818652,-0.11503909528255463,0.9999943971633911,1.3091352935063238,1.7262299399727812,0.21877212822437286,0.40056586265563965,1.343534302007034,1.7278277312253334,-0.13843514025211334,0.9802659153938293,1.3224506578827502,2.0770601223982146,0.349518746137619,0.6086437702178955,1.35492319247496,2.1022653449979964,-0.030085217207670212,0.9702516794204712,1.1189752505604003,1.6702897552604166,-0.013322795741260052,0.0333876833319664,1.1132964013549014,1.7487118336396423,-0.42003265023231506,0.9870195984840393,0.0021122097969055176,1.0814766771597328,1.670971024765473,111.29308520774197,99.35300547318536,1.0,-0.0006081699416554754,0.00063701827383468,-0.0077589040062399795,-0.02966980823314086,139.36995702576252,1.2165810781784618,106,3.533333333333333
1.0104046108362499,1.074035560816612,-0.23271986842155457,0.9999968409538269,0.9508811360974952,1.2319022024859945,0.04634886980056763,0.999962568283081,0.9240712582462879,1.2371270708596704,-0.2886134088039398,0.9999971985816956,1.0867414477860144,1.6437881204040694,0.11493575572967529,0.9999855160713196,1.0698564363828202,1.6855074248837063,-0.11510992050170898,0.9999943971633911,1.301912037899952,1.7226064464653004,0.22111590206623077,0.38910895586013794,1.3389697848961903,1.722797268756047,-0.1374448835849762,0.9797387719154358,1.3162722509436657,2.0740355608166117,0.34706729650497437,0.6013190746307373,1.3509430479755289,2.0974157240910234,-0.03853742033243179,0.9697861671447754,1.1157151893744102,1.665448703066055,-0.01308461744338274,0.03211590275168419,1.1100948697797732,1.7436335223752943,-0.42160677909851074,0.9872872829437256,0.0021428465843200684,1.0782989420844173,1.664647772643888,112.45803423822785,99.71960741868988,1.0,-0.00023165008822933816,-0.011241184233157979,0.00288561985401152,-0.09144936138147172,139.71028731192973,1.2072714389127228,107,3.566666666666667
1.0123672517850508,1.0754427099212922,-0.2471577674150467,0.9999969601631165,0.9546527309753087,1.233742950644653,0.04047159478068352,0.9999624490737915,0.925710916872072,1.2388489170941528,-0.2900146245956421,0.9999972581863403,1.089585807669006,1.6466014870681593,0.11506577581167221,0.99998539686203,1.071305691016919,1.6897132494481089,-0.11523957550525665,0.9999943971633911,1.3085038463200878,1.7218924078200966,0.20598682761192322,0.3922596275806427,1.3406588464925424,1.7257101310029306,-0.1375235617160797,0.9796398282051086,1.3184651742817628,2.075442709921292,0.3347010612487793,0.5963021516799927,1.3526493176836711,2.09985588033134,-0.02395680919289589,0.9692184329032898,1.1172476737909585,1.6697876828983087,-0.016063719987869263,0.031905919313430786,1.1116541774111228,1.74651004973824,-0.4174516797065735,0.987576425075531,0.00209122896194458,1.0804457493429624,1.668157368258134,110.59315493430567,99.4475800298777,1.0,0.005001181093443552,0.00916703676410755,0.03873293201033595,0.1511641499569707,138.92347432558464,1.2151534140877673,108,3.6
