nose_x,nose_y,nose_z,nose_visibility,left_shoulder_x,left_shoulder_y,left_shoulder_z,left_shoulder_visibility,right_shoulder_x,right_shoulder_y,right_shoulder_z,right_shoulder_visibility,left_hip_x,left_hip_y,left_hip_z,left_hip_visibility,right_hip_x,right_hip_y,right_hip_z,right_hip_visibility,left_knee_x,left_knee_y,left_knee_z,left_knee_visibility,right_knee_x,right_knee_y,right_knee_z,right_knee_visibility,left_ankle_x,left_ankle_y,left_ankle_z,left_ankle_visibility,right_ankle_x,right_ankle_y,right_ankle_z,right_ankle_visibility,left_wrist_x,left_wrist_y,left_wrist_z,left_wrist_visibility,right_wrist_x,right_wrist_y,right_wrist_z,right_wrist_visibility,trunk_lateral_inclination,center_mass_x,center_mass_y,left_knee_angle,right_knee_angle,person_height,center_mass_velocity_x,center_mass_velocity_y,center_mass_acceleration_x,center_mass_acceleration_y,body_orientation,torso_leg_ratio,frame,timestamp
1.209639656844476,0.8243177032748362,-0.36558398604393005,0.9999383687973022,1.2762292594218527,0.9606050930478187,-0.14999978244304657,0.9999951720237732,1.11710655563639,0.9631860008323611,-0.1753111183643341,0.999995231628418,1.2496119344414114,1.2815689151969911,0.002508072415366769,0.9999748468399048,1.1589866323445117,1.2904373857145226,-0.0026328391395509243,0.9999783635139465,1.2492581199878827,1.559460959015153,-0.009237346239387989,0.9851288795471191,1.1711389746571965,1.562339989566421,-0.012927735224366188,0.9456614255905151,1.257253178355426,1.8243177032748363,0.15463612973690033,0.9730758666992188,1.1984812245453647,1.8248894042762174,0.1306493580341339,0.925346851348877,1.3379439734454,1.2792892879552302,-0.19809435307979584,0.8930708765983582,1.0775577788691244,1.3277597150595128,-0.2395683228969574,0.9879751205444336,0.0010717511177062988,1.2042992833929616,1.2860031504557567,178.19802517144163,176.61363127944514,1.0,-0.03868663894980257,0.03848200472373178,-0.21172512526193174,0.34755448298814623,100.32974719257416,0.8564287557414458,0,0.0
1.1869221323736756,0.7986378471608525,-0.41710129380226135,0.9999443888664246,1.2643161618124805,0.9380830012531333,-0.1915631890296936,0.9999955296516418,1.0907748497300258,0.9386903718239228,-0.1950521171092987,0.9999954700469971,1.2360898437876986,1.261628430803677,0.001423883019015193,0.9999766945838928,1.1288188459860533,1.2700313061418886,-0.0015475146938115358,0.9999800324440002,1.235036983598529,1.5384383785502243,-0.024767594411969185,0.9860784411430359,1.1440669327722774,1.5472537755843934,-0.006857323460280895,0.9499685168266296,1.2405510799565809,1.7986378471608526,0.1446404755115509,0.9749964475631714,1.1699969786448874,1.8053782375221874,0.14898645877838135,0.9320119023323059,1.3300695559763271,1.2769472436456972,-0.24727094173431396,0.9028634428977966,1.049870886203819,1.3030764354941389,-0.2660559117794037,0.9887245893478394,0.000256955623626709,1.182454344886876,1.265829868472783,178.5680544846436,177.41183437443982,1.0,0.002844410371237965,0.027835892887137337,0.32096263213271786,-0.07813408429199752,99.46491102195235,0.8705851567929924,1,0.03333333333333333
1.180095795112778,0.795872285354555,-0.41623544692993164,0.9999498724937439,1.2619721771444181,0.9354698925131365,-0.1962420791387558,0.9999958276748657,1.0889089876207885,0.9335841851692425,-0.19731394946575165,0.9999957084655762,1.2361381129303741,1.2585539727023953,0.0005932842032052577,0.9999783039093018,1.1267110508461247,1.2672179461701967,-0.0007146399584598839,0.9999814629554749,1.230410629732438,1.5298296936761322,-0.03639188036322594,0.9870051145553589,1.1387827658679528,1.5460459060966336,-0.009948206134140491,0.9540477991104126,1.239032330323907,1.795872285354555,0.11558938026428223,0.976921021938324,1.1631272378467237,1.8006697652731831,0.13633379340171814,0.9381837844848633,1.329018222980294,1.2771655544874203,-0.2770130932331085,0.9120599031448364,1.0480743019533298,1.294941930971623,-0.2901325821876526,0.9896177649497986,0.0008003115653991699,1.1814245818882494,1.262885959436296,176.93433841254395,177.01762091569745,1.0,0.019363632113000323,0.007632289409990817,0.11754596920503756,-0.14305620629889151,99.09868444505166,0.8717073743161728,2,0.06666666666666667
1.1899567064831218,0.8046901769070588,-0.4191182255744934,0.9999544620513916,1.272647585065407,0.943908503358668,-0.1968638300895691,0.9999960660934448,1.097454382457639,0.9375104317153247,-0.21545350551605225,0.9999958276748657,1.2446256403033662,1.2668272264962286,0.0030351923778653145,0.9999796748161316,1.1337047300637604,1.2754500479496906,-0.0031736947130411863,0.9999825954437256,1.2389572854676025,1.5436727845579463,-0.02751443162560463,0.9877471327781677,1.1442646808800987,1.5600096542148156,-0.008633842691779137,0.9573892951011658,1.2462198430278917,1.804690176907059,0.13281437754631042,0.9785848259925842,1.1696589105443196,1.811332429268997,0.1420753300189972,0.9437039494514465,1.3362433478059441,1.2849844680014129,-0.2713780701160431,0.9202260375022888,1.054829484231979,1.300978057851406,-0.2936258912086487,0.9903519153594971,0.002699524164199829,1.1891651851835632,1.2711386372229596,177.23325612265288,176.35554506299906,1.0,0.006008605657724373,0.006258718755340675,-0.10212684885829999,-0.01075533365336841,99.40468264105694,0.8682918000907608,3,0.1
1.1972142096798433,0.8065557576791981,-0.44399699568748474,0.9999589323997498,1.2781413321155417,0.9478217545557637,-0.21395964920520782,0.9999963641166687,1.1004726918232377,0.9393721572602011,-0.24112823605537415,0.9999960660934448,1.2495203034209614,1.2702933155657707,0.005457946099340916,0.9999811053276062,1.1372593048747932,1.2784826856523983,-0.005589711479842663,0.9999838471412659,1.2424434825224795,1.5462937196400115,-0.017270613461732864,0.9884393811225891,1.1484947349650296,1.563579432337988,-0.0013078537303954363,0.960565447807312,1.2486842633400248,1.806555757679198,0.15248794853687286,0.9800969958305359,1.1733702899388416,1.813604686978028,0.15497986972332,0.9487184882164001,1.3418773184449768,1.2887738364336074,-0.3167770504951477,0.9278485774993896,1.0583163795117936,1.30367049911876,-0.32883960008621216,0.9911450147628784,0.0035572052001953125,1.1933898041478772,1.2743880006090846,177.15759974262912,176.57502882725805,1.0,0.011961758613304292,0.003190767733411678,0.04500333294288651,-0.023350126565773833,99.24430901495076,0.8728751477126764,4,0.13333333333333333
1.1952916360894559,0.8042255602653237,-0.45395150780677795,0.9999628663063049,1.2754144241317291,0.9459934188583485,-0.21694287657737732,0.9999966025352478,1.0980343721421661,0.9392405288746053,-0.23962704837322235,0.9999961853027344,1.2492396955771412,1.2697399440467965,0.005914662498980761,0.9999822974205017,1.1361769202894787,1.2778235655533345,-0.006050133146345615,0.9999848008155823,1.245193078697701,1.5449865071541662,-0.012615106999874115,0.9888031482696533,1.1479358854287371,1.5647256914089576,0.001677829772233963,0.9628723859786987,1.2473523015584076,1.8042255602653237,0.17444564402103424,0.9811573028564453,1.1722953825354845,1.8123189353808562,0.17115241289138794,0.9529867172241211,1.3413803434669798,1.2872639282066527,-0.32402390241622925,0.9346454739570618,1.0597691264208375,1.3036699226051127,-0.34397584199905396,0.9917840361595154,0.002847433090209961,1.1927083079333098,1.2737817548000656,178.68050011656524,176.72803987212689,1.0,0.008987206097940377,0.01049548078044306,-0.021850381133368638,0.054041482139256566,98.71178192831627,0.8780710998485155,5,0.16666666666666666
1.1912718648171317,0.799654806375548,-0.42982763051986694,0.9999664425849915,1.27238764560544,0.9416393772986045,-0.202006533741951,0.9999967217445374,1.095411052748954,0.9367845414699161,-0.21532657742500305,0.9999962449073792,1.2466516605969475,1.2672987348185092,0.0053414166904985905,0.9999832510948181,1.1343034314670166,1.275790963029615,-0.0054747867397964,0.9999856352806091,1.241598685459837,1.5416689713631626,0.011640070006251335,0.9893697500228882,1.144583282101545,1.5611518714546575,0.004114286042749882,0.9658947587013245,1.2461919661274792,1.799654806375548,0.19959157705307007,0.9825927019119263,1.169598933486283,1.808274711836604,0.17089709639549255,0.9573081135749817,1.338280944205676,1.2836648162155744,-0.29612600803375244,0.9408672451972961,1.0581307754666613,1.301456063207285,-0.30838248133659363,0.9923562407493591,0.002053380012512207,1.190477546031982,1.271544848924062,177.92491541191038,176.28290847707314,1.0,0.011114033565674135,0.013009195555579632,0.016875849425802815,0.01994267057099645,98.84121954318456,0.8858352063159002,6,0.2
1.190460659502813,0.7982459148970605,-0.4158065915107727,0.9999696016311646,1.272574227044231,0.9403129199028465,-0.19702409207820892,0.9999968409538269,1.0951562750788455,0.9362550196426234,-0.21143551170825958,0.9999963045120239,1.2464240185326132,1.266749437934543,0.00494367815554142,0.9999840259552002,1.1346804827871657,1.2756085318588977,-0.005079274997115135,0.9999862909317017,1.2411137738240008,1.5393640200214536,0.01380455493927002,0.9897689819335938,1.1441951876928529,1.5607381071118613,0.005627112463116646,0.9684235453605652,1.2466950241246388,1.7982459148970604,0.18745321035385132,0.9837515950202942,1.1695206180110682,1.8076512456643858,0.15924909710884094,0.9611197710037231,1.3341648960568897,1.282554669990476,-0.28345322608947754,0.9464420676231384,1.0581889431549572,1.301253351563765,-0.3053593039512634,0.9929239153862,0.0017171502113342285,1.1905522506598896,1.2711789848967203,177.64902790799565,176.05499252829557,1.0,0.005220668709479123,0.002029870867450312,-0.046853275473144516,-0.08731744818418054,99.11303750630492,0.8888689225682352,7,0.23333333333333334
1.1890746782033996,0.7956803397969437,-0.4299315810203552,0.9999724626541138,1.2711752436872135,0.9389616658832272,-0.20888754725456238,0.9999970197677612,1.0943191957688638,0.935578473897391,-0.22497758269309998,0.9999964237213135,1.2449005125664634,1.2656846463685467,0.0046004666946828365,0.9999848008155823,1.1330176822763467,1.274591368279426,-0.004735899157822132,0.999987006187439,1.2415381497504723,1.537835905548159,0.010855646803975105,0.9898785352706909,1.1434033456150374,1.5600858218092668,0.004351278301328421,0.9702867865562439,1.2454941439070457,1.7956803397969436,0.18319807946681976,0.9844286441802979,1.1684264969558449,1.8045528624627396,0.15772747993469238,0.9643108248710632,1.3313481820919806,1.2790599288993472,-0.3085077404975891,0.9514967799186707,1.0590173416912723,1.3003892802958867,-0.3196806311607361,0.9934596419334412,0.0014328360557556152,1.188959097421405,1.2701380073239865,178.41316548069503,176.23905029769992,1.0,-0.004786838102321728,0.00016712012652986402,-0.0799887025277645,-0.014881656837750388,99.1493538041076,0.894719380969088,8,0.26666666666666666
1.1903037799128495,0.7960373409422998,-0.442277193069458,0.9999749660491943,1.272631774314596,0.9397963765607298,-0.22339120507240295,0.9999971389770508,1.0959796890743547,0.9362672510976571,-0.2428278625011444,0.999996542930603,1.24725903579452,1.2662915479966768,0.004387989640235901,0.9999855756759644,1.135106817958504,1.275138591639176,-0.004521728027611971,0.9999876618385315,1.2421808817671829,1.5380344903972838,0.009094031527638435,0.9900341629981995,1.1452153704035666,1.558728869639512,0.005037395283579826,0.9718234539031982,1.2475600792686772,1.7960373409422998,0.177902951836586,0.9851344227790833,1.1692049571449752,1.8047575997805214,0.15169280767440796,0.9672181606292725,1.3304355022808938,1.2780585865536966,-0.32884228229522705,0.955987274646759,1.0630116955460147,1.3009818426551274,-0.3686694800853729,0.9939460158348083,0.001493215560913086,1.191182926876512,1.2707150698179264,177.73501063631593,176.47229012738626,1.0,0.008762367673387264,-0.005115916529803744,0.10909126295990003,-0.042523245568284136,98.95405857700163,0.8956808345404133,9,0.3
1.1952164585405136,0.7987355722071537,-0.45484843850135803,0.9999772906303406,1.27723061484605,0.9417827017265068,-0.22881928086280823,0.9999972581863403,1.0987537560685814,0.9377010036700906,-0.25398167967796326,0.9999967217445374,1.2502793933366878,1.2678773617137105,0.004778665490448475,0.9999861717224121,1.1373935439385905,1.276562837947347,-0.0049111368134617805,0.9999881982803345,1.2448065875273393,1.5405934941306223,0.006272829137742519,0.9896391034126282,1.1478492642595075,1.5609172063941685,0.0007436558371409774,0.972347617149353,1.2493593294785805,1.7987355722071536,0.17455169558525085,0.9851298332214355,1.171563179600644,1.807381941844397,0.1486460268497467,0.9694196581840515,1.3310676919653874,1.2795355039894376,-0.3465201258659363,0.9599700570106506,1.0670216472658418,1.3033714686178741,-0.39373067021369934,0.9944142699241638,0.001723259687423706,1.193836468637639,1.2722200998305286,177.83995901223196,176.6099512715612,1.0,0.0004045795702517455,-0.008937167695511741,-0.05920051312659873,-0.026926461018652068,99.12435870720975,0.8915183379508497,10,0.3333333333333333
1.198613783154827,0.8008080373315339,-0.4659495949745178,0.9999794363975525,1.281897650489989,0.9429694983087294,-0.23637345433235168,0.9999973773956299,1.100806849581983,0.9389927289931645,-0.25992894172668457,0.9999968409538269,1.252627259587472,1.2679766601557252,0.004676386248320341,0.9999866485595703,1.1400125533815655,1.2766082058222918,-0.004808942787349224,0.9999886155128479,1.2482880145606783,1.5421621396912246,-0.012166742235422134,0.9890652298927307,1.1502276237175486,1.5626362553763342,0.00011599061690503731,0.9716446995735168,1.2503571025584974,1.800808037331534,0.15915565192699432,0.9849839210510254,1.171935514248894,1.8093926386110797,0.14727140963077545,0.971041738986969,1.3318792827915735,1.280507276521387,-0.3572204113006592,0.9635915160179138,1.0694819347535236,1.3041244037567952,-0.4106000065803528,0.9948275685310364,0.0016763508319854736,1.1963199064845187,1.2722924329890084,178.6349767696834,177.01782858724388,1.0,0.004735238599534153,-0.014439587777354315,0.03277721168522206,-0.04154662579301462,99.5291806390936,0.8845691542646804,11,0.36666666666666664
1.1981626084202575,0.7987966379090419,-0.44734272360801697,0.999981164932251,1.2834089495853043,0.9405953328400549,-0.22553007304668427,0.9999974966049194,1.1003255185709728,0.9378611124530771,-0.24575528502464294,0.9999969005584717,1.2520436729411346,1.2666427090422798,0.004754811059683561,0.9999871253967285,1.1398269231149545,1.2749928452023869,-0.004887744784355164,0.9999889731407166,1.2479484165225112,1.542589197654074,-0.01108643226325512,0.988947868347168,1.1493962000608546,1.560112448274274,0.0010352712124586105,0.9725090861320496,1.2495654149090443,1.7987966379090419,0.1800837367773056,0.98529052734375,1.1690416639474197,1.806836709295982,0.16018269956111908,0.9730280041694641,1.3303764878518176,1.2786653117047968,-0.3435779809951782,0.9668995141983032,1.0692989823942538,1.3026535894199966,-0.36911123991012573,0.9951735734939575,0.001153707504272461,1.1959352980280444,1.2708177771223332,178.78814409774645,177.36967642466743,1.0,0.0059418456756789835,-0.0016661408441666985,0.009076727708740734,0.09561228220821653,99.75044201533196,0.886985555629634,12,0.4
1.1999082638186274,0.7989890237856695,-0.4563101828098297,0.9999828338623047,1.2852501678570176,0.940454801607445,-0.23022551834583282,0.9999975562095642,1.1015157723459896,0.9377436698186622,-0.2572970688343048,0.9999970197677612,1.2515523729075773,1.2662931458202102,0.0054114582017064095,0.9999877214431763,1.1398433070893386,1.274476391666892,-0.0055308169685304165,0.9999895691871643,1.2469606211567557,1.544664159220457,0.007996568456292152,0.9886365532875061,1.148725306977634,1.5601598915321333,-0.001283671474084258,0.9734335541725159,1.2492961090994001,1.7989890237856694,0.2054893970489502,0.9855074286460876,1.1681753262576249,1.8058352034912848,0.15910488367080688,0.9748806953430176,1.330992855635339,1.2762133914065539,-0.37001147866249084,0.969591498374939,1.0697773978345826,1.299364632326935,-0.4389578700065613,0.9955429434776306,0.0011442899703979492,1.195697839998458,1.2703847687435512,178.5288498444507,177.25412917444888,1.0,0.0007771252317752158,-0.00055182082616529,-0.039365392191427734,0.008492492905437004,100.0941851313411,0.8858021400628014,13,0.43333333333333335
1.201045886110466,0.7989098493303591,-0.45900607109069824,0.9999843835830688,1.2872865196909162,0.9398242026325623,-0.229643315076828,0.9999976754188538,1.1025420635092646,0.9376858784972444,-0.25612953305244446,0.9999971389770508,1.2525500657226338,1.2659670983720173,0.005675188265740871,0.9999882578849792,1.1401515485783065,1.2734782363446482,-0.005793116521090269,0.9999900460243225,1.2466323106855282,1.5444168730287005,0.006461769342422485,0.9880756139755249,1.1489210143064892,1.5603896721393993,-0.0015521494206041098,0.9733160734176636,1.2483579931168964,1.798909849330359,0.18773049116134644,0.9854590892791748,1.167932960160273,1.8052778744765823,0.1585959494113922,0.9761937260627747,1.3321810899120505,1.2743376888859457,-0.36505237221717834,0.9721201658248901,1.071356940298123,1.2979700216684549,-0.4458041191101074,0.9957813620567322,0.0009026825428009033,1.19635080715047,1.2697226673583328,178.39399550583246,177.3114389111327,1.0,0.006408216797772401,-0.0032674586938905817,0.04184812288752107,-0.02018181431264897,99.90263521705265,0.8841925104442688,14,0.4666666666666667
1.2047617646454893,0.7985521901843854,-0.4432608485221863,0.9999856948852539,1.2892524066481186,0.9392463488812254,-0.20602698624134064,0.9999977350234985,1.1029084407872514,0.937265243892328,-0.23221132159233093,0.9999971389770508,1.2536018310614767,1.2653415504453922,0.005597149487584829,0.9999885559082031,1.1396949270488923,1.2728444316773861,-0.0057168444618582726,0.9999902248382568,1.2470066622734626,1.5434851345505176,-0.009089144878089428,0.9879282116889954,1.1485706669026268,1.5591510771782082,-0.0020611234940588474,0.973526656627655,1.2474887433848798,1.7985521901843855,0.15619322657585144,0.9857380390167236,1.1674470495782179,1.804342526250382,0.14632755517959595,0.9775787591934204,1.335203796755676,1.273442375959902,-0.3595584034919739,0.9745035171508789,1.0714040308952462,1.290972431409814,-0.3999475836753845,0.9960240125656128,0.0008367300033569336,1.1966483790551845,1.2690929910613893,178.5334025267306,177.37334078259744,1.0,0.0065020235380499536,1.951480091982452e-05,0.0007059468473024725,0.02391054155958787,100.00766657233164,0.8838313638791427,15,0.5
1.2044943595095343,0.7983829968445312,-0.43165239691734314,0.9999867677688599,1.2908105348606425,0.9381359212231981,-0.20205149054527283,0.9999977350234985,1.1029179091304562,0.9370387809558857,-0.2104499787092209,0.999997079372406,1.255019393793845,1.2651420666479376,0.0036148368380963802,0.9999889135360718,1.1404764965336125,1.272701758881432,-0.0037579506170004606,0.9999905228614807,1.2499574929579413,1.5429618850465658,-0.01994273066520691,0.9881695508956909,1.1498795480947603,1.5585834522942585,-0.0012270034058019519,0.9745415449142456,1.2473320040564064,1.7983829968445313,0.14788590371608734,0.9863542914390564,1.1681881953605309,1.8039618961936408,0.1504150629043579,0.9791040420532227,1.3390367318695295,1.2726200606993505,-0.35518357157707214,0.9766177535057068,1.072140129737842,1.29082422177543,-0.3450467884540558,0.9962093830108643,0.0004634559154510498,1.1977479451637287,1.268921912764685,179.54510750309865,177.6167041357639,1.0,0.010230370141094335,0.00022917822197494634,0.029619777112612357,0.0016652338877968357,100.02219159761101,0.8839858635027061,16,0.5333333333333333
1.2078786326832125,0.7975393747919101,-0.4479404091835022,0.9999876022338867,1.2924939104275892,0.9371409578303767,-0.2176002711057663,0.9999977946281433,1.1049334581232275,0.9357832294878962,-0.22665202617645264,0.9999970197677612,1.2567024084726988,1.2633887903629215,0.003560715587809682,0.99998939037323,1.1424892593687805,1.2706743442870998,-0.0037043397314846516,0.9999908804893494,1.2517369536037313,1.5428696800120907,-0.014485703781247139,0.9884975552558899,1.1545657917480836,1.5575283786874452,-0.0011162699665874243,0.9757149815559387,1.2464530122816868,1.7975393747919102,0.16404114663600922,0.9869261384010315,1.1686031033246642,1.8031557663220605,0.15193606913089752,0.9806330800056458,1.3381885356583878,1.2709939591244217,-0.34033748507499695,0.9785391688346863,1.0722701193908106,1.2895117319167786,-0.34909865260124207,0.9963249564170837,0.0005737543106079102,1.1995958339207395,1.2670315673250108,179.8292356446194,179.1398966661975,1.0,0.016639646593544173,-0.010116299015357575,0.04623978458294821,-0.07459118699656851,99.91058266649985,0.8803621757423169,17,0.5666666666666667
1.2168064528587734,0.795779519807578,-0.44084328413009644,0.9999883770942688,1.2953032290511708,0.9357648124451857,-0.21711334586143494,0.9999977946281433,1.1079762703177687,0.9355490086132652,-0.22817084193229675,0.9999969601631165,1.2579536609548425,1.26402929293869,0.003905274672433734,0.9999897480010986,1.1441046649994375,1.2710178977633928,-0.0040497006848454475,0.9999911189079285,1.2531260545280323,1.543775053189795,-0.013652811758220196,0.988669753074646,1.157623767232944,1.5563197257106514,0.0015842383727431297,0.9765272736549377,1.2453939061282933,1.7957795198075779,0.18581035733222961,0.9872944951057434,1.1680006049837013,1.8004267023905878,0.17635829746723175,0.9818128943443298,1.3384053576860417,1.2701823098367926,-0.33527570962905884,0.9802155494689941,1.0724175498272865,1.288718745445355,-0.3522419035434723,0.9964753985404968,9.125471115112305e-05,1.20102916297714,1.2675235953510413,179.23123080846992,179.72119662642612,1.0,0.01748204960206889,0.010399392802821665,0.006734451779477609,0.16187327649786903,100.00382144577813,0.8895533763458227,18,0.6
1.215688611164991,0.7944844563501169,-0.46083736419677734,0.9999892115592957,1.2985206511721072,0.9348794085816347,-0.2313886135816574,0.9999978542327881,1.1127703268721254,0.9357828986819102,-0.23622074723243713,0.9999969601631165,1.2608173359663295,1.2642794469243233,0.0029895389452576637,0.9999901056289673,1.1480943387907572,1.2712005698720845,-0.003125230548903346,0.9999913573265076,1.25492352098572,1.5441623397322801,-0.011933588422834873,0.9885374903678894,1.1613535560730832,1.5551807212623168,0.008496147580444813,0.9769722819328308,1.2445260599985604,1.794484456350117,0.19831712543964386,0.9873407483100891,1.1673138580083748,1.7981691295716649,0.19333583116531372,0.9826524257659912,1.3424664152839987,1.2696965842467893,-0.37682071328163147,0.9817474484443665,1.0727241916869614,1.286656110453989,-0.3667944371700287,0.9965211749076843,0.00038230419158935547,1.2044558373785432,1.267740008398204,178.82787567479605,178.7319000321493,1.0,0.030523679448041158,0.00766232491734322,0.09425791202381904,-0.019714359843255543,100.04320572045863,0.895567048309614,19,0.6333333333333333
1.2178175587763997,0.793640379794361,-0.4587951600551605,0.9999899864196777,1.3027267332586465,0.9345376614670591,-0.23607902228832245,0.9999979734420776,1.1168158348512516,0.9383165403109627,-0.24103140830993652,0.9999970197677612,1.263567647148068,1.2652201146237387,0.0029992724303156137,0.9999905228614807,1.1512895505016716,1.2721562257620327,-0.0031333458609879017,0.9999917149543762,1.2559546945684354,1.5453799517086937,-0.01026910450309515,0.9875065684318542,1.1633580825632508,1.5552251997347548,0.00871771015226841,0.9760558009147644,1.243860254700489,1.793640379794361,0.21180710196495056,0.9863458871841431,1.1660562961143992,1.7956618927074663,0.2016604244709015,0.9826681017875671,1.345717781055522,1.269354099378825,-0.42138832807540894,0.9829931855201721,1.0724724418030058,1.2851734904285088,-0.4373542368412018,0.9966009259223938,0.0015996694564819336,1.2074285988248699,1.2686881701928858,178.76749099255997,178.20165002803347,1.0,0.026202202577276304,0.01114173327760932,-0.03247584043123377,0.02624930382668937,100.28847983961414,0.9033982089745884,20,0.6666666666666666
1.2171745748537404,0.7952510074172662,-0.4784091114997864,0.9999905228614807,1.3071121428549783,0.9355723703715554,-0.24745719134807587,0.9999979734420776,1.1195163579645073,0.9414992206835251,-0.24822762608528137,0.999997079372406,1.267719046350884,1.2669737326972328,0.002747843274846673,0.9999908208847046,1.155923196330035,1.2739358191639054,-0.002879602601751685,0.9999920129776001,1.2588609766639165,1.550488622303638,-0.004562449641525745,0.9870443940162659,1.1665368686777216,1.5591919351086636,0.008224066346883774,0.9763361811637878,1.2451329982475685,1.7952510074172663,0.22112078964710236,0.9860139489173889,1.1667071999088936,1.7973553063675338,0.199001282453537,0.983262300491333,1.3473845910771383,1.2786038956028116,-0.4003283977508545,0.9839779138565063,1.0736504632593702,1.2867096044192814,-0.40583521127700806,0.9967052936553955,0.002506434917449951,1.2118211213404595,1.270454775930569,178.57937028762882,177.91012631171253,1.0,0.02449451488213173,0.003815108478348297,-0.013343131648434606,-0.05646640765731607,100.34233305190588,0.9036860858446117,21,0.7
1.2189005667303248,0.7968512223030225,-0.4778003692626953,0.9999909996986389,1.3102468491096118,0.9365001882376212,-0.2459959089756012,0.9999980330467224,1.1234090358713822,0.9444700781187891,-0.2523570656776428,0.999997079372406,1.2707120813705701,1.2694410806370184,0.003792212577536702,0.9999909996986389,1.1587331639841365,1.2753876541656242,-0.0039186072535812855,0.9999921321868896,1.261080043066454,1.5553998802643665,0.0015902884770184755,0.9866329431533813,1.1688536254805668,1.5621113961813968,0.0020701568573713303,0.9765039682388306,1.2462134681637171,1.7968512223030226,0.22415082156658173,0.9856823682785034,1.167498328716568,1.798954179005689,0.19716079533100128,0.9836336374282837,1.3497909282093385,1.2878970440027395,-0.3940975069999695,0.984907865524292,1.0759838069794432,1.290305864795798,-0.40618735551834106,0.9966747760772705,0.0033671557903289795,1.2147226226773533,1.2724143674013213,178.4058301447662,177.6506125964589,1.0,0.013188058726906187,0.0055496870166234806,-0.08664382759524869,0.013236208321065571,99.81162961487523,0.9049222271092618,22,0.7333333333333333
1.2222368653810884,0.7995520607425882,-0.4763503074645996,0.9999911785125732,1.3153053737297864,0.9388195546314654,-0.2456868439912796,0.9999980330467224,1.127888722487928,0.9483246537266077,-0.25237902998924255,0.9999970197677612,1.2749546411656998,1.2735227853286673,0.0039201052859425545,0.9999909400939941,1.163010409730511,1.2786483937012483,-0.004045017994940281,0.9999920725822449,1.2645690907206382,1.5610601106542037,0.0013413019478321075,0.9859161972999573,1.1748751863173066,1.5655201308947573,-0.0016314478125423193,0.9759289622306824,1.249026540238387,1.8016861283203578,0.21271412074565887,0.98514723777771,1.1702312703117856,1.799552060742588,0.19457215070724487,0.9836034178733826,1.354173486458668,1.3008075152210687,-0.3804168105125427,0.9857792258262634,1.0790419490207852,1.2965723271729783,-0.39767569303512573,0.9966942071914673,0.00400659441947937,1.2189825254481055,1.2760855895149579,178.3728417305389,176.49486802573156,1.0,0.011510694583685192,0.005912300073904871,-0.01326535859160768,0.002718443864052348,99.49579773847688,0.908362824592265,23,0.7666666666666667
1.2329307444584376,0.8042971154922172,-0.4481469690799713,0.9999912977218628,1.3237584040442436,0.9458491970307634,-0.21968486905097961,0.9999979734420776,1.135523941645514,0.9535474703049702,-0.227693110704422,0.9999968409538269,1.2822273181839983,1.2808844473891288,0.004277619067579508,0.9999902844429016,1.1700723125265333,1.2846660852296647,-0.004409170709550381,0.9999914169311523,1.2713485016155304,1.568119394713423,-0.01204854715615511,0.9852495193481445,1.1856174985301249,1.5697868281427352,-0.02537691593170166,0.9755263328552246,1.2551377064264184,1.8106766754355892,0.18019531667232513,0.984629213809967,1.1763511926859724,1.8042971154922172,0.1601126343011856,0.983259379863739,1.3606000998271675,1.308861632795889,-0.3499794602394104,0.9867072701454163,1.0847771385128595,1.302575576448604,-0.34047624468803406,0.9968336820602417,0.0032290220260620117,1.2261498153552657,1.2827752663093968,178.3454452295402,174.61646725192273,1.0,0.009062870452668976,0.003037858851224115,-0.019861084953686926,-0.02302454849151739,98.99752265300584,0.9117959926859176,24,0.8
1.2371345806678367,0.8075390666900979,-0.4425169825553894,0.9999913573265076,1.3290089145314166,0.9494333989104462,-0.21602734923362732,0.9999979138374329,1.1419984606115103,0.9572483773087974,-0.2208441197872162,0.9999967217445374,1.2873963565903856,1.2857997688064433,0.004338948987424374,0.9999900460243225,1.176756517581437,1.2884406359762735,-0.00447308924049139,0.9999911785125732,1.2767524380307695,1.5736594254166847,-0.010347266681492329,0.9850370287895203,1.193811036354217,1.5712547727889976,-0.02500978671014309,0.9758986234664917,1.2598499752374128,1.8173997400498902,0.1846071481704712,0.984481692314148,1.1818903325489944,1.807539066690098,0.1605907678604126,0.983428418636322,1.3656458470744772,1.3124151282291212,-0.3128032088279724,0.987457811832428,1.0891791915528768,1.3074608990759105,-0.3200325071811676,0.9969281554222107,0.003265589475631714,1.2320764370859114,1.2871202023913584,178.15071446745932,173.66091363405744,1.0,0.009818410352717225,-0.0039975740028269915,0.005546381486107237,-0.05419675054118292,98.41967935013069,0.9127196671303169,25,0.8333333333333334
1.2373847525352213,0.8077085281251082,-0.45922136306762695,0.9999917149543762,1.3305489034523672,0.9498698455019554,-0.22938735783100128,0.9999979138374329,1.1433456751499265,0.9575572549583388,-0.2281353920698166,0.9999967217445374,1.288738505575935,1.286507346763903,0.004336790181696415,0.9999900460243225,1.1784437610208593,1.2887357943954907,-0.004471044987440109,0.9999911785125732,1.2794097617478837,1.5739135925388315,-0.007702335715293884,0.9846452474594116,1.1969892341164958,1.5675036484997362,-0.04069117084145546,0.9764961004257202,1.260264118918082,1.8179592159979623,0.1924774944782257,0.9843704104423523,1.1889392399491012,1.8077085281251082,0.13801255822181702,0.9838657975196838,1.3654466473578297,1.3123317685779181,-0.3575245141983032,0.9881986379623413,1.090676856899972,1.3089188204795437,-0.34523656964302063,0.9970105886459351,0.003211110830307007,1.233591133298397,1.2876215705796967,177.3733477469421,174.27447886220924,1.0,0.0077161619428937995,0.0002279874990329413,-0.015258840441315258,0.03062894358891322,98.23735763431473,0.9136411414602152,26,0.8666666666666667
1.2372766628435252,0.8078419466983934,-0.47110357880592346,0.9999921321868896,1.3319115766266336,0.9501745385920256,-0.23795893788337708,0.9999979734420776,1.1446667891498892,0.9578070746547133,-0.23760998249053955,0.9999967813491821,1.2892203467226522,1.287483415712219,0.004388103261590004,0.9999900460243225,1.1797271953779827,1.2887766958426459,-0.004519456531852484,0.9999911785125732,1.280322214116132,1.5738789663605182,-0.004124934785068035,0.9843243956565857,1.1970209464147794,1.5665552307173651,-0.0357092060148716,0.977192759513855,1.2603091214920596,1.8176216731089274,0.20418377220630646,0.984245240688324,1.1916817957229573,1.8078419466983935,0.14112046360969543,0.9844112396240234,1.3636759236632234,1.31152575447584,-0.3738616108894348,0.98896324634552,1.0914521575181808,1.3090286664252677,-0.3513403534889221,0.9971120357513428,0.0031880736351013184,1.2344737710503175,1.2881300557774324,177.08569073836964,175.16989124233922,1.0,0.0066025219703940265,0.0036382333729463316,-0.008779098807306828,0.026876968271950134,97.88996139755433,0.9154208504607286,27,0.9
1.2284406035468165,0.8023345981453062,-0.46600574254989624,0.9999926686286926,1.3234403197453737,0.9435172061976567,-0.23189625144004822,0.9999979734420776,1.1379508146943813,0.9512288815055635,-0.23314246535301208,0.9999968409538269,1.2800869389048837,1.2789840461072115,0.004863884299993515,0.999989926815033,1.1721092413757135,1.279889376252615,-0.004992050118744373,0.9999911785125732,1.271842170400055,1.5629573995256087,0.004263086244463921,0.9840525388717651,1.190320365414376,1.5547256695889358,-0.040643490850925446,0.9781444668769836,1.251827117940014,1.805143134070707,0.21005213260650635,0.9840313792228699,1.1858347436599785,1.8023345981453063,0.11394413560628891,0.985150158405304,1.3524056406263076,1.3004350417471569,-0.3736058175563812,0.9896592497825623,1.0852098065055227,1.2988650280729583,-0.3559781610965729,0.9972472190856934,0.0032432973384857178,1.2260980901402985,1.2794367111799132,176.93865372147835,175.17118259864617,1.0,0.0004565105878159414,0.0008188413408962157,-0.04504702276097162,-0.020633901320077697,97.84407199681313,0.9098949380180958,28,0.9333333333333333
1.2243161925582429,0.7996764846559083,-0.467111736536026,0.9999929666519165,1.3200203074787369,0.9406673084982786,-0.23708274960517883,0.9999979734420776,1.1355775682747848,0.9480469592432688,-0.2309747189283371,0.9999969005584717,1.275724743103118,1.2751525621591595,0.003860165597870946,0.999989926815033,1.1683704590466435,1.2754807538462745,-0.003983781673014164,0.999991238117218,1.2682393448429297,1.557713878587866,0.004276815336197615,0.9841263294219971,1.1884069641908679,1.5500730731577133,-0.03601861745119095,0.9792426228523254,1.2482036873741775,1.7996764846559083,0.20772993564605713,0.9840845465660095,1.1839837935751991,1.808749861634639,0.11892107874155045,0.9860379099845886,1.3402287494646399,1.2944333646196222,-0.3712802231311798,0.9903473854064941,1.083848243203179,1.2951092445297205,-0.3238300681114197,0.9973524212837219,0.0031134188175201416,1.2220476010748809,1.2753166580027169,176.78391637283323,174.84700938445505,1.0,-0.0013741901817313443,-0.0007243465264402263,-0.012172312050000625,-0.010251586949747662,97.71888853526673,0.8992559104688951,29,0.9666666666666667
1.2238503987708154,0.7988874275902037,-0.46625152230262756,0.9999932050704956,1.319870142957919,0.9397611609392321,-0.23683702945709229,0.9999979734420776,1.1356473557880271,0.9453603672649147,-0.226404070854187,0.9999969005584717,1.2743696490991843,1.2741110754490248,0.004301256500184536,0.9999897480010986,1.1671410476918773,1.27359421043435,-0.004417936317622662,0.999991238117218,1.267652379907924,1.5560279135336488,0.006404906511306763,0.9842419624328613,1.1881543910519967,1.54861142280151,-0.04800969362258911,0.9806055426597595,1.246984554176402,1.7988874275902036,0.2061886340379715,0.9840167164802551,1.1834906793514544,1.8238602505398007,0.06094110757112503,0.9870009422302246,1.3327162569149398,1.292063313282584,-0.36689895391464233,0.9910174012184143,1.0842422225365003,1.2943835601357343,-0.30856853723526,0.9974167346954346,0.002364546060562134,1.2207553483955307,1.2738526429416874,176.50067169638288,174.65996445458177,1.0,-0.0008746838082001813,-0.001812630910704149,0.0038833894007989744,-0.0084888057221287,97.47339802545876,0.8835896851345593,30,1.0
1.2242142630423738,0.7985524586466394,-0.465084969997406,0.9999934434890747,1.3196396195041413,0.938751782194193,-0.23672883212566376,0.9999979734420776,1.135332537382425,0.944741803106071,-0.2182440459728241,0.9999969005584717,1.2726519889142565,1.276457624785694,0.004304342903196812,0.9999897480010986,1.1665919183961948,1.2739578789439236,-0.004420523066073656,0.9999913573265076,1.2686176282737114,1.5549007527104979,0.007371329702436924,0.9840936660766602,1.1883874416979363,1.54808754839148,-0.06437224894762039,0.9818490147590637,1.246465754321519,1.7985524586466393,0.20887938141822815,0.9837427139282227,1.1829451749832671,1.8326825401092024,0.04217641428112984,0.9878607392311096,1.327149862909767,1.2916197770307418,-0.3715522885322571,0.9915511012077332,1.084356121784581,1.2955068281963034,-0.2994133234024048,0.9974192380905151,0.002530336380004883,1.2196219536552257,1.2752077518648088,175.63527029251821,174.35856067025605,1.0,-0.006134638348159972,0.013766842754715528,-0.04180375438671445,0.12380829207574669,96.57098806625133,0.8820262837635116,31,1.0333333333333334
1.223134916915166,0.7968608402150754,-0.4502219557762146,0.9999935626983643,1.3182052238043318,0.936145303488527,-0.22348329424858093,0.9999980330467224,1.1340253486800236,0.943655605838809,-0.20832033455371857,0.9999968409538269,1.2708439434443786,1.2787125638985348,0.005161161534488201,0.9999895095825195,1.165223409646256,1.2740878358615528,-0.005269961431622505,0.9999912977218628,1.2681031341557358,1.5543551789440893,0.020780054852366447,0.9832954406738281,1.1868299067343928,1.5499354054795043,-0.06946555525064468,0.983004629611969,1.245138636826559,1.7968608402150754,0.2332117110490799,0.9826153516769409,1.1814329341135892,1.8404792328440407,0.02894590236246586,0.9886102676391602,1.320414899097932,1.2892076757883668,-0.37381213903427124,0.9921996593475342,1.0832983167365706,1.2949737498863516,-0.2982911467552185,0.9974532723426819,0.0031757354736328125,1.2180336765453172,1.2764001998800438,175.16010054307813,174.45712890813488,1.0,-0.0028276765595151325,0.019346100806112786,0.02580214243013444,0.043721029608855475,95.3643029741318,0.8843309868597006,32,1.0666666666666667
1.2217356221240887,0.79604705615311,-0.42427605390548706,0.9999939203262329,1.3167198235989181,0.9351032253154337,-0.20204749703407288,0.9999980926513672,1.1326219285740085,0.9426775337220487,-0.19168999791145325,0.9999968409538269,1.2689936967126718,1.2798944995476833,0.005157653708010912,0.9999889731407166,1.1638480150829993,1.2747798594730708,-0.005267276428639889,0.9999909996986389,1.26723779654665,1.55007642108401,0.01741732656955719,0.9803933501243591,1.1864128811259107,1.548297005655139,-0.10350613296031952,0.9833595752716064,1.24391065580055,1.7960470561531099,0.15413185954093933,0.9810556173324585,1.1801691564096586,1.8472568213799643,-0.05772275850176811,0.9889821410179138,1.3153329863306622,1.2875792029607265,-0.3354155719280243,0.9926558136940002,1.0822587832146928,1.2968719560847537,-0.27440327405929565,0.9973613023757935,0.003206193447113037,1.2164208558978356,1.277337179510377,174.95479532202555,174.08740223384535,1.0,-0.0025730909963254545,0.018178066927839832,0.0019991250942828333,-0.009118361967519084,95.09595887820727,0.884234317061342,33,1.1
1.2208240879407624,0.7956050725703221,-0.42277947068214417,0.9999942779541016,1.3158837732261686,0.9344656509011997,-0.20294830203056335,0.999998152256012,1.1316749576772207,0.9420402710515284,-0.1896032691001892,0.9999969005584717,1.267902806551514,1.2798069369255152,0.004791137762367725,0.9999881386756897,1.1629457611296843,1.2745766561183942,-0.004900376312434673,0.9999904632568359,1.2666400532568383,1.5458603600859078,0.006576210260391235,0.9745187163352966,1.1857671352906338,1.5471644828332953,-0.11662423610687256,0.9827859997749329,1.2431415005544773,1.795605072570322,0.12995398044586182,0.9777160882949829,1.1791731400244811,1.8476712023440438,-0.08282432705163956,0.9887977838516235,1.3127354734473544,1.2865975778044725,-0.3232666850090027,0.9930477142333984,1.08152336114702,1.297664187829698,-0.26797372102737427,0.9971925020217896,0.003208547830581665,1.2154242838405993,1.2771917965219548,174.89678564993778,173.957255318545,1.0,-0.0012109034357663617,0.005813332209442073,0.010696202413963586,-0.09711887225998804,95.05707652474922,0.8845685624760976,34,1.1333333333333333
1.220491413918845,0.7956035133396482,-0.42862582206726074,0.999994695186615,1.3156328249391733,0.9348101134023462,-0.20149245858192444,0.9999982118606567,1.1314828979086218,0.9425110213978053,-0.19999507069587708,0.9999969601631165,1.2677604485890417,1.279642818348566,0.007917700335383415,0.9999873638153076,1.1628438611391114,1.275280691771759,-0.008029483258724213,0.9999899864196777,1.2670355380631493,1.5386603000611785,0.006305416114628315,0.9618359804153442,1.186440739971555,1.5468146992493688,-0.14552649855613708,0.9810382127761841,1.2435150618734772,1.7956035133396482,0.12519004940986633,0.970469057559967,1.1789923265294178,1.8501811713496,-0.12080061435699463,0.9878218770027161,1.3092950639108811,1.2857463060799619,-0.3263893127441406,0.993330717086792,1.0817991598241978,1.300324296152965,-0.28768253326416016,0.9968649744987488,0.0032622218132019043,1.2153021548640766,1.2774617550601626,174.93009725194568,173.6268797291877,1.0,-0.00042969313008646735,0.002645443637298734,0.006073857412757627,-0.024629733606834937,95.52290986137012,0.8834686485210534,35,1.1666666666666667
1.21770633304545,0.7949352930486558,-0.4377022385597229,0.9999943971633911,1.3146163507156483,0.9356108099291962,-0.21708175539970398,0.9999982118606567,1.1299510036018803,0.9423280161045913,-0.2147250920534134,0.9999968409538269,1.2659803163763403,1.2816377922199809,0.009947887621819973,0.9999873638153076,1.1610068954899342,1.2764141343307662,-0.010027585551142693,0.9999901056289673,1.266088861377699,1.5396503852679688,0.06263704597949982,0.953274667263031,1.185349096260927,1.5478417366075399,-0.1170041412115097,0.9815502166748047,1.242787680282948,1.7949352930486557,0.26954415440559387,0.9653003215789795,1.1784314614593185,1.8536956796066508,-0.04751474782824516,0.9881489276885986,1.3011702683711888,1.2847742084703766,-0.400966078042984,0.9935973882675171,1.0808847261224723,1.2991339247770486,-0.36106187105178833,0.9966045618057251,0.0028475821018218994,1.2134936059331372,1.2790259632753735,174.76066306097837,173.57963996682426,1.0,-0.006835639473316812,0.018435591273637038,-0.047365521710164574,0.11676077065417265,95.15204366380542,0.8877855058263255,36,1.2
1.2153480137812054,0.7939680434411776,-0.42186522483825684,0.9999940991401672,1.312708765043566,0.9357742988061359,-0.20881393551826477,0.9999982118606567,1.1277467375189378,0.943387895818312,-0.19724494218826294,0.9999966621398926,1.2639631478673283,1.2841696271744167,0.00954834558069706,0.9999873638153076,1.1592209724108324,1.280152602010493,-0.009633021429181099,0.9999902248382568,1.2643520689400174,1.5448610765922395,0.06767995655536652,0.9491352438926697,1.1839628276289587,1.5523583062845445,-0.10904492437839508,0.9823908805847168,1.2416989965794187,1.7939680434411776,0.27475443482398987,0.9634134769439697,1.177124333881367,1.8592882435367857,-0.04799523949623108,0.9887726902961731,1.2975744120553454,1.283636739290783,-0.38309890031814575,0.9938069581985474,1.0790171322611857,1.2995393834554605,-0.3368908762931824,0.996275782585144,0.003230959177017212,1.2115920601390804,1.282161114592455,174.71849928313065,173.5300742706075,1.0,-0.004818475360207703,0.034004096773083387,0.015285337049703772,0.1185381536894077,95.76850945748959,0.896659422514958,37,1.2333333333333334
1.2077226176679632,0.7914702762129174,-0.42407020926475525,0.9999939799308777,1.3070757983705223,0.933590137703816,-0.210000678896904,0.9999982714653015,1.12289328566977,0.9415183482544562,-0.20076611638069153,0.999996542930603,1.2577295851379313,1.2831929919156342,0.011386120691895485,0.9999874830245972,1.1540396970726123,1.278712383539965,-0.011463455855846405,0.9999903440475464,1.2593799301852506,1.5436706312387742,0.07347729802131653,0.945025622844696,1.1801350778851103,1.5528608291639385,-0.11009818315505981,0.9831088781356812,1.2382139468441562,1.7914702762129175,0.2817813456058502,0.9617376327514648,1.1737023174715437,1.858490334823695,-0.04442886263132095,0.989304780960083,1.29275600200271,1.2801830448894134,-0.378756582736969,0.993994951248169,1.074710394834969,1.2993352543476662,-0.3333204984664917,0.9956011772155762,0.0033742189407348633,1.2058846411052717,1.2809526877277995,174.75487804755298,173.35680730001548,1.0,-0.016909268757376444,0.019120633515709695,-0.0927373979526371,-0.11327349696262601,95.55988243014015,0.8997406155591587,38,1.2666666666666666
1.200613948099322,0.7877990356076763,-0.4213314652442932,0.9999935626983643,1.3004885958211343,0.9314590203127701,-0.20015744864940643,0.9999982714653015,1.116527734907668,0.940594813397533,-0.20299670100212097,0.9999963641166687,1.2506813611041285,1.2826778410120627,0.013714367523789406,0.9999876022338867,1.1477723247153584,1.2786480118927468,-0.013806124217808247,0.9999904632568359,1.2552343414100853,1.5422077790513442,0.06552566587924957,0.9429472088813782,1.1760582598152678,1.5522210101373117,-0.1204707995057106,0.9838091731071472,1.2353871535363496,1.7877990356076763,0.2703133821487427,0.9607223272323608,1.1715234444810694,1.8558243396927967,-0.05273114889860153,0.9897971153259277,1.2901021444308083,1.2800148561522873,-0.3493512272834778,0.994102418422699,1.0693632939856756,1.2978419594359414,-0.33095279335975647,0.99504154920578,0.003897041082382202,1.1992268429097435,1.2806629264524048,174.37469807004015,173.241166005741,1.0,-0.029570379360398382,0.019879837126128265,-0.09603801451570561,0.006070750929249713,95.828932217259,0.9107452470109816,39,1.3
1.193214258199401,0.7822676806818899,-0.43632394075393677,0.9999932646751404,1.2934663781342066,0.9287000171219207,-0.20496663451194763,0.9999982714653015,1.109448082059278,0.937786825260141,-0.21296361088752747,0.9999961853027344,1.243867698402869,1.2790382690950166,0.01389518566429615,0.9999879002571106,1.1408459789190009,1.2742601526093933,-0.013989968225359917,0.999990701675415,1.2499489755616275,1.5401532725368152,0.05925162881612778,0.942813515663147,1.1688888709326208,1.5478483847648064,-0.1332172304391861,0.9847429394721985,1.2317083483504234,1.7822676806818898,0.26922380924224854,0.960313618183136,1.1679548276641758,1.8505097498123764,-0.0629156157374382,0.9903669357299805,1.2872655679566805,1.276890575601639,-0.3570137023925781,0.9941984415054321,1.06215236336143,1.293580895781557,-0.33800050616264343,0.9944162964820862,0.003887683153152466,1.192356838660935,1.276649210852205,174.35738214525475,173.97078070641143,1.0,-0.026341596604787732,-0.001695221088802425,0.02498894214735388,-0.17117448343326314,95.40256569362943,0.9158728003496609,40,1.3333333333333333
1.1829094107045834,0.7774421476721848,-0.4530341625213623,0.9999934434890747,1.2878465111938018,0.9262775178415279,-0.22315871715545654,0.9999983310699463,1.1022076772736211,0.9349475198526234,-0.21933738887310028,0.9999961853027344,1.2392453614249668,1.2747377242621447,0.013608287088572979,0.999988317489624,1.1335832665745933,1.2699544281322257,-0.013702744618058205,0.9999909996986389,1.2450767049589615,1.537259293538828,0.05301219969987869,0.9438603520393372,1.160187434653286,1.54466645814977,-0.11972006410360336,0.9855145215988159,1.227952671479222,1.7774421476721847,0.2713364362716675,0.9604232907295227,1.1643349718391078,1.8449037063045066,-0.039091553539037704,0.9908480644226074,1.2843858436656603,1.274916750647495,-0.3793486952781677,0.9944881796836853,1.0550258914652886,1.29208550600162,-0.333649605512619,0.9942604303359985,0.003720790147781372,1.18641431399978,1.2723460761971852,174.64945939450502,175.25995138687375,1.0,-0.0168373519024818,-0.0028111851253564664,0.06962374201268272,-0.008283742075303442,95.34805610662649,0.9183535213432468,41,1.3666666666666667
1.1782283809200644,0.7752501811976986,-0.4866105020046234,0.9999935626983643,1.2846013008763064,0.9248947422655732,-0.24712836742401123,0.9999983906745911,1.0969396758252605,0.934244023078116,-0.24617142975330353,0.9999961853027344,1.2384514527215391,1.2723171204328898,0.013181248679757118,0.9999887943267822,1.130733593064491,1.2688515865077192,-0.01327883917838335,0.9999913573265076,1.2435995837917488,1.536291132051054,0.052409231662750244,0.9462523460388184,1.1556557795386944,1.5448498392380017,-0.0920930802822113,0.9863067269325256,1.227712336119736,1.7752501811976986,0.29167118668556213,0.9608187079429626,1.1634339054288532,1.8430364744288326,0.011210119351744652,0.9913468360900879,1.286454877869802,1.276427298348386,-0.38267678022384644,0.9946355819702148,1.0493292822766966,1.2970567387328686,-0.34896886348724365,0.9939512610435486,0.0040153563022613525,1.1845925228930152,1.2705843534703045,175.07901025793714,176.33448676900113,1.0,-0.007124111254353434,-0.006154618004005887,0.07504382048061468,-0.025881689459460656,95.723884502764,0.9196206995263932,42,1.4
1.1755050841362962,0.7698175604136562,-0.4763028025627136,0.9999935626983643,1.2795667330345668,0.9225699970478493,-0.24904373288154602,0.9999984502792358,1.0926890014627575,0.9327522812578382,-0.2408168762922287,0.9999962449073792,1.2375268856585404,1.2712058203982517,0.009816331788897514,0.9999891519546509,1.1282300247048405,1.2682954270519113,-0.009913990274071693,0.9999917149543762,1.2429481331530967,1.53946684268588,0.03982136771082878,0.9497373104095459,1.1519062597803866,1.551410983776489,-0.03690376132726669,0.9869409203529358,1.2289068274589974,1.7698175604136563,0.2878111004829407,0.9612423181533813,1.1629694724306856,1.842231265496017,0.08651973307132721,0.9917420148849487,1.2898837229950346,1.2785060119551006,-0.38575834035873413,0.9947681427001953,1.0440826302553277,1.2973602389688337,-0.3430362343788147,0.9940489530563354,0.004374802112579346,1.1828784551816904,1.2697506237250815,175.35405837357604,177.39818424879564,1.0,-0.00946316485739133,-0.002590589000832215,-0.017618916787518736,0.026796748081984376,95.35041728741315,0.9320557561489555,43,1.4333333333333333
1.1774244950723378,0.7720086641498474,-0.49358049035072327,0.9999930262565613,1.2820521309615935,0.9245281798399516,-0.2620016932487488,0.9999984502792358,1.0911635242129214,0.9326659482245963,-0.25066378712654114,0.9999962449073792,1.2410622611617144,1.2745468827965212,0.0056467317044734955,0.99998939037323,1.1286741154836972,1.2716403779652603,-0.005742881912738085,0.9999919533729553,1.246283648107315,1.5478152317601659,0.024147402495145798,0.9523543119430542,1.1526225245360673,1.5630900316788716,-0.04528158903121948,0.9872271418571472,1.2328108422339885,1.7720086641498474,0.2814348638057709,0.9604381918907166,1.166553271153364,1.8492345559414542,0.08766310662031174,0.9918868541717529,1.302187473873938,1.285753354951512,-0.3914027810096741,0.9946442246437073,1.0426906633922697,1.303037140357586,-0.3481345474720001,0.9941491484642029,0.0034868717193603516,1.1848681883227057,1.2730936303808906,175.4663437109293,178.0897652346216,1.0,-0.009383225772566462,-0.0009048336944610646,0.0008030421046638791,0.012855898643211931,95.19793751208216,0.9319475335110486,44,1.4666666666666666
1.1779861439155497,0.7723754034351435,-0.5080180168151855,0.9999930262565613,1.2821181563928328,0.9246638484178689,-0.26759111881256104,0.9999984502792358,1.0907158081429467,0.9312770840347113,-0.2580143213272095,0.9999963045120239,1.2420390921180653,1.2748192089243324,0.0038781159091740847,0.9999895095825195,1.1285974206738505,1.2723710533548829,-0.003982968628406525,0.9999921321868896,1.2470812875485877,1.5505737895066458,0.011637925170361996,0.9550033211708069,1.1522922730533547,1.5656687768151998,-0.036601971834897995,0.9871912598609924,1.2340353620460438,1.7723754034351435,0.2752104699611664,0.9598314762115479,1.167647151557005,1.850773176305412,0.10420839488506317,0.9918610453605652,1.3073479258921719,1.28794044301635,-0.38391390442848206,0.9944398403167725,1.0413708641089912,1.307225010024325,-0.3531269431114197,0.9942496418952942,0.002831697463989258,1.185318256395958,1.2735951311396077,175.58631417056455,178.46403856719172,1.0,-0.002692938899927624,-0.002760385119376919,0.049726991346173775,-0.013773919959797331,95.29341055102948,0.9313792723598662,45,1.5
1.1826795498727511,0.776335738527753,-0.5041763782501221,0.9999932050704956,1.287338633730076,0.9277709880480468,-0.2576983571052551,0.9999984502792358,1.0934978315890969,0.932427672237883,-0.2620081603527069,0.9999963641166687,1.248490885496193,1.2813404444645933,0.004274911712855101,0.9999898672103882,1.1324404471441054,1.2798414568374328,-0.004376444965600967,0.9999924302101135,1.253630091746354,1.5672116430467327,0.008847391232848167,0.9576154351234436,1.155118144445571,1.58252222123577,-0.027697280049324036,0.9871709942817688,1.2415206559949326,1.776335738527753,0.2853155732154846,0.9583592414855957,1.1740120628416246,1.8608546860014104,0.1300736367702484,0.991838812828064,1.3175426817242653,1.2943232752284983,-0.35685646533966064,0.993943452835083,1.045143692159181,1.3131552780056763,-0.3683610260486603,0.9942569732666016,0.0019836723804473877,1.1904656663201492,1.280590950651013,175.65604458503418,179.59867001292884,1.0,-0.007278545382534833,0.003047496772522695,-0.033913792451224514,0.04319007560770514,95.5300799243212,0.9368932707587317,46,1.5333333333333334
1.1870312408056314,0.778879849763929,-0.5071896910667419,0.9999935626983643,1.2906571381584537,0.930103769004738,-0.2607942521572113,0.9999984502792358,1.0948466314361283,0.9308918426964746,-0.2754853069782257,0.999996542930603,1.2534572230398116,1.2848040601489188,0.004585583694279194,0.9999901056289673,1.1348728823021106,1.2847099659898769,-0.004685971885919571,0.9999927282333374,1.2585509471419742,1.5725601489889722,0.008179306983947754,0.9598205089569092,1.1577948514204075,1.5913872667009057,-0.017889566719532013,0.9868113398551941,1.2484765523675425,1.778879849763929,0.282133549451828,0.9570034146308899,1.1785366448297998,1.8699276050775455,0.1478349268436432,0.9917002320289612,1.3283686727120056,1.2990409277290853,-0.35161057114601135,0.993439257144928,1.0467515255542181,1.3172832572645254,-0.38905081152915955,0.9945550560951233,0.0003344714641571045,1.194165052670961,1.2847570130693977,176.19040463773413,179.98422096667534,1.0,-0.005463967995737722,-0.004414877333918835,0.014434240866503276,-0.05858194338791782,95.94166137978206,0.9369103902049603,47,1.5666666666666667
1.182132624597378,0.7750068300364689,-0.4963562488555908,0.9999939203262329,1.2838033565951532,0.9264037301105835,-0.2544812858104706,0.9999984502792358,1.0892991892221324,0.9258524235771458,-0.2641792595386505,0.9999967217445374,1.2505447917294212,1.2816628581916305,0.0046918876469135284,0.9999903440475464,1.1309367027245891,1.2849454787960641,-0.00481101730838418,0.9999930262565613,1.2555473205942063,1.5743993420748459,-0.002990622539073229,0.9626138210296631,1.1522570643592585,1.5949894852464208,-0.010154785588383675,0.9869459867477417,1.2488683154958466,1.775006830036469,0.2797836363315582,0.9565969109535217,1.1757951913741194,1.8685716047013068,0.17628230154514313,0.9916377067565918,1.329801235431007,1.296162710382636,-0.34076330065727234,0.9933066368103027,1.0409386081296348,1.3139659184682786,-0.37686169147491455,0.9949005246162415,0.0002345442771911621,1.1907407472270053,1.2833041684938473,177.11408108855534,179.01635054449574,1.0,-0.004374393245546716,0.012430475560557323,0.008268016064579041,0.12929748894906376,96.92039117570332,0.9433128250954972,48,1.6
1.2037941301488702,0.789199034354965,-0.4773073196411133,0.9999944567680359,1.3048817633575192,0.9409630256439533,-0.2331894338130951,0.9999985694885254,1.105963087449008,0.942734651464862,-0.2515643537044525,0.9999969601631165,1.2745782805319292,1.3085857795928855,0.004165669437497854,0.9999909996986389,1.1503155380265782,1.3160435419112224,-0.004302821587771177,0.9999935030937195,1.2821153533830836,1.6115831675612204,-0.08878546953201294,0.96597820520401,1.170115091015267,1.6335040272245194,-0.0032563514541834593,0.9874922633171082,1.2813515429364004,1.7891990343549649,0.24597223103046417,0.9532812237739563,1.1996008179416715,1.907800005130177,0.1842809021472931,0.9918085336685181,1.3658156884665122,1.3223725224300547,-0.3114974796772003,0.9933842420578003,1.0624759076393835,1.347600131155328,-0.369479238986969,0.9949265718460083,0.0007389485836029053,1.2124469092792538,1.312314660752054,178.32866850941048,177.4333244846671,1.0,-0.0158721292126771,0.025781878506631876,-0.08712255407955802,0.1000473452711149,98.14683833184597,0.974424105249461,49,1.6333333333333333
1.20588781125698,0.7887573848704265,-0.4694739282131195,0.9999949336051941,1.305040603481515,0.9417990601298821,-0.2214832603931427,0.9999986290931702,1.1073481087011638,0.9418671573104366,-0.244098499417305,0.9999971389770508,1.2782154753925103,1.3131266777442858,0.00328832003287971,0.9999916553497314,1.1528834030755983,1.3214310930722875,-0.003445718437433243,0.9999939799308777,1.2869845285356218,1.617176718133082,-0.11793222278356552,0.9691351056098938,1.1709219161170328,1.6445158007321665,0.005977208726108074,0.9879598617553711,1.2878576060715732,1.7887573848704266,0.21699300408363342,0.9524852633476257,1.2039658937780036,1.9143849272697022,0.20705226063728333,0.9920522570610046,1.3747622243578455,1.3269935575049507,-0.29539963603019714,0.9930360317230225,1.066870714492105,1.3513092686499002,-0.36873552203178406,0.995011568069458,2.8312206268310547e-05,1.2155494392340545,1.3172788854082866,178.63954404065313,176.2148267645863,1.0,-0.006018456273389823,0.0054845652773430524,0.07399444864105181,-0.15225269552740772,97.92277122927642,0.9877664245603646,50,1.6666666666666667
1.2091035230858476,0.7896172682749864,-0.44853025674819946,0.9999954104423523,1.3054529976850398,0.9414441832356644,-0.20251937210559845,0.9999986886978149,1.1071331308715853,0.9415233480540145,-0.2286151945590973,0.9999973177909851,1.2806255601072531,1.3163945525697136,0.003432225901633501,0.9999921917915344,1.1551565785999969,1.3259048190326017,-0.00359177915379405,0.9999943971633911,1.29093566421761,1.6196758337179629,-0.10882256925106049,0.9719980359077454,1.1737325816746376,1.6527162979312624,-0.00014854643086437136,0.9885656237602234,1.2923232754982372,1.7896172682749865,0.22253628075122833,0.9513357877731323,1.2074060052477222,1.9187948557235552,0.19744208455085754,0.9922804236412048,1.380232286243317,1.3298369111353363,-0.27424949407577515,0.9931077361106873,1.0694873144125585,1.3536416714408608,-0.3580411374568939,0.995236873626709,3.2842159271240234e-05,1.217891069353625,1.3211496858011578,178.5207919772171,176.04050610586287,1.0,-0.002356578720574071,0.007696923584014925,0.028256321353276687,0.016918551511672042,98.12292766147662,0.9954836890700927,51,1.7
1.2028866726081284,0.7848436391627786,-0.44022297859191895,0.999995768070221,1.2982760872507033,0.9340018061719956,-0.1902938038110733,0.9999986290931702,1.1000471023006353,0.9336119915637627,-0.21819289028644562,0.9999974370002747,1.2741491865470569,1.309705454423538,0.003190619871020317,0.9999925494194031,1.1493769149830282,1.3191792433050074,-0.003370980964973569,0.999994695186615,1.285392689428418,1.6089807052134433,-0.15015241503715515,0.9746155738830566,1.167433630899681,1.6474361700918476,-0.0017444392433390021,0.9888642430305481,1.2867689430205136,1.7848436391627787,0.15600571036338806,0.9517547488212585,1.2016672598835303,1.9090377298077927,0.19170238077640533,0.9924029111862183,1.3736720800594708,1.3221369160724787,-0.2519854009151459,0.9927359223365784,1.0662085064224334,1.344522697282614,-0.3500053286552429,0.9954780340194702,0.00016251206398010254,1.2117630507650425,1.3144423488642727,178.29683221721982,175.69308700780502,1.0,-0.0013772017588726678,-0.001964136631400186,0.007615291857676241,-0.07571904083996389,98.01642861771084,0.9928475131824065,52,1.7333333333333334
1.1982776570328684,0.7808125032633892,-0.44923749566078186,0.9999959468841553,1.2940318566631803,0.9279504191349406,-0.196660578250885,0.9999985098838806,1.0935409716790165,0.9259821635339672,-0.21838457882404327,0.9999974966049194,1.2687641590136254,1.302556808974066,0.0020698108710348606,0.999992847442627,1.144349761534839,1.313759432308099,-0.0022804199252277613,0.9999949336051941,1.281701890375906,1.5956047159207594,-0.20308451354503632,0.9770333766937256,1.1623759938778995,1.6411363782230621,-0.008528588339686394,0.989147961139679,1.2814876197071743,1.7808125032633892,0.11103914678096771,0.952096164226532,1.1972627207003916,1.9019872678488072,0.18533925712108612,0.9925245046615601,1.3681705053147746,1.3162593042657031,-0.27083149552345276,0.9923072457313538,1.0671642381114148,1.333053052861956,-0.3591133654117584,0.9957600235939026,0.0008234679698944092,1.2065569602742323,1.3081581206410824,177.40581150075386,175.5340235650626,1.0,-0.006986080900637409,-0.012398615742479293,-0.04248281569286732,-0.07901691875581435,99.00402952687034,0.9871924213827483,53,1.7666666666666666
1.179141651463644,0.7671667849468027,-0.47651562094688416,0.9999958276748657,1.2736372330117745,0.9121842374303315,-0.20591528713703156,0.9999983310699463,1.0758623764639752,0.9082515835668966,-0.240342378616333,0.9999973773956299,1.2463172907705249,1.275487184347847,0.002140576718375087,0.9999924898147583,1.1251402203242407,1.2868119319197158,-0.002344005275517702,0.9999946355819702,1.261384425117527,1.5583986409573813,-0.1445678174495697,0.9789548516273499,1.143358749716685,1.6125681156526648,-0.010051170364022255,0.9885901212692261,1.2605332007305863,1.7671667849468027,0.11530613899230957,0.9538100361824036,1.178165358364275,1.8715111069639647,0.17332221567630768,0.9923250079154968,1.345045999557352,1.2932709176895743,-0.28981316089630127,0.9922119975090027,1.0595897732211201,1.3056618339714245,-0.3906373679637909,0.9959477186203003,0.0016717910766601562,1.1857287555473828,1.2811495581337813,176.71784002475343,175.54534190989247,1.0,-0.01220959587016064,-0.0445654218570314,-0.037751499135150586,-0.22904530062645545,99.63961661510498,0.9532382078594169,54,1.8
1.151955587471084,0.7476652176773048,-0.4282301962375641,0.9999956488609314,1.245065533421771,0.891220275618607,-0.18010155856609344,0.9999980926513672,1.0519860107660093,0.8866071037023231,-0.19986364245414734,0.9999971985816956,1.2167445978095228,1.2452109348448137,0.001788094057701528,0.9999915361404419,1.0986202624625876,1.257039840812165,-0.001995636383071542,0.9999938011169434,1.229882664751735,1.5170993992084463,-0.18743985891342163,0.9806934595108032,1.1176709323232434,1.5754486750792103,-0.03315369039773941,0.9878867268562317,1.2316624275048513,1.7476652176773049,0.05836596339941025,0.955027163028717,1.1513960455198273,1.8260570039358426,0.16864612698554993,0.9916462302207947,1.313632514005679,1.2614804084944031,-0.26444804668426514,0.9923121929168701,1.0445946575597778,1.2681943637420106,-0.35740604996681213,0.9961656332015991,0.002006441354751587,1.157682430136055,1.2511253878284894,177.67579566490977,175.7595545193745,1.0,-0.009283961146942283,-0.00794289043498852,0.019819423486178055,0.26640439390265086,100.2926957261313,0.937941458212434,55,1.8333333333333333
1.143662525259067,0.7409595261717404,-0.42896899580955505,0.9999955296516418,1.2358519292131145,0.884571778200221,-0.18312880396842957,0.9999979138374329,1.0443355470788735,0.8806152953616925,-0.2054261863231659,0.9999970197677612,1.2075149704020607,1.235945944916322,0.001900962321087718,0.9999905824661255,1.0900040490699385,1.2478507003421573,-0.0021038977429270744,0.9999929666519165,1.2193065260231657,1.504077642004529,-0.17951586842536926,0.9822044372558594,1.1096186363886216,1.5630974623107237,-0.03558928892016411,0.9870126247406006,1.222486188807478,1.7409595261717403,0.06799598038196564,0.9557656049728394,1.1430870022133828,1.810161886605361,0.16365686058998108,0.9908818602561951,1.3034557505772917,1.2508438283520884,-0.2686896324157715,0.9924967885017395,1.0393114893992192,1.2543445867363572,-0.36820900440216064,0.9963643550872803,0.0017332732677459717,1.1487595097359995,1.2418983226292397,178.2509757258759,175.84577917440055,1.0,-0.004655182727708778,-0.0018397415711613038,0.034990158946404275,0.04637212155970913,100.39546775523809,0.9368232808645501,56,1.8666666666666667
1.120935991990531,0.7252227060120622,-0.3852955102920532,0.9999948143959045,1.2109189019944195,0.8660572221502139,-0.14999201893806458,0.9999975562095642,1.0233635955346252,0.8612111227924755,-0.17102254927158356,0.9999967217445374,1.1835441046180861,1.211480567596962,0.0018405790906399488,0.9999893307685852,1.0681972987778305,1.2236454551224916,-0.002046471694484353,0.9999917149543762,1.1916873224125912,1.471974859996981,-0.19661927223205566,0.9836686253547668,1.0863123479489072,1.5234340704327598,-0.054774291813373566,0.9867355227470398,1.1978748451152428,1.7252227060120622,0.02153036743402481,0.9583526253700256,1.1202708476350038,1.7729162766211093,0.13454560935497284,0.9906256198883057,1.2772970549626863,1.2255996833763516,-0.2419327199459076,0.9926581978797913,1.023381931009542,1.2251216275394299,-0.32845595479011536,0.9965589642524719,0.0021661221981048584,1.1258707016979583,1.2175630113597269,179.60909125959674,175.70672295432036,1.0,-0.00015292834624873626,0.002963751350300509,0.03371356467762524,0.03644520826008718,100.55158313732494,0.9245514883893802,57,1.9
1.0877308331977307,0.7029197328234026,-0.4059208035469055,0.999994695186615,1.1746239816456006,0.8405804462368078,-0.16452287137508392,0.9999973773956299,0.9920994170757123,0.8353296956235226,-0.19388432800769806,0.9999964833259583,1.1485445332610407,1.1755644763952704,0.0032681170850992203,0.9999876022338867,1.0365209717194859,1.1878679024139647,-0.00347936456091702,0.9999896883964539,1.1535659832831846,1.4293307418398202,-0.17550106346607208,0.9844056367874146,1.0536959353817477,1.4773325948784575,-0.04877093434333801,0.9830544590950012,1.160997159946544,1.7029197328234027,0.003893766552209854,0.9594491124153137,1.0874819928835293,1.7204095965920652,0.13018104434013367,0.9881680607795715,1.2375635000561283,1.1897959942920717,-0.25016671419143677,0.9927244186401367,1.0037331870226476,1.1894608427508435,-0.33936193585395813,0.9966782331466675,0.0024185776710510254,1.0925327524902633,1.1817161894046175,179.57772813107806,175.48255247422935,1.0,-0.00012071015858758366,0.0015065655112229059,0.00021984549195915837,-0.010872164027945795,100.71927101299968,0.901906311587898,58,1.9333333333333333
1.0676934521626515,0.6890987201760581,-0.41315847635269165,0.9999946355819702,1.152319618579709,0.8246311795567036,-0.16973502933979034,0.9999971985816956,0.9732713416130789,0.8203804892974168,-0.1943318396806717,0.9999963045120239,1.1274288150364216,1.1538109863457038,0.004536575637757778,0.9999857544898987,1.0177116116164364,1.1663778745138877,-0.004745847079902887,0.9999874234199524,1.1311258626375604,1.4034165683439728,-0.16280320286750793,0.9846120476722717,1.03168140411602,1.448728390519895,-0.048313044011592865,0.976837694644928,1.1381927764937985,1.691373748231287,-0.02001822181046009,0.9609494805335999,1.0681238937704658,1.689098720176058,0.12210150808095932,0.9844071865081787,1.211129068405097,1.167835965295153,-0.2529250383377075,0.9923151731491089,0.9936697522179205,1.1681306317248166,-0.36234310269355774,0.9967663288116455,0.001994788646697998,1.072570213326429,1.1600944304297958,179.4427330118309,174.21155301644117,1.0,0.0016803512982666267,0.0015932504098943884,0.013593262689729286,0.0008653893826159628,100.85829042899681,0.8870022896442279,59,1.9666666666666666
1.0661462369098276,0.6876060642977951,-0.4540514051914215,0.9999948740005493,1.1480830708472607,0.8227529573515328,-0.17420779168605804,0.9999970197677612,0.970611822994838,0.8183335997314353,-0.2620024085044861,0.9999963045120239,1.1221388732988453,1.1518335506647694,0.011587117798626423,0.9999838471412659,1.0117821450172437,1.1635766070663474,-0.01174879539757967,0.9999856352806091,1.121232296167282,1.4101778772753042,-0.08088663965463638,0.9821967482566833,1.0262792699767058,1.4432422847340203,-0.05249230936169624,0.9657995700836182,1.134361256225749,1.7040876492201569,0.039688948541879654,0.9616773128509521,1.0649723113858676,1.6876060642977952,0.11635357141494751,0.9788202047348022,1.1994747807790698,1.1650123059451376,-0.24869337677955627,0.9914119243621826,1.0003359593660852,1.1675535094322984,-0.42822033166885376,0.9969078302383423,0.0020789504051208496,1.0669605091580445,1.1577050788655585,177.24123532950284,173.96977884954524,1.0,-0.022674273189374882,0.0030389351372017846,-0.18248102852836234,0.010862596129409624,100.58177110858745,0.8719487482128505,60,2.0
1.0646829951510064,0.6866891587830493,-0.4519731402397156,0.999994695186615,1.1451738862230942,0.8216156275123501,-0.17347954213619232,0.9999964833259583,0.9685417119627047,0.8166591243496332,-0.25642555952072144,0.9999960660934448,1.1189582248335213,1.1532820455775055,0.014444326050579548,0.9999805092811584,1.0088262806348693,1.1629159440368504,-0.01460188440978527,0.9999825358390808,1.114229065645968,1.4163707887325367,-0.07221786677837372,0.9780784249305725,1.0237406648025766,1.4399838451153595,-0.05313948541879654,0.9484007954597473,1.1293604283698988,1.7118953294939148,0.015990518033504486,0.9622349143028259,1.0626892953032012,1.6866891587830493,0.10895724594593048,0.9694899916648865,1.1906811091503895,1.1638708266548012,-0.22517934441566467,0.9886887073516846,1.0025510307271468,1.1685911373139912,-0.4082157611846924,0.9969062209129333,0.002337127923965454,1.0638922527341952,1.1580989948071778,176.03910653581283,174.1096907659126,1.0,-0.004321340272166745,0.024035565713763373,0.14118418639335242,0.1620470207302548,99.51866945036166,0.8695229192615438,61,2.033333333333333
1.0660045600437797,0.6870645932022169,-0.44356852769851685,0.9999943375587463,1.1448600376092342,0.8229423662257344,-0.16472241282463074,0.999995768070221,0.968968841386747,0.8170306457600596,-0.2493458241224289,0.9999956488609314,1.1185165038585374,1.158974121650396,0.01566215232014656,0.9999778270721436,1.0089699996054975,1.165982230193195,-0.015810657292604446,0.9999798536300659,1.1137396101708803,1.4279534831026506,-0.0511539988219738,0.9766286015510559,1.0242888334562361,1.4406971768797283,-0.03451085835695267,0.9393313527107239,1.128981313733642,1.7224684069282723,0.040484774857759476,0.9645112752914429,1.063079299039943,1.6870645932022168,0.1453203707933426,0.9650005102157593,1.1858397389405282,1.1667660509393711,-0.18938487768173218,0.9853066802024841,1.0031118277905737,1.1709600419588766,-0.3965389132499695,0.9968294501304626,0.0027867555618286133,1.0637432517320176,1.1624781759217955,176.02005031167124,174.24391509994373,1.0,-0.003437348145327319,0.03108887201097565,0.00678919719732206,0.05404428705972468,98.14303149803409,0.8751372258636287,62,2.066666666666667
1.0677009642062896,0.6873066881191885,-0.40962427854537964,0.999992847442627,1.1451989158820897,0.8247153007999736,-0.13906429708003998,0.9999945163726807,0.9695468873534564,0.8173248927052468,-0.2430846244096756,0.9999951720237732,1.1173279216387706,1.165177230235687,0.019285302609205246,0.9999758005142212,1.008452684801779,1.1696366550785193,-0.01943693496286869,0.9999780058860779,1.1131994662753546,1.4374390221616127,-0.04968851059675217,0.9739916324615479,1.02467227603234,1.4414208999068998,-0.03490462899208069,0.9261549711227417,1.1273393373667262,1.7346101563366016,0.035101160407066345,0.9663280844688416,1.0633057856361143,1.6873066881191885,0.14714425802230835,0.957310676574707,1.182908569143818,1.1735377191068226,-0.17542561888694763,0.9756019115447998,1.003586092882531,1.1731436415761154,-0.3906816840171814,0.9967126846313477,0.0034830868244171143,1.0628903032202748,1.1674069426571032,176.40709023064736,174.4859605177897,1.0,-0.008278425162126166,0.036246117359300015,-0.037406406235724166,0.0398059074520818,97.02539734531635,0.8817381881455673,63,2.1
1.0681790671745384,0.687461161785157,-0.41366609930992126,0.9999924302101135,1.147056706797644,0.8263597090635887,-0.14174380898475647,0.9999939203262329,0.9699710163991655,0.8177537361524728,-0.24319210648536682,0.9999947547912598,1.1174974814054042,1.1690178398078974,0.01719166524708271,0.9999741315841675,1.0082697176075217,1.1726513196297335,-0.017305772751569748,0.9999762177467346,1.1123334296712895,1.4401919001491867,-0.05800824239850044,0.9738473296165466,1.0251039849130967,1.4439378234409852,-0.014175830408930779,0.9213762879371643,1.1271158882370091,1.7397956918593585,0.03507878631353378,0.9686254262924194,1.0635042520453897,1.6874611617851571,0.1885702908039093,0.9531377553939819,1.1841259923389191,1.176259123383625,-0.20978304743766785,0.9738996624946594,1.0030264874569879,1.17727883008198,-0.38692551851272583,0.9967242479324341,0.004055529832839966,1.062883599506463,1.1708345797188153,176.08434606205424,174.58988061961384,1.0,-0.0009292075703462969,0.024553491957648187,0.054722834766086775,-0.08708326998016869,96.83563599472902,0.888993578786844,64,2.1333333333333333
1.0709640293750358,0.6901067174519755,-0.4323168694972992,0.999991238117218,1.151427113938797,0.8295423980851724,-0.17757616937160492,0.9999932050704956,0.9718447950982724,0.8193305288377006,-0.2532063126564026,0.9999942779541016,1.11969998194838,1.1743785861279288,0.014488408342003822,0.9999728202819824,1.010155034206521,1.1780523981060815,-0.014592352323234081,0.99997478723526,1.1142302587096848,1.450813200454655,-0.05572206899523735,0.9745171666145325,1.0272845579700627,1.4505208516486945,-0.005089133512228727,0.9206946492195129,1.1296122158461797,1.749003786911809,0.041507720947265625,0.9708836674690247,1.065417892469243,1.6901067174519755,0.20387819409370422,0.9517881274223328,1.1876712694179261,1.180693294992174,-0.21502430737018585,0.9726096391677856,1.0036170402984517,1.1830664272371765,-0.38859957456588745,0.9967650771141052,0.004803210496902466,1.0649275080774505,1.1762154921170052,175.91350847797608,174.55379041761591,1.0,0.00024039974655348464,0.02370678487828914,0.008774522203257897,-0.00669068582588114,97.17758809899301,0.8931287053619968,65,2.1666666666666665
1.0729633886721706,0.692076332717635,-0.4323499798774719,0.9999898672103882,1.1535429591821653,0.8316828825363226,-0.17671197652816772,0.999992311000824,0.9730921847972868,0.8204990676982452,-0.25076037645339966,0.9999936819076538,1.1217691460613273,1.1772060991115458,0.013923069462180138,0.9999715685844421,1.011446507422477,1.1817004831297884,-0.014040859416127205,0.999973475933075,1.1157539235938223,1.4570671441865104,-0.05239008739590645,0.9751566648483276,1.0285548932663091,1.4555282896314836,-0.0053655123338103294,0.920434296131134,1.1310251107086526,1.7536610915489048,0.04556242749094963,0.9730575084686279,1.0666096664146738,1.6920763327176351,0.2043304741382599,0.9511882662773132,1.1896802223694947,1.1834241930798741,-0.21410998702049255,0.9703201055526733,1.0041925508097003,1.1870895824849956,-0.3874300420284271,0.9967401027679443,0.005254089832305908,1.0666078267419021,1.1794532911206672,175.82122399709897,174.4359368004869,1.0,0.003248488846419234,0.014609472072323866,0.023989387020464818,-0.07278365365125086,97.58691664043337,0.8953785985927183,66,2.2
1.0761221329295858,0.692957368688402,-0.448974609375,0.9999899864196777,1.155174815867128,0.8321776307717715,-0.17968538403511047,0.9999920725822449,0.9737322535619185,0.8209387674298732,-0.26328590512275696,0.9999933838844299,1.124171829715946,1.1804760158686767,0.014644792303442955,0.9999704957008362,1.0126823993023704,1.1851057656830697,-0.014771215617656708,0.9999720454216003,1.1167413294380353,1.465134604666449,-0.040960244834423065,0.976002037525177,1.0308105400784497,1.462640295376794,-0.004456865601241589,0.9216040372848511,1.1323052151552806,1.7606360571201778,0.06533554941415787,0.975143313407898,1.0671697091912613,1.6929573686884019,0.21886825561523438,0.9508346915245056,1.1908741970755687,1.18481265355778,-0.21513934433460236,0.9706203937530518,1.0037041425984776,1.1890091458218859,-0.40823739767074585,0.9968329071998596,0.005277067422866821,1.0684271145091582,1.182790890775873,175.4897875246821,174.76616171316064,1.0,0.009121440204432164,0.019867737181850267,0.04331425612871776,0.038733640364393675,97.46456581158556,0.8990393645612448,67,2.2333333333333334
1.0782941008942255,0.6932298410069488,-0.5020468831062317,0.9999903440475464,1.1597885306966838,0.8310360291898438,-0.2281254082918167,0.9999921917915344,0.9741676764113857,0.8209730548939257,-0.29418519139289856,0.9999932646751404,1.1271407318131994,1.1802155298674297,0.01278651226311922,0.9999697208404541,1.013908511351232,1.1854830896804407,-0.012896589934825897,0.9999707341194153,1.1171686059732955,1.4629125621385028,-0.05280817300081253,0.9769931435585022,1.0350216671345585,1.4654476848118523,0.00819365493953228,0.9220823645591736,1.132384674836806,1.7592409259152744,0.06312896311283112,0.9771121144294739,1.066853924951684,1.6932298410069488,0.24385030567646027,0.950226366519928,1.1943528447375127,1.1872932023134803,-0.2900067865848541,0.9719104766845703,1.0033864698397728,1.1912411422755387,-0.4571476876735687,0.9969596266746521,0.004723876714706421,1.0705246215822157,1.1828493097739352,175.04025079940416,176.3572335311557,1.0,0.01445141802699485,-0.001624632284649762,0.04147964129687697,-0.1673602844333355,98.00502462526957,0.8998735801146679,68,2.2666666666666666
1.0801287575073077,0.69183475007737,-0.5196627378463745,0.9999905228614807,1.1636257694905197,0.8296273188584001,-0.251469224691391,0.9999923706054688,0.9733937645586253,0.8194857653966768,-0.30434805154800415,0.9999933242797852,1.1281826313107675,1.1788096508378392,0.010343154892325401,0.9999699592590332,1.0137537004906838,1.1843492150624235,-0.01045173965394497,0.9999708533287048,1.116428596030774,1.459983702014933,-0.04889465868473053,0.9776169657707214,1.0351881451853993,1.464581441368833,0.013438554480671883,0.9221304059028625,1.1312907548737756,1.7555632081645458,0.07374738156795502,0.9788260459899902,1.065930849071486,1.69183475007737,0.24831494688987732,0.950310468673706,1.1998862807362498,1.1956731875310456,-0.3209579586982727,0.9725714921951294,0.9964033935888545,1.19385766278369,-0.46954482793807983,0.9970611929893494,0.00476488471031189,1.0709681659007257,1.1815794329501312,174.72774527730232,176.66975944322724,1.0,0.010824840962922218,-0.0019526534817074681,-0.02857095863466339,-0.002604264267678903,98.56741175107975,0.9023708896677547,69,2.3
1.0853867446315895,0.6889020774900063,-0.5222064256668091,0.999991238117218,1.167549573764068,0.8287151354098405,-0.24572233855724335,0.9999927878379822,0.9730788313758089,0.8181189821063021,-0.297771692276001,0.9999934434890747,1.1299620605794298,1.178707764376764,0.007994377985596657,0.9999704957008362,1.0140098451639208,1.1850594707629956,-0.008103584870696068,0.9999709129333496,1.116331007257218,1.4597505135153044,-0.04987487941980362,0.9790120720863342,1.0362251560519036,1.4658501147186374,0.01918720081448555,0.9258356094360352,1.1308406243154054,1.7540599808701878,0.07000523060560226,0.9806095957756042,1.0652157937302784,1.6889020774900063,0.2797175347805023,0.9514768719673157,1.2086290227214869,1.1950124261351154,-0.3476996123790741,0.974714457988739,0.9863584211595887,1.1939414863616866,-0.4649847149848938,0.9972383975982666,0.0049803853034973145,1.0719859528716753,1.1818836175698797,174.40080490246567,177.1182799672621,1.0,0.010857418100561449,0.005758345803927276,0.0002790943593659482,0.05858060529719327,99.26524686468758,0.91288123816136,70,2.3333333333333335
1.0888046230836685,0.6854562703412486,-0.5409661531448364,0.9999918341636658,1.1720582439970968,0.8274414189791299,-0.2684168815612793,0.999993085861206,0.9740541145049048,0.8179708987959959,-0.29642996191978455,0.999993622303009,1.135410775935742,1.1783383231786642,0.0011439212830737233,0.9999712705612183,1.020285014589148,1.1845662892034219,-0.001274836715310812,0.9999714493751526,1.1165136069861554,1.4608805170842396,-0.06888844072818756,0.9803167581558228,1.0375420772532538,1.4690578448432827,0.02235320396721363,0.9288451671600342,1.1303431201250107,1.7551726429003622,0.07095938920974731,0.9821497797966003,1.0648046758308054,1.6854562703412486,0.30199211835861206,0.9516329169273376,1.2151336353783162,1.198253030044059,-0.35368239879608154,0.9761583805084229,0.9756883247762939,1.196854723734335,-0.4425724446773529,0.9973800182342529,0.004451930522918701,1.0778478952624448,1.1814523061910431,173.48311475698276,176.2907846638297,1.0,0.04281960229158595,-0.001913041350587249,0.22774673100329765,-0.05465430387701448,99.05883764070151,0.920055352353753,71,2.3666666666666667
1.0826096471322502,0.6722497707019166,-0.5569707155227661,0.9999923706054688,1.1666643706979285,0.8194733878037763,-0.2887958884239197,0.9999935030937195,0.9688760364962158,0.8101616934411219,-0.3041069805622101,0.9999938607215881,1.1292847415767668,1.1704251045876664,-0.0006042667664587498,0.9999726414680481,1.0134826203658467,1.1751173098492844,0.0004637218953575939,0.9999727606773376,1.1122933148498415,1.4622178215106354,-0.04383751004934311,0.9814613461494446,1.0323940430870928,1.4610258048644218,0.03652659431099892,0.9321060180664062,1.121372141369526,1.7411402812366703,0.14037321507930756,0.9834821820259094,1.0564953616084714,1.6722497707019166,0.3292592167854309,0.9526771903038025,1.2170695022446711,1.190692784348966,-0.3978894352912903,0.9775386452674866,0.9495352990725733,1.1989680847135722,-0.43591007590293884,0.9974369406700134,0.0044116973876953125,1.0713836809713067,1.1727712072184755,174.80306509821213,177.27484194366963,1.0,0.015291370923034496,0.004231067920844804,-0.2135619113996208,0.048133995595327765,98.39992206587216,0.9371657104751638,72,2.4
1.0783261766979015,0.6636218807699258,-0.5564239621162415,0.9999929666519165,1.1642179453851453,0.813551551717846,-0.2827671766281128,0.9999939203262329,0.9667899524631819,0.8061957794806923,-0.30345070362091064,0.999994158744812,1.1261939992677592,1.1652821922308227,-0.00011507768795127049,0.9999741315841675,1.0092972934942044,1.1692290820442177,-3.509439557092264e-05,0.999974250793457,1.1107432032202575,1.459404165735821,-0.046781085431575775,0.9826917052268982,1.029666835402977,1.4552875172207747,0.03133782744407654,0.9358508586883545,1.1158080467252063,1.7329340081199993,0.15017101168632507,0.9846779704093933,1.050412638209842,1.663621880769926,0.33054059743881226,0.9541695713996887,1.2192474318832256,1.1875476233562685,-0.3828091025352478,0.9787693619728088,0.9334756835995756,1.200237837449408,-0.434227854013443,0.9975053071975708,0.0035021603107452393,1.0677456463809818,1.1672556371375202,175.9321040215848,178.38629163996825,1.0,0.012318513671916073,0.0017203031627440449,-0.02223505147374582,-0.019104969130583373,98.10381091711287,0.9482316548717415,73,2.433333333333333
1.0828575412920811,0.6592802193010298,-0.5559686422348022,0.9999935030937195,1.1703320752494522,0.8128198226350996,-0.2796727120876312,0.9999942779541016,0.9730238737066371,0.80792204187196,-0.3000103831291199,0.9999944567680359,1.1311047473343496,1.168872127831921,0.0003512928378768265,0.9999755024909973,1.0133858442237613,1.1727188996572464,-0.000506022828631103,0.9999756217002869,1.1179864429328015,1.46273859689208,-0.04446152597665787,0.9838153123855591,1.0343441139763594,1.4626140254282756,0.02873064950108528,0.9395090341567993,1.119014659813478,1.7366448748229455,0.1677737534046173,0.9856903553009033,1.0534859258419296,1.6592802193010299,0.3444811701774597,0.9550893306732178,1.2290812082251574,1.1904643055979114,-0.36776238679885864,0.979906439781189,0.9301960286441533,1.2045420111924698,-0.43274426460266113,0.9976126551628113,0.002324730157852173,1.0722452957790554,1.1707955137445836,177.22891118519715,178.57589133584338,1.0,0.009415906846395983,-0.00040727968560791834,-0.022815683775284173,-0.016549140400347655,98.15871121763053,0.9701723351781686,74,2.466666666666667
1.0893077080437978,0.6580684543346114,-0.5435419082641602,0.9999940395355225,1.1815469451321179,0.811244085767969,-0.2721952199935913,0.9999946355819702,0.9824354094480968,0.8132073703368594,-0.29191863536834717,0.9999947547912598,1.1408551454821925,1.1764720826634691,-0.0009827640606090426,0.9999768733978271,1.0221444924609835,1.1804160942315924,0.0008194887777790427,0.9999769926071167,1.1287068719320519,1.4723461326434895,-0.04783900827169418,0.9849271178245544,1.0409497074695881,1.4796323919329266,0.023876314982771873,0.9433294534683228,1.125916967838244,1.7472007901168156,0.16714359819889069,0.9866262078285217,1.0602670094820463,1.6580684543346114,0.3585740029811859,0.9553813934326172,1.2392626831905467,1.1973405602293756,-0.34896916151046753,0.9809586405754089,0.9319206144437353,1.2116551077913758,-0.422016441822052,0.9977021217346191,0.0009258389472961426,1.081499818971588,1.178444088447531,178.23037607200465,177.41749036035742,1.0,0.01789114251591411,0.00014813273472237992,0.06640376426980349,0.004404358708597417,98.26025835615678,0.9925873459576514,75,2.5
1.0939617597895008,0.6562162628599673,-0.5140742063522339,0.9999945163726807,1.188565562237816,0.8076275480017144,-0.25077563524246216,0.9999949336051941,0.9888597762717047,0.8163199642653992,-0.26337262988090515,0.9999949336051941,1.147045915345416,1.1810923861887543,-0.00047165752039290965,0.9999778866767883,1.0270592523714939,1.1852104943741162,0.00031792078516446054,0.9999779462814331,1.1349527477795152,1.4775003672123617,-0.04447568207979202,0.985654890537262,1.0449297886791997,1.4902605129806001,-0.008438817225396633,0.9461336731910706,1.1299718570983974,1.7548015038734162,0.1735977828502655,0.9872323870658875,1.0631727084600335,1.6562162628599673,0.34032031893730164,0.9526126384735107,1.2466389837719103,1.2016437154975037,-0.30731821060180664,0.9817677736282349,0.9324920601232121,1.215065002139825,-0.3851242959499359,0.9977673292160034,0.004082858562469482,1.087052583858455,1.1831514402814354,178.6927194038081,177.07955510263312,1.0,0.00964340152092652,6.315453541461215e-05,-0.06469099542460215,-0.0006654022185371013,98.30945998088156,1.0086787124875847,76,2.533333333333333
1.0951996808776019,0.6549977055770553,-0.5089775919914246,0.9999949336051941,1.1920132732144961,0.8073237522907694,-0.24284669756889343,0.999995231628418,0.9914599303273153,0.8170940799821479,-0.25872546434402466,0.9999951124191284,1.1503774074761717,1.1827552671017112,-0.00036076275864616036,0.9999788999557495,1.0292658062612394,1.1870330220263332,0.00019019471073988825,0.9999788999557495,1.137720402166403,1.4792748988096578,-0.03891339153051376,0.986238956451416,1.0462414861405036,1.4951312611980991,-0.014014529064297676,0.9485955834388733,1.1312744143820606,1.7575620329743715,0.18793252110481262,0.9876754283905029,1.0636594667153636,1.6549977055770553,0.33989229798316956,0.9500030875205994,1.2495400670040122,1.202287408148423,-0.303193598985672,0.982511579990387,0.9333342101828663,1.2162253762542283,-0.381911963224411,0.9977981448173523,0.004582613706588745,1.0898216068687054,1.1848941445640222,178.8827104507481,176.93567089039604,1.0,0.009453887176828987,0.00041370012815575405,-0.001579427909222132,0.0027228794849991937,98.3512102681707,1.0162621954426332,77,2.566666666666667
1.101017859762991,0.6536358856894462,-0.5064674019813538,0.9999953508377075,1.2002140765687679,0.8052650908720811,-0.24234481155872345,0.9999955296516418,0.9976112405778024,0.8205614644553594,-0.2510312497615814,0.999995231628418,1.157784672735745,1.1884756213347656,-0.00018132630793843418,0.9999798536300659,1.0343851868821785,1.1927888223528424,1.0770373592094984e-05,0.999979555606842,1.1443249468799208,1.4822254768739458,-0.0626470074057579,0.9871317744255066,1.0501991931136916,1.5008107045435592,-0.016316000372171402,0.9519907832145691,1.1358498695478891,1.76334693467868,0.16148589551448822,0.9884554743766785,1.0647356229718818,1.6536358856894462,0.34855279326438904,0.9492112994194031,1.2579655855697784,1.202589044372362,-0.3158273696899414,0.9838356375694275,0.9375894779144468,1.2187786168104762,-0.383651465177536,0.9978930950164795,0.007139652967453003,1.0960849298089619,1.1906322218438041,179.10331640968496,177.50550070375448,1.0,0.007641538336693535,-0.00038754293008656614,-0.015080722237251,-0.006518003363768304,98.31995751412745,1.0369595766696764,78,2.6
1.1069456011500887,0.6547984173441902,-0.4903244972229004,0.9999956488609314,1.209267504219996,0.8035163937183757,-0.23604002594947815,0.999995768070221,1.0043987343478786,0.8224491077337447,-0.23954987525939941,0.999995231628418,1.1660335067557175,1.194980637967355,-0.00021844224829692394,0.9999803304672241,1.0403354065436197,1.1992102643041367,4.3119085603393614e-05,0.9999796152114868,1.1517051660250321,1.4901268913581827,-0.06119368225336075,0.9877094030380249,1.0537002039825258,1.5094122668408851,-0.02600710093975067,0.9544082880020142,1.1419429984018843,1.7722764814542313,0.1683284342288971,0.9888611435890198,1.0680365057585322,1.65479841734419,0.3569950759410858,0.9439467787742615,1.2640411652813164,1.2085673174436005,-0.3197338879108429,0.9848965406417847,0.9413806404327111,1.2224006609208464,-0.3767518401145935,0.9979642629623413,0.008788496255874634,1.1031844566496685,1.197095451135746,179.20226920768448,176.83537438352488,1.0,0.007630792337190035,-0.0007107450748847186,-0.00038098108311238895,-0.0023140298995857522,98.22952881461408,1.0500782330642036,79,2.6333333333333333
1.1072703645125188,0.6538366872102548,-0.48382997512817383,0.9999958872795105,1.2130672738278387,0.8004572335730942,-0.2335314303636551,0.9999960064888,1.0062666807460643,0.8207453114064701,-0.23299148678779602,0.9999951124191284,1.1679782601769892,1.1961012144251135,-0.0007166630821302533,0.9999806880950928,1.0408881247989574,1.1997158685087042,0.0005391644081100821,0.999979555606842,1.1527402669741524,1.4932294284072913,-0.05479433014988899,0.9881430268287659,1.0486662853924709,1.5091489106965397,-0.03193064033985138,0.9567140936851501,1.1419651601711316,1.7716231798267925,0.18390952050685883,0.9890568852424622,1.067363750998147,1.6538366872102548,0.34616342186927795,0.939960241317749,1.2641040621631092,1.206813118093259,-0.3476127088069916,0.985959529876709,0.9409783562663082,1.2207431147121484,-0.3640527129173279,0.9980030059814453,0.009413421154022217,1.1044331924879733,1.1979085414669088,179.28070315164953,174.0766154395749,1.0,0.006050867834970957,0.002211107417154909,-0.012723152570605353,0.023481325773337704,98.13073116652129,1.05682655676408,80,2.6666666666666665
1.1117573503152045,0.6560745399447874,-0.4911313056945801,0.9999961256980896,1.2201190100943218,0.8006225851894435,-0.23458166420459747,0.9999962449073792,1.0121232092516652,0.8231004995271239,-0.23807425796985626,0.9999950528144836,1.173899512663229,1.2004897038924571,-0.0006702837999910116,0.9999810457229614,1.045503685066295,1.2026088903276515,0.0004946111002936959,0.9999794960021973,1.1580004544615177,1.5018438715064562,-0.047593243420124054,0.9885339140892029,1.051974440506337,1.5153476866031828,-0.03634163737297058,0.9587799906730652,1.1465941540614224,1.7786509252445633,0.20327238738536835,0.9891443252563477,1.0702244308475786,1.6560745399447874,0.34477919340133667,0.9365374445915222,1.2681998260713983,1.2074836125214403,-0.37555843591690063,0.9869013428688049,0.9447821516205139,1.2234164683154345,-0.3760034441947937,0.9980143308639526,0.010386079549789429,1.109701598864762,1.2015492971100543,179.33958244971262,173.79622084992613,1.0,0.00482228777281837,-0.010072017498059097,-0.009253303444131222,-0.09071555294839165,97.5389827683863,1.0575037267164833,81,2.7
1.1098422222853381,0.6546437808121107,-0.4995613992214203,0.9999963045120239,1.220474746813142,0.7953719369991739,-0.23858976364135742,0.9999964833259583,1.0120443968112003,0.8202748623669098,-0.24199624359607697,0.9999950528144836,1.1727626721271007,1.1972083930600501,-0.0005688117817044258,0.9999815225601196,1.0439788288391858,1.1961144256661522,0.00039463554276153445,0.9999796748161316,1.1566240447026017,1.4992680800395648,-0.046209972351789474,0.9890100955963135,1.0499819958445211,1.5047522147107766,-0.05285583809018135,0.9611876606941223,1.144037172478779,1.7700498055931193,0.2070072442293167,0.9893553853034973,1.0681101291423807,1.6546437808121108,0.3271394968032837,0.9362061023712158,1.2655440652268881,1.2012288810225769,-0.3836967349052429,0.9878041744232178,0.9446064528619265,1.221419296783642,-0.37595516443252563,0.9980130791664124,0.011523574590682983,1.1083707504831433,1.1966614093631012,179.60306488039643,174.2183383347605,1.0,0.0023430392703333667,-0.023823936612729576,-0.01890623882946007,-0.10528475729089967,96.28462263012635,1.0510516571040527,82,2.7333333333333334
1.1064946000293219,0.6516120025206734,-0.5018941164016724,0.9999964833259583,1.2187743806539277,0.7925858601984366,-0.244058296084404,0.9999966621398926,1.0105381899815367,0.8171325650626518,-0.23458166420459747,0.9999950528144836,1.1693782486534028,1.1937361534582296,-0.0024171103723347187,0.9999821782112122,1.0414324299036433,1.1908672916034255,0.0022373718675225973,0.9999801516532898,1.15312115075049,1.4957163257273667,-0.044988758862018585,0.9895051121711731,1.0470012610431179,1.493596370774804,-0.04193688556551933,0.963603138923645,1.1407099229008628,1.7653048295761586,0.20333316922187805,0.9897618293762207,1.0632303600256587,1.6516120025206735,0.32005661725997925,0.9384583234786987,1.2580885894831046,1.1920320723779798,-0.38801145553588867,0.9886708855628967,0.9428486807981157,1.2177835014306742,-0.356251984834671,0.9980005621910095,0.011391699314117432,1.105405339278523,1.1923017225308274,179.5543605548772,175.1898221471979,1.0,0.001869475918647155,-0.00693943897528916,-0.003610678807599943,0.13007222219865114,95.73535074698694,1.0475047456335946,83,2.7666666666666666
1.083537010393537,0.6368931877618402,-0.5125508308410645,0.9999967217445374,1.194874445656436,0.7742011307457656,-0.24488937854766846,0.9999968409538269,0.9904153426976349,0.8003320935125213,-0.2372938096523285,0.9999951720237732,1.1450172701457884,1.1691333301548432,-0.0021982972975820303,0.9999828934669495,1.0200128514993898,1.1643404354137306,0.0020194356329739094,0.9999809265136719,1.129430550011718,1.4647929173847098,-0.04574603959918022,0.990006685256958,1.025456749660063,1.4572927290025608,-0.042059462517499924,0.9661350846290588,1.1172862856411792,1.7297596117981695,0.19785746932029724,0.9901527166366577,1.040198549124089,1.6368931877618402,0.2853781282901764,0.9422407746315002,1.226687567545536,1.1659468728374578,-0.3843221962451935,0.9895164966583252,0.9238121577750502,1.1933335488668326,-0.3581971228122711,0.9979762434959412,0.012381196022033691,1.082515060822589,1.166736882784287,179.60645882961978,176.3722179473491,1.0,-0.0015151367169058605,-0.008657707756672467,-0.02685498979423839,-0.014933658032146748,94.99934494684858,1.0256274467461055,84,2.8
1.001792103537605,0.5879631668870889,-0.5439001321792603,0.9999969601631165,1.107625653957195,0.7169927596084452,-0.28310975432395935,0.999997079372406,0.9166289275035088,0.7389774053210562,-0.2398453652858734,0.9999953508377075,1.059141860597864,1.081545278645945,-0.004533799365162849,0.9999840259552002,0.9437114005167826,1.0769201049066304,0.004369258880615234,0.9999821782112122,1.0452280522885293,1.358933044663405,-0.02557324804365635,0.9902195930480957,0.9516203614941485,1.3506371978643716,-0.003045518882572651,0.9685124754905701,1.0338944913661736,1.609852793116051,0.23303699493408203,0.9903995990753174,0.9623568649016705,1.587963166887089,0.25624462962150574,0.9472779631614685,1.123517589863673,1.0768593576066123,-0.44278961420059204,0.9903693795204163,0.8550546146738827,1.1074014009933348,-0.3499261140823364,0.997582733631134,0.011260122060775757,1.0014266305573234,1.0792326917762878,179.71462459601574,179.06481613504567,1.0,2.878503526256276e-05,-0.0007890223619257513,0.010970959091267763,0.055376500468488174,95.28106381800663,0.9453170391815682,85,2.8333333333333335
0.9693310057105661,0.5684310103601756,-0.5308817028999329,0.9999969601631165,1.074400461015841,0.6952782791372015,-0.27500492334365845,0.9999973177909851,0.8880652974270751,0.7155585237912072,-0.22045643627643585,0.9999954700469971,1.0263170723803325,1.0480158143086806,-0.00655303755775094,0.9999849200248718,0.9144653301152399,1.043213472032598,0.006396743468940258,0.9999833106994629,1.0124870480191959,1.3170585724007626,-0.02837238274514675,0.9897276163101196,0.9232736633429003,1.3084867211375482,-0.04567589983344078,0.9707360863685608,1.001225411666575,1.5684310103601757,0.22095432877540588,0.9898912310600281,0.9322174270187408,1.5764075988711312,0.1330903023481369,0.9518947005271912,1.0822306290921848,1.043346929919111,-0.4665798246860504,0.9910873174667358,0.8285421782998491,1.075827468484805,-0.31279638409614563,0.9970361590385437,0.010724097490310669,0.9703912012477861,1.0456146431706392,179.62249593551527,179.98984966912653,1.0,0.003431286967254878,0.002324864611394834,0.027276883878434962,0.02475782469936691,95.30394758491614,0.9057845439041728,86,2.8666666666666667
0.9640259595224806,0.5642935017001419,-0.5475627183914185,0.9999969005584717,1.069423599679093,0.6925212431506751,-0.29449883103370667,0.9999974966049194,0.8843758744915434,0.7120715997567227,-0.22902056574821472,0.9999955296516418,1.021523352559597,1.043720748967774,-0.006827282253652811,0.9999858140945435,0.9106809727523509,1.0383775337713244,0.006688008550554514,0.9999844431877136,1.0078241699660713,1.314712850982238,-0.006365387700498104,0.9890539050102234,0.9232565432650949,1.306271064571404,-0.06631238013505936,0.9730124473571777,0.9964683512658613,1.564293501700142,0.2618972957134247,0.9889612197875977,0.9280106922638423,1.5923761753629093,0.09288319945335388,0.9562240242958069,1.0708892538160153,1.0387047678407773,-0.48782914876937866,0.9916849732398987,0.8248661658089533,1.0730992336474252,-0.32659879326820374,0.995904803276062,0.010387539863586426,0.9661021626559739,1.0410491413695493,179.71118745001044,178.26435488080455,1.0,0.0024441763475358605,0.0030533816808267604,-0.0072740993991411585,0.005541599989825679,95.00683567554167,0.8873233978695875,87,2.9
0.9620293165633079,0.5627749152182897,-0.552580714225769,0.9999967813491821,1.0675089678050382,0.6917057118760574,-0.2988050580024719,0.9999976754188538,0.8828532857745391,0.7108343604262845,-0.23201945424079895,0.9999955296516418,1.0196150911192372,1.0442261288303503,-0.0065377699211239815,0.9999865889549255,0.9094016952366758,1.0378519842831122,0.006402919534593821,0.99998539686203,1.0063957007614495,1.316622321521405,0.0040208627469837666,0.988365650177002,0.9231912334628143,1.3073213469957552,-0.06228164583444595,0.9749850630760193,0.994630598995682,1.5627749152182897,0.2851785719394684,0.9880231022834778,0.9264801518498116,1.5903538796902332,0.11741098016500473,0.9600260853767395,1.0674603683402706,1.0375468378741453,-0.49918779730796814,0.9922834038734436,0.823528568618665,1.0714386936508662,-0.3266470730304718,0.9945767521858215,0.01018175482749939,0.9645083931779566,1.0410390565567313,179.9580398064058,177.73632534303098,1.0,0.0010368603466550305,0.0137138206327704,-0.01035071297202609,0.0786924587828021,94.42691723120895,0.8930592499992355,88,2.933333333333333
0.9614733438109865,0.5616983833709968,-0.5441300272941589,0.9999963641166687,1.067684691037664,0.6920096955626481,-0.2981507182121277,0.9999978542327881,0.8829407312195235,0.71102790167971,-0.23613028228282928,0.9999954104423523,1.0198170786343688,1.047193008944236,-0.004700719378888607,0.9999873638153076,0.909582919663162,1.0406921523333685,0.004599437583237886,0.9999863505363464,1.0065775797338055,1.3185214770982039,0.04176602512598038,0.9880486130714417,0.9267391619908497,1.3155782212959197,-0.05405837297439575,0.9770689010620117,0.9948431980975354,1.5616983833709968,0.3362579345703125,0.9872943162918091,0.9267939882224966,1.6058095868734241,0.0980445146560669,0.9637070894241333,1.0630950802221453,1.0405439703017672,-0.5009173154830933,0.9928563833236694,0.8240402217331855,1.0717799137296085,-0.33667653799057007,0.9931526184082031,0.010120779275894165,0.9646999991487654,1.0439425806388023,179.9690992194991,176.43950053389858,1.0,-0.00011960105736459977,0.01878463240874215,-0.008112550054901196,0.03554392128177204,94.30043088747613,0.8933506094893252,89,2.966666666666667
0.9579443635249365,0.5603985778587457,-0.5498179197311401,0.9999955296516418,1.0655957790536341,0.6919185279364587,-0.31148621439933777,0.9999979734420776,0.8811999146348566,0.7091859646557451,-0.23738130927085876,0.9999951124191284,1.0168819744166167,1.0464385932727662,-0.004661042243242264,0.9999879598617554,0.9076989946342708,1.0402111635830242,0.004561122972518206,0.9999871253967285,1.0041058219229002,1.3181128266493969,0.04697374254465103,0.9875150918960571,0.9280683520357451,1.3172434124011765,-0.05315747857093811,0.9789396524429321,0.9923827595948308,1.5603985778587457,0.3386436998844147,0.9864607453346252,0.925204662260457,1.6115106779653627,0.07706107199192047,0.9670376181602478,1.0560992981299377,1.0394659513702638,-0.5246737003326416,0.9933159351348877,0.8228758796852311,1.070013727063847,-0.3283312916755676,0.9903607368469238,0.00920647382736206,0.9622904845254437,1.0433248784278952,179.92238039205927,175.2372172431189,1.0,-0.004437840454082025,0.010229054394565201,-0.032623789414833494,-0.06436497368186964,94.5594674314188,0.8899883589675605,90,3.0
0.9577995460407595,0.5605635194928483,-0.5093854665756226,0.9999944567680359,1.0655974512717226,0.6926738094163922,-0.2965491712093353,0.9999980330467224,0.8812737424758249,0.7086646888619316,-0.22251436114311218,0.9999946355819702,1.0162163999470244,1.0496333502892996,-0.002260262379422784,0.9999882578849792,0.9076803818798918,1.0441709910530304,0.002170948311686516,0.9999876022338867,1.004175819003082,1.3226415148134936,0.08083216845989227,0.9853809475898743,0.9298791687540171,1.322653590279116,-0.0664842277765274,0.9804301261901855,0.9922024357891308,1.5605635194928484,0.34576332569122314,0.9848867058753967,0.9262849846784145,1.6242307411277892,0.01997578702867031,0.9699483513832092,1.0513419168650033,1.0429344857352691,-0.48123979568481445,0.9937257170677185,0.8232662244921861,1.0708133815614014,-0.3049452602863312,0.9872608780860901,0.008524566888809204,0.9619483909134581,1.046902170671165,179.64433105708102,174.75958086596006,1.0,-0.003687927636012958,0.02588891768123159,0.005681825481158779,0.11853182568805276,94.99506211104699,0.8915732182155537,91,3.033333333333333
0.9525122363086541,0.5565263251757201,-0.4998408854007721,0.9999933242797852,1.0600954073005715,0.6894173459455012,-0.2711314558982849,0.9999980926513672,0.8760355366801115,0.705067649936188,-0.22646906971931458,0.9999940991401672,1.0105932397847008,1.046758054764438,0.0030912216752767563,0.9999886155128479,0.9029961065317181,1.0435447321640599,-0.0032039680518209934,0.9999880194664001,0.9953348803815268,1.323064526061061,0.08670724928379059,0.9829185605049133,0.9252136796114998,1.3237672004904482,-0.06583067774772644,0.9814733862876892,0.9840801854321773,1.55652632517572,0.3398023545742035,0.9840083122253418,0.9247732843092945,1.6224223009906362,0.024581193923950195,0.9725291132926941,1.041332464743483,1.0391234236621163,-0.4626499116420746,0.9940782189369202,0.8192728265306991,1.0683949980394427,-0.3113552927970886,0.9848587512969971,0.008384764194488525,0.9567946731582095,1.045151393464249,179.5991594486187,175.38227164032998,1.0,-0.002791191130396005,0.026594715183493055,0.006746415048141432,0.006411139700582722,96.17635515994695,0.897697887265216,92,3.066666666666667
0.9436128694854303,0.5506536729069123,-0.507735550403595,0.9999929070472717,1.0510433125141299,0.6845606360471543,-0.27182838320732117,0.999998152256012,0.8669350268440151,0.6991001032107859,-0.22896406054496765,0.9999939799308777,1.000816122481138,1.0425026241175472,0.002965320600196719,0.9999887347221375,0.8949157229578282,1.0394919556201894,-0.0030820826068520546,0.999988317489624,0.9816440557663656,1.3171920113869962,0.0865458995103836,0.9781680703163147,0.9169869907418056,1.318218217704767,-0.06989417970180511,0.9821423888206482,0.9703673687349693,1.5506536729069123,0.3513199985027313,0.9805930256843567,0.9193171618969804,1.618389356884785,0.018265869468450546,0.9746151566505432,1.0283711354625984,1.0353284458644179,-0.4652116298675537,0.9943700432777405,0.8121991696255726,1.0633356161818495,-0.3201916217803955,0.9844136834144592,0.007856279611587524,0.9478659227194831,1.0409972898688684,178.77284731762788,175.91718093683897,1.0,-0.006265508156187745,0.03640777464836581,-0.027020889229773082,0.07754562729837078,96.35927553228893,0.9021728591160082,93,3.1
0.9431458466760838,0.5504859314480604,-0.5225743055343628,0.9999924302101135,1.0518996902301228,0.6864017643153117,-0.28229907155036926,0.9999982118606567,0.8655140738517754,0.7000021917028973,-0.2303534746170044,0.9999939799308777,1.0011374220351381,1.0483539897190917,0.0026724052149802446,0.9999889731407166,0.894330605629342,1.04567978094454,-0.0027797031216323376,0.9999887347221375,0.9828322311055198,1.3262367428887936,0.08413078635931015,0.9764808416366577,0.9177878993598737,1.3291828994838126,-0.06546609103679657,0.9831834435462952,0.9716060749146133,1.5504859314480604,0.3811883330345154,0.9780422449111938,0.9212399694398222,1.6263697522034204,0.05471038818359375,0.9766292572021484,1.0286093413248232,1.0424282213160607,-0.49441805481910706,0.9946692585945129,0.8119124186689143,1.0676774115867327,-0.3218066692352295,0.9845322370529175,0.007341951131820679,0.94773401383224,1.0470168853318158,179.09705086562573,175.9355794302273,1.0,-0.007685805043349893,0.03773287194472517,-0.010594210071345757,0.009668144501627117,96.54915958069083,0.9171388040431844,94,3.1333333333333333
0.9500464373678783,0.5547490111467492,-0.5379593968391418,0.9999922513961792,1.059343216226276,0.6919916911394118,-0.28791138529777527,0.9999982714653015,0.8702190214226309,0.7058568406739696,-0.24717028439044952,0.9999940395355225,1.0079995378524653,1.0608866019956937,0.004625006578862667,0.9999892711639404,0.8993167295626606,1.058783452268797,-0.0047292024828493595,0.9999892115592957,0.9910844038118712,1.344254499927873,0.10346299409866333,0.9739677309989929,0.9254674680192125,1.350233144081395,-0.06289245188236237,0.9840448498725891,0.9799226281324075,1.5547490111467492,0.42380911111831665,0.9747166037559509,0.9286599257536389,1.648811728752344,0.067827507853508,0.9783883094787598,1.0374598848816314,1.052792341707791,-0.491023451089859,0.9949387907981873,0.8149868256786623,1.0800126311421545,-0.35187652707099915,0.9845684170722961,0.007424741983413696,0.953658133707563,1.0598350271322454,179.61923447668514,175.48537844100375,1.0,-0.013360551013726121,0.033155471302841896,-0.04286773932379753,-0.037295056789919734,96.81505323259022,0.932006982555641,95,3.1666666666666665
0.9521335162811203,0.5567594913288805,-0.5332203507423401,0.999991774559021,1.0611350769832029,0.6948826870219729,-0.2686532437801361,0.9999983310699463,0.8699334860927244,0.708946602626748,-0.2454719990491867,0.9999940395355225,1.010983905965046,1.0671725327159198,0.007900604046881199,0.9999891519546509,0.9009232934310967,1.06552691878707,-0.008030598983168602,0.9999892711639404,0.9942819692263827,1.347992879471321,0.09144414961338043,0.971977174282074,0.929199161741314,1.3562821750258842,-0.06366214156150818,0.9847126603126526,0.9838992614792158,1.5567594913288805,0.3863353729248047,0.9728559851646423,0.9321559933406767,1.6582757375906643,0.05748225003480911,0.9799346327781677,1.0432620271206203,1.059301092826636,-0.459401935338974,0.9951415657997131,0.8124320775057458,1.087708574498805,-0.3480420708656311,0.9850050806999207,0.007502943277359009,0.9559535996980714,1.066349725751495,179.44349061161813,175.006435459483,1.0,-0.010255446695636383,0.02002551231520862,0.02501498093137792,-0.1050796900303221,96.81551342648027,0.9416653420281383,96,3.2
0.9546194033431832,0.5592808047654416,-0.5578591227531433,0.9999919533729553,1.0648057560011461,0.699175784533737,-0.2766421437263489,0.9999983906745911,0.86994406388051,0.713562862075563,-0.2793132960796356,0.9999942183494568,1.0175615596316185,1.0734995918330148,0.012159675359725952,0.9999891519546509,0.9013119118658596,1.0716561881023388,-0.012293298728764057,0.9999895095825195,1.0045835878223965,1.3567817123188683,0.08887900412082672,0.971950352191925,0.9332147002221501,1.370675197809518,-0.06497972458600998,0.9855926632881165,0.9918484178473299,1.5592808047654416,0.4039197564125061,0.9714502692222595,0.9387971734401122,1.6766241859092466,0.06619913876056671,0.9814563989639282,1.055328383573792,1.071195674706974,-0.4306129813194275,0.9953577518463135,0.8089898898013835,1.0974056714030465,-0.38830989599227905,0.9858465790748596,0.007621705532073975,0.959436735748739,1.0725778899676768,179.0244581821627,174.9553914554178,1.0,-0.023606495359340476,-0.009288465683875103,-0.09660607447222616,-0.21428958251836785,96.28490695320704,0.9411659710473754,97,3.2333333333333334
0.9533096427712614,0.5587441095859589,-0.5812633037567139,0.9999919533729553,1.0628324893512002,0.6988063500456327,-0.30353766679763794,0.9999984502792358,0.8676506265530232,0.7132073242930449,-0.2849104702472687,0.9999943971633911,1.0171167732835709,1.072529176094376,0.010639702901244164,0.9999892115592957,0.8988697436272435,1.0705544688396922,-0.010771887376904488,0.9999897480010986,1.0073774491536507,1.3567641710951706,0.07900965958833694,0.9720470309257507,0.9323943733274459,1.3697928739876786,-0.0636434555053711,0.9863705635070801,0.9930040373330258,1.5587441095859589,0.39243289828300476,0.9700986742973328,0.9387738376319937,1.6779256180100772,0.07305721938610077,0.9827992916107178,1.0580268396162074,1.0725724884793275,-0.4819289743900299,0.9955875277519226,0.8059535966857588,1.098799093814907,-0.39024561643600464,0.9865789413452148,0.0076299309730529785,0.9579932584554073,1.071541822467034,177.89202132095778,174.7936880460637,1.0,-0.009834258858543153,-0.006738507186598834,0.10144141263753127,0.01877799029316314,96.01732771604279,0.9377659120403135,98,3.2666666666666666
0.9522627659156307,0.55690706823587,-0.6194955110549927,0.9999924898147583,1.0603367692481325,0.6980799173954371,-0.3192620575428009,0.9999985098838806,0.864188945903897,0.7128194132419564,-0.31994473934173584,0.999994695186615,1.0168611806858412,1.068960043214216,0.010515790432691574,0.9999894499778748,0.8969999893718942,1.067621801607903,-0.010653456673026085,0.9999901652336121,1.0099124238452633,1.3550467223343234,0.0516938641667366,0.9732097387313843,0.9271262270893323,1.373499026066245,-0.05490180104970932,0.9871013760566711,0.993757028116176,1.5569070682358699,0.37622159719467163,0.9698267579078674,0.9384852542341333,1.6779050732448006,0.0921294093132019,0.9841029644012451,1.0638356091819412,1.0742289969930332,-0.4613334536552429,0.9958258867263794,0.8013754905869003,1.0998246250064037,-0.42768535017967224,0.9875660538673401,0.0078115761280059814,0.9569305850288676,1.0682909224110595,176.81560944291445,176.51202953371612,1.0,-0.006297442706434783,-0.02365351093432076,0.02846250999152651,-0.13625033658967217,96.04617976961062,0.9311922782461104,99,3.3
0.9453858092030412,0.550237200658718,-0.6431570649147034,0.9999930262565613,1.0530984594649784,0.6935912879779939,-0.3329814374446869,0.9999985694885254,0.8561064492053314,0.7054231399860751,-0.33986252546310425,0.9999949932098389,1.0110602313654173,1.060575687150548,0.010739917866885662,0.9999896883964539,0.8890361429345606,1.0595589371674903,-0.010878371074795723,0.9999905824661255,1.0040838861231072,1.3463678698059027,0.053473759442567825,0.973743200302124,0.9171712208313418,1.3694212107108101,-0.05196479707956314,0.9876371026039124,0.9894522813020215,1.550237200658718,0.37899261713027954,0.9696187973022461,0.9343724901361161,1.6666948848708452,0.09680727869272232,0.9852510094642639,1.0654421531660265,1.0700633780120323,-0.4600258469581604,0.9959473609924316,0.7930318853778783,1.0932476707680354,-0.4471721053123474,0.9883745312690735,0.006306350231170654,0.950048187149989,1.0600673121590192,177.29329167959156,178.12348341357946,1.0,-0.010930641073186517,-0.016256266204599735,-0.03502901888682247,0.0544925798092277,96.05737533967508,0.9294886802916072,100,3.3333333333333335
0.9388425980040187,0.5433314965407072,-0.6534460783004761,0.999993622303009,1.0459828232059267,0.6883828432436645,-0.330431193113327,0.9999986290931702,0.8481358781260262,0.6979677837705457,-0.34582048654556274,0.9999953508377075,1.0065228402380038,1.0546000523207597,0.012032012455165386,0.9999901056289673,0.8821132020861512,1.0540207390585603,-0.012187966145575047,0.9999910593032837,1.000314815124039,1.3472448667212138,0.03993263095617294,0.9748690724372864,0.9088368649846099,1.3706148802466869,-0.04127116873860359,0.9881754517555237,0.9865613572227695,1.5433314965407072,0.38799381256103516,0.9682381749153137,0.9302761311581256,1.659027279153517,0.13404741883277893,0.9862295389175415,1.0711091444442589,1.0665670345817957,-0.4228055477142334,0.9960928559303284,0.786674180818319,1.0898689197989546,-0.4564337134361267,0.9891656637191772,0.005132079124450684,0.9443180211620774,1.05431039568966,177.20312439336257,179.426398166089,1.0,-0.010281765834578554,-0.006834512378607255,0.004363839214983614,0.0680794532734661,95.88310966985009,0.9341116673238035,101,3.3666666666666667
0.9344380350622369,0.539672191842042,-0.6173626184463501,0.999994158744812,1.0412792536246394,0.6809852356546152,-0.30181166529655457,0.9999986886978149,0.8435447629431087,0.6908989501151933,-0.3178607225418091,0.9999956488609314,1.0044249478924412,1.0522473419533684,0.011522489599883556,0.9999904632568359,0.8782834317852665,1.0510896307791389,-0.011678732000291348,0.9999915361404419,1.0005589103758878,1.3550767618399553,2.843800393748097e-05,0.9762527346611023,0.9049825137721962,1.3722086426878188,-0.03443053737282753,0.9887100458145142,0.989835609235644,1.539672191842042,0.3830864727497101,0.9635646343231201,0.9288360419189449,1.6544056027042817,0.15332765877246857,0.9869035482406616,1.0788053629617316,1.0671923609507654,-0.3445703089237213,0.9960459470748901,0.7837009622814388,1.0895035520254446,-0.4241302013397217,0.9899458289146423,0.0053179264068603516,0.9413541898388538,1.0516684863662535,177.40679748659628,179.92125284598396,1.0,-0.009394143128567805,-0.0053580111413211225,0.006679957625547919,0.011257351895816448,95.1432045367439,0.9383771988447605,102,3.4
0.9356299734149806,0.53926304780303,-0.607582688331604,0.9999946355819702,1.0404989711126384,0.6801493955363317,-0.2978105843067169,0.9999987483024597,0.840643573304591,0.6889071052309487,-0.3089049458503723,0.9999959468841553,1.0062797934362588,1.0544448858389972,0.009787309914827347,0.9999909996986389,0.8783645986570839,1.0534530288445958,-0.009986935183405876,0.9999921321868896,1.0059133876972535,1.3610899601820536,-0.026965901255607605,0.9779459834098816,0.9049798549233738,1.3760919921190469,-0.02961779199540615,0.9893684387207031,0.9965969927777977,1.53926304780303,0.37016838788986206,0.9606537818908691,0.9317275852402859,1.6620875972548304,0.1495186686515808,0.9877763390541077,1.088140181267267,1.068998432696667,-0.38487809896469116,0.9961436986923218,0.7855145444702414,1.0955902456778321,-0.4236540198326111,0.9906226396560669,0.004687100648880005,0.9423221960466714,1.0539489573417966,177.07528013289644,179.37274382115237,1.0,-0.009319362700251974,-0.000982230131178027,0.0007570482750157606,0.03450783958042285,94.77936138894034,0.940721884589395,103,3.433333333333333
0.9382331692558288,0.5369783871347995,-0.5882216691970825,0.9999951124191284,1.0405812755180408,0.6815275393911033,-0.2774706482887268,0.9999988079071045,0.8379265620702342,0.6895747640641688,-0.2924388349056244,0.9999962449073792,1.0083121166712508,1.0569070169923807,0.0074131241999566555,0.9999915957450867,0.8790778632893849,1.056809231324277,-0.007659516297280788,0.9999927282333374,1.0144037396097145,1.3649883550218076,-0.07665431499481201,0.9798503518104553,0.9060035265351903,1.3809152515279568,-0.02872680500149727,0.9901126623153687,1.0034867958092366,1.5369783871347995,0.3211487829685211,0.9603036046028137,0.9339636974055989,1.6652747464716788,0.16709239780902863,0.9886894822120667,1.0988954684603267,1.071094310928062,-0.39337024092674255,0.9961446523666382,0.787767314314393,1.1056146610632651,-0.41614779829978943,0.9912540912628174,0.00429689884185791,0.9436949899803179,1.0568581241583288,175.23531503136996,179.13337788342525,1.0,-0.006099790762099911,0.0035257156377964537,0.024414700145759288,0.03397419059737302,94.8699479518599,0.9542308100126589,104,3.466666666666667
0.9440232016542128,0.5374796276617398,-0.5941900014877319,0.9999955892562866,1.0450310305279753,0.685176911209594,-0.2822789251804352,0.9999988675117493,0.8398551300390391,0.6939422176615012,-0.29495102167129517,0.999996542930603,1.0142414471273775,1.0640028187876125,0.0057902769185602665,0.9999921917915344,0.8825600431240814,1.0648975311744153,-0.006050098221749067,0.9999933242797852,1.0285490964578452,1.378695300008563,-0.10874249786138535,0.981615424156189,0.9106709921767413,1.395765248896981,-0.021413635462522507,0.9907351732254028,1.0121378005314705,1.53747962766174,0.3213525116443634,0.9582265615463257,0.9397210130228549,1.6769934429497322,0.19298028945922852,0.989474892616272,1.1110062706794148,1.0764702827069907,-0.3998452126979828,0.9961376786231995,0.7932706218599226,1.1167023554002664,-0.4312777519226074,0.9916926622390747,0.004652202129364014,0.9484007451257295,1.0644501749810138,171.49590780447758,178.95869737230822,1.0,-0.007182060095025698,0.00864761366392748,-0.007514445766411663,0.0366637362848874,95.03586924301558,0.9696456574536841,105,3.5
0.9510190027343394,0.5398137247179069,-0.593998372554779,0.9999959468841553,1.0497234925917005,0.6898536515134096,-0.27880895137786865,0.999998927116394,0.8430791829701317,0.6987559046898392,-0.29891806840896606,0.9999967217445374,1.021362772415343,1.0716468404957742,0.005742778070271015,0.9999926090240479,0.8875081127369163,1.0735526727484932,-0.006005734670907259,0.9999938011169434,1.040525824671689,1.3861616401580379,-0.16986072063446045,0.9832421541213989,0.9161303179389868,1.407242965563655,-0.025006849318742752,0.9911792278289795,1.0213462599526466,1.539813724717907,0.25122538208961487,0.9560739398002625,0.9463708575843636,1.6878194518280851,0.18267235159873962,0.9901307225227356,1.1211765378489114,1.0832724059274539,-0.3995651304721832,0.9960052371025085,0.7995048296974153,1.1253538516139208,-0.4500886797904968,0.9921228885650635,0.004691600799560547,0.9544354425761297,1.0725997566221337,169.39821657572418,178.75093854680523,1.0,-0.005162598487991893,0.004444554357053885,0.015400912187559835,-0.0317210701093634,95.0640226934779,0.9829877516791208,106,3.533333333333333
0.9464240654565869,0.5344051581569638,-0.5578932166099548,0.9999961853027344,1.042543450030692,0.6865317566595693,-0.24797455966472626,0.999998927116394,0.8365032705558583,0.6956430892667378,-0.2785884737968445,0.9999967813491821,1.0160891899794644,1.0683598959778882,0.006027574650943279,0.9999930262565613,0.8835677499939787,1.075972584910761,-0.006301086395978928,0.9999942183494568,1.0380210137631438,1.3780209507358103,-0.1703951060771942,0.9847224354743958,0.9113463156134236,1.4016973936171768,-0.02653767727315426,0.9915779232978821,1.0183502955644288,1.5344051581569638,0.23293337225914001,0.9564059376716614,0.9415012930732736,1.6793609343532057,0.18309974670410156,0.990790843963623,1.1187341545344678,1.0768748887173645,-0.3684481680393219,0.9955987334251404,0.8017708204605632,1.1189314525977052,-0.44276103377342224,0.9919012188911438,0.00482526421546936,0.9498284699867215,1.0721662404443246,168.77950430650483,178.67634435427595,1.0,0.0002720203111478612,0.03561099771559714,0.04025951414048254,0.23211313970589545,97.25103982601541,1.0041205039016992,107,3.566666666666667
0.9420703495609027,0.5290056615772839,-0.49873265624046326,0.999995768070221,1.0342627124449892,0.6811712853296813,-0.2033500373363495,0.9999986886978149,0.8295896551030687,0.6909656812706034,-0.2431480586528778,0.9999964237213135,1.011094325320351,1.0635186857706131,0.006514695938676596,0.9999931454658508,0.8794691654409691,1.0733764368838241,-0.006803850177675486,0.9999943375587463,1.0335470398710176,1.36451378770438,-0.20593169331550598,0.9860236048698425,0.905752767279423,1.399323729749802,-0.035659585148096085,0.9915937781333923,1.014343980718069,1.5290056615772838,0.15272240340709686,0.957364559173584,0.9366963633066784,1.6708631019084472,0.17138680815696716,0.9912236332893372,1.114306566996078,1.0700021997856903,-0.31340211629867554,0.9937828183174133,0.8054670192074845,1.1111184182112455,-0.3967532515525818,0.9913488030433655,0.005210846662521362,0.9452817453806601,1.0684475613272186,169.07525947408018,178.10905300334957,1.0,-0.0016133170885242467,0.00950885096283388,-0.01510027756809102,-0.20789289994324425,97.75063919955137,1.01334326044551,108,3.6
