nose_x,nose_y,nose_z,nose_visibility,left_shoulder_x,left_shoulder_y,left_shoulder_z,left_shoulder_visibility,right_shoulder_x,right_shoulder_y,right_shoulder_z,right_shoulder_visibility,left_hip_x,left_hip_y,left_hip_z,left_hip_visibility,right_hip_x,right_hip_y,right_hip_z,right_hip_visibility,left_knee_x,left_knee_y,left_knee_z,left_knee_visibility,right_knee_x,right_knee_y,right_knee_z,right_knee_visibility,left_ankle_x,left_ankle_y,left_ankle_z,left_ankle_visibility,right_ankle_x,right_ankle_y,right_ankle_z,right_ankle_visibility,left_wrist_x,left_wrist_y,left_wrist_z,left_wrist_visibility,right_wrist_x,right_wrist_y,right_wrist_z,right_wrist_visibility,trunk_lateral_inclination,center_mass_x,center_mass_y,left_knee_angle,right_knee_angle,person_height,center_mass_velocity_x,center_mass_velocity_y,center_mass_acceleration_x,center_mass_acceleration_y,body_orientation,torso_leg_ratio,frame,timestamp
0.9585982529436559,0.5923001109011415,-0.6018244028091431,0.9999917149543762,1.0364637970179198,0.723757356976863,-0.32570067048072815,0.9999393224716187,0.8629062212841139,0.7241811668313535,-0.32802239060401917,0.9999938607215881,1.0083813762677094,1.0729117905654897,0.003358224406838417,0.9999548196792603,0.8977421455022054,1.0779746687673362,-0.0035046301782131195,0.9999890327453613,1.0141502197143795,1.3487467155889814,-0.013127123937010765,0.45015066862106323,0.8980690004893308,1.3574908795519474,0.0032414309680461884,0.9849919676780701,1.0310440141645236,1.5923001109011417,0.19264523684978485,0.7270219326019287,0.9033014487744928,1.6008597087870295,0.1971963495016098,0.9860111474990845,1.09308913088065,1.0607271995719914,-0.4213760495185852,0.23510313034057617,0.8106536038487564,1.0997343171320462,-0.44098082184791565,0.9690020680427551,0.00021898746490478516,0.9530617608849574,1.075443229666413,177.23021709788844,178.83532549755873,1.0,-0.7255383018573985,-0.11592537123753606,-4.301402779289822,-0.6853896311737178,97.21843054781436,0.9268125534474905,0,0.0
0.9624223008679311,0.6086003657533781,-0.6057087182998657,0.999992311000824,1.0472185499602926,0.7467728540141961,-0.3264133930206299,0.9999451041221619,0.8683167016036608,0.7448694818806622,-0.31572720408439636,0.9999940395355225,1.0149548321557982,1.0862081181296606,-0.010891149751842022,0.9999588131904602,0.9025450241469958,1.0924575975938635,0.010728939436376095,0.9999896287918091,1.0219803938359178,1.3648666783188483,-0.03591956943273544,0.5044650435447693,0.9026743516323416,1.3718393359664136,0.03314432129263878,0.9850367307662964,1.0422405268350132,1.608600365753378,0.17166969180107117,0.7537726759910583,0.9084212427872801,1.6136011458239246,0.23753759264945984,0.9868494272232056,1.099813017676516,1.093541250482412,-0.3715401291847229,0.30953553318977356,0.81843887355467,1.1172951610992308,-0.39572420716285706,0.9714015126228333,0.0009671449661254883,0.958749928151397,1.089332857861762,176.6925062261141,178.66480785822182,1.0,-0.0807834563919136,-0.033253708744096805,5.09211678702233,0.655920393137898,98.61182959994898,0.9209116691802746,1,0.03333333333333333
0.9736838067442806,0.6181408473867073,-0.5561749935150146,0.999992847442627,1.0596072612631624,0.7543779505924008,-0.2794029116630554,0.9999504089355469,0.8766692735188233,0.7550337612137248,-0.291449636220932,0.9999942183494568,1.0275326123602944,1.0949024320265917,1.9157466795149958e-06,0.9999620914459229,0.9116564443346227,1.100193585579702,-0.0001808585657272488,0.9999898076057434,1.0360762785359818,1.3689456075883983,-0.04426873102784157,0.5533614754676819,0.9088933903708872,1.381145936346796,-0.0040869941003620625,0.9854106307029724,1.0519119427024126,1.6181408473867072,0.18162241578102112,0.7773168087005615,0.9137136280586945,1.6285799069696791,0.1921224147081375,0.9873881340026855,1.1138170293105878,1.109689273136119,-0.3350924253463745,0.37809091806411743,0.8271854888955622,1.1265536180278133,-0.3720704913139343,0.973985493183136,0.0003299117088317871,0.9695945283474585,1.0975480088031468,178.1495967802427,178.32050462285633,1.0,0.009082068232326402,-0.020853387437855343,0.6883408077723481,0.09667117774430369,97.99535432305069,0.9114874492478976,2,0.06666666666666667
0.9763621349689573,0.6229273436806632,-0.588411808013916,0.9999934434890747,1.0649011756324833,0.757665916603831,-0.30552467703819275,0.9999552369117737,0.883008816351354,0.7652656266990328,-0.2976999878883362,0.9999945163726807,1.0336829925294313,1.0971158469947955,-0.0023577807005494833,0.9999650716781616,0.9170578779320917,1.1020214340151315,0.0021840992849320173,0.9999900460243225,1.040556691449593,1.3757360343526717,-0.02055996283888817,0.5969571471214294,0.9136561244649051,1.3851719786930443,-0.0021669988054782152,0.985385000705719,1.0548794256344463,1.622927343680663,0.20267578959465027,0.7982856035232544,0.914858191963898,1.6372277116056382,0.18277457356452942,0.987872838973999,1.1190669034317695,1.1160053431567216,-0.37096208333969116,0.43989449739456177,0.8305023557144248,1.130560662650416,-0.37372732162475586,0.9764020442962646,0.0038075149059295654,0.9753704352307615,1.0995686405049636,178.0971101486524,179.03844047811938,1.0,0.013744255116113322,-0.018828112683028832,0.035204404748261406,0.016065882549698665,97.6631436822646,0.8983151249095894,3,0.1
0.9783373750252693,0.6275086440942481,-0.5824100375175476,0.9999939799308777,1.0695374799114439,0.7623948436695689,-0.3071993887424469,0.9999595284461975,0.8871281355849631,0.7683770810812877,-0.2967398464679718,0.9999948143959045,1.037962848753396,1.102229273010091,-0.004286307841539383,0.999967634677887,0.9199413645208903,1.1060136053512009,0.004108084365725517,0.9999902248382568,1.044617341586831,1.3801808593955696,-0.028627121821045876,0.6359277367591858,0.9179686590462595,1.3882728802968622,-0.0030997339636087418,0.9849244356155396,1.056823374619528,1.6275086440942481,0.19027863442897797,0.8167579174041748,0.9215922112940582,1.6407769123368183,0.1831185668706894,0.9879885315895081,1.1227583774309406,1.1202147921745649,-0.39128512144088745,0.49548542499542236,0.8353838118745144,1.135454452426466,-0.38037699460983276,0.9785492420196533,0.0029861927032470703,0.9789521066371432,1.104121439180646,178.5461187088458,178.77740215839512,1.0,2.4215874755864652e-05,0.0038256679227946905,-0.10155237996322852,0.1675731638215557,97.14476191953325,0.899062277900411,4,0.13333333333333333
0.9729078709578076,0.6273711206987223,-0.5666040778160095,0.9999945163726807,1.0680254454597173,0.7618362439706893,-0.29516732692718506,0.9999634623527527,0.8854792226061783,0.7679163408794405,-0.28804102540016174,0.9999951124191284,1.035340790471593,1.0999701033546754,-0.004937950987368822,0.9999698400497437,0.9174859144014411,1.1038431401619926,0.004742002114653587,0.9999902844429016,1.04211482087607,1.3724188221460667,-0.058631740510463715,0.6711929440498352,0.9180601302163672,1.384904976995911,-0.003474385943263769,0.9840788245201111,1.0548598376499532,1.6273711206987223,0.12910309433937073,0.8332425951957703,0.9207133457564015,1.6372200303113964,0.16956274211406708,0.9876983165740967,1.1210930933386138,1.1173277964849482,-0.3743128478527069,0.5455487370491028,0.8339630181417277,1.1334525583978259,-0.37882232666015625,0.9805100560188293,0.0030407607555389404,0.9764133524365171,1.101906621758334,178.56245772750358,179.51458564493925,1.0,-0.005417132332300324,-0.0010735699834226074,-0.042253909776221114,-0.03798868551590308,97.40338499025181,0.8945088193524378,5,0.16666666666666666
0.9730238724581685,0.6247189621166881,-0.5593452453613281,0.9999949336051941,1.0662107409407662,0.7611948243825494,-0.29513221979141235,0.9999669790267944,0.8838451692413107,0.7659443348710616,-0.2815583348274231,0.9999953508377075,1.0333171154152698,1.0983107987542735,-0.006816688925027847,0.9999718070030212,0.9153959392553715,1.102248778897832,0.0066209048964083195,0.9999902844429016,1.037929705436611,1.369890463626263,-0.058501262217760086,0.7030836343765259,0.9160280217074256,1.3817704256549224,-0.0015145904617384076,0.9835456609725952,1.0528955526424104,1.6247189621166882,0.13408423960208893,0.8482929468154907,0.9200354137472432,1.634659792489954,0.17449121177196503,0.9876320958137512,1.1179470494888382,1.117032025828125,-0.3622201681137085,0.5905583500862122,0.8325430567880909,1.1304858000033309,-0.3723975419998169,0.9822149872779846,0.002379775047302246,0.9743565273353207,1.1002797888260527,177.61196642871815,179.22170554720893,1.0,-0.0017584076139961194,0.003429625294870448,0.02844903143210091,0.03509716126669495,97.48559830700994,0.8980505168465098,6,0.2
0.9718033518263074,0.6227919105086869,-0.5595130920410156,0.9999953508377075,1.0646876369319267,0.7594415547069068,-0.3019653856754303,0.9999701380729675,0.8813578729599556,0.7628819201810029,-0.277862012386322,0.9999955892562866,1.0317561507341897,1.0960913651981685,-0.009592991322278976,0.9999736547470093,0.9135985897399806,1.1005064454589113,0.009392322972416878,0.9999903440475464,1.0355806531349268,1.3676990970169047,-0.061050187796354294,0.7316946983337402,0.9149840483399619,1.380903477223139,0.0018201961647719145,0.9828013777732849,1.0509441109279116,1.6227919105086868,0.13468872010707855,0.8616093397140503,0.9176551897148228,1.6336908752513548,0.18381968140602112,0.9873436689376831,1.1162397864892368,1.1154516762516788,-0.39495545625686646,0.6310628652572632,0.8310530993875308,1.1282417492222534,-0.37492746114730835,0.9837702512741089,0.001726388931274414,0.9726773702370852,1.09829890532854,177.3601414252412,179.67769191176308,1.0,-0.0017389063830957328,-0.0026079079106479898,0.00012839927885032653,-0.045876633783773095,97.72688711693874,0.8970628112320644,7,0.23333333333333334
0.9715177970378471,0.6215423476430973,-0.5621682405471802,0.9999957084655762,1.0635328128110546,0.7584279780180853,-0.30448055267333984,0.999972939491272,0.881073663979797,0.7612354991961345,-0.27918723225593567,0.999995768070221,1.030871814985452,1.0937208897317354,-0.009863287210464478,0.9999752640724182,0.9136765710681427,1.0979197997738674,0.009662492200732231,0.9999903440475464,1.0348224598134035,1.365586608156616,-0.06559409946203232,0.7574331164360046,0.9137582185190778,1.3780442527997332,0.0004567590949591249,0.9821614623069763,1.049921067208135,1.6215423476430975,0.12232144922018051,0.8735825419425964,0.9156620994134853,1.6324765790192752,0.17274431884288788,0.9871975183486938,1.1150758517279917,1.1143562148930053,-0.38979238271713257,0.6675154566764832,0.8308227434433566,1.1270830113075192,-0.37097597122192383,0.9851579070091248,0.0014100968837738037,0.9722741930267974,1.0958203447528014,177.45662465977082,179.58797175002303,1.0,0.0038763697454239003,-0.012168181308767125,0.04590483037953978,-0.07819621272797111,97.61558296578565,0.8926837328796354,8,0.26666666666666666
0.9716989253172668,0.620429606488798,-0.565117359161377,0.9999960064888,1.0620203229646894,0.7569148171967011,-0.3062085807323456,0.9999755024909973,0.8808072310249432,0.7605613742810196,-0.2805963158607483,0.9999959468841553,1.0301301592784142,1.0905246095206835,-0.008502653799951077,0.9999765157699585,0.9145746458529522,1.0939247055575485,0.008310919627547264,0.9999902248382568,1.032583157645906,1.3631169265122474,-0.04319093003869057,0.7802354097366333,0.9132067870395851,1.3738856154135317,-0.001603395096026361,0.9814586639404297,1.0480597265171054,1.620429606488798,0.14069612324237823,0.8842852115631104,0.9143392044581011,1.6308158068029766,0.16549089550971985,0.9870394468307495,1.1140426810103836,1.1122450557455195,-0.4090782105922699,0.7003852128982544,0.8300489337745539,1.1251895928267985,-0.37255531549453735,0.9864351153373718,0.0018343329429626465,0.9723524025656832,1.0922246575391161,177.0735594060281,179.4675322500755,1.0,0.01156457412216737,-0.014009533727566638,0.0564841334644791,-0.013655204354021342,97.14576157247147,0.884384304990614,9,0.3
0.9739733439319602,0.6203903408873435,-0.5707201361656189,0.9999963045120239,1.062190026602032,0.7574434201712109,-0.307230681180954,0.9999778270721436,0.8816755855581384,0.7606355099741919,-0.28170305490493774,0.9999961256980896,1.030531013248402,1.0905814064960908,-0.00823175348341465,0.999977707862854,0.9150037285978896,1.093927368358809,0.008050313219428062,0.9999901652336121,1.033369440238687,1.3644683403348972,-0.034845925867557526,0.8007314205169678,0.9132887987184004,1.3739624300954552,-0.000965824699960649,0.9809376001358032,1.048096957528112,1.6203903408873435,0.15894272923469543,0.89385986328125,0.9139846298580052,1.6311965795254295,0.177237406373024,0.9869071245193481,1.1147489776128892,1.1120188594886802,-0.4250503480434418,0.7299566864967346,0.8296176519277734,1.1251154632947296,-0.37305060029029846,0.9875808954238892,0.001605600118637085,0.9727673709231458,1.09225438742745,177.30020161474198,179.49413847360702,1.0,0.0026466151799325083,-0.0004101748274348716,-0.06914134211979676,0.10543432264649706,97.08763787317861,0.8842972001633654,10,0.3333333333333333
0.9765412557062885,0.6207840165055107,-0.5785680413246155,0.9999966025352478,1.0640996122382322,0.7587282596104912,-0.31186288595199585,0.9999799132347107,0.8835429951273424,0.7614131110760863,-0.2855851948261261,0.9999963045120239,1.0326439342438076,1.0909902594319916,-0.007878085598349571,0.9999788403511047,0.9185239797042225,1.0947470576059795,0.007698618806898594,0.9999901652336121,1.0350619858643555,1.3650174369364922,-0.040802836418151855,0.819342315196991,0.9141067688354994,1.3757926851268105,-0.002415070543065667,0.9806914329528809,1.0496081555300676,1.6207840165055107,0.15872541069984436,0.9024110436439514,0.9158026331530614,1.6331059442245903,0.17082461714744568,0.9868753552436829,1.1170000398775568,1.1136446283031909,-0.41526636481285095,0.7565898895263672,0.8321861019118441,1.1256692545935147,-0.38007479906082153,0.9886268973350525,0.0013483762741088867,0.975583956974015,1.0928686585189855,177.25050559384988,178.7219414000874,1.0,0.008184054390256318,-0.006713146515229256,0.03453064153324897,-0.03932951469073367,97.29362840620864,0.8838472537734936,11,0.36666666666666664
0.9770183780314927,0.6193734610322567,-0.5606871843338013,0.9999967813491821,1.0639623249495034,0.7588110579812607,-0.28997349739074707,0.9999817609786987,0.8838819630298661,0.7608626890062934,-0.2707107663154602,0.9999963641166687,1.0316878818286133,1.0901334961820768,-0.007627766579389572,0.999979555606842,0.9181353763549006,1.094336800210657,0.007431302219629288,0.9999898076057434,1.0334822366517893,1.3587040106935866,-0.09738969057798386,0.8359932899475098,0.9130534453526915,1.3732345154071464,-0.01955575682222843,0.9791731834411621,1.0483131043671938,1.6193734610322565,0.08470052480697632,0.9090785980224609,0.9148680693445004,1.6320517667454892,0.1396016776561737,0.9859974980354309,1.1159724189954825,1.1119776147775753,-0.3809188902378082,0.7803913354873657,0.8309740989065495,1.1230030942486116,-0.3772549331188202,0.989446222782135,0.0010316669940948486,0.9749116290917569,1.092235148196367,177.12644476193478,178.55439466052792,1.0,0.0043602722653094264,0.0058141568810236065,-0.029632060308787875,0.09727668819681497,97.6835996752461,0.8863121567284428,12,0.4
0.9759474174664603,0.6175975981805948,-0.559317946434021,0.9999969601631165,1.0641241602936504,0.7575787833603785,-0.29438644647598267,0.9999834299087524,0.8839786490736536,0.7598973719860657,-0.27441534399986267,0.9999964833259583,1.031590525872686,1.0889499213740808,-0.007608664687722921,0.9999802112579346,0.9186555559711899,1.093136674623171,0.007416813634335995,0.9999895691871643,1.0325253480398446,1.356767416434214,-0.07663823664188385,0.8505997657775879,0.9132444307232496,1.3708972351424003,-0.025030359625816345,0.9777804017066956,1.0466484192662622,1.6175975981805948,0.10694416612386703,0.9151095151901245,0.913781743350416,1.6305565512365885,0.13081714510917664,0.9853254556655884,1.1148949357900164,1.110374714889301,-0.3805050551891327,0.8017515540122986,0.8307158628324556,1.121521673148195,-0.381372332572937,0.9902713298797607,0.0011674463748931885,0.975123040921938,1.091043297998626,177.1006453300151,178.7653853886679,1.0,0.011337700159137739,0.0018799025928212805,0.052896463775378315,-0.029743292124263982,97.73037412375231,0.8881670783271397,13,0.43333333333333335
0.9766566089538294,0.6166474414122747,-0.5650855302810669,0.9999971389770508,1.066273823864644,0.7570416315005626,-0.30080732703208923,0.9999849200248718,0.8841465542976282,0.7601781541555006,-0.28171607851982117,0.9999966025352478,1.0327469837806218,1.0885526773350755,-0.007245544344186783,0.9999810457229614,0.9194761391303401,1.0927451592647366,0.007056607399135828,0.9999896287918091,1.0322024687285432,1.3563248759962219,-0.06390701234340668,0.8638676404953003,0.9135952700786376,1.3705390616190603,-0.01901702582836151,0.9764909744262695,1.0461720840313802,1.6166474414122747,0.11770510673522949,0.9210915565490723,0.9136748412156482,1.6299664073732212,0.1347905844449997,0.9848472476005554,1.1147133007562986,1.1100088421577232,-0.3883120119571686,0.8209850192070007,0.8324663727642138,1.1210368693011241,-0.38975030183792114,0.9910558462142944,0.0015800297260284424,0.976111561455481,1.0906489182999062,176.81178836963898,178.76966157674718,1.0,0.010958131368323768,0.0008866426174664849,-0.002837111643397043,-0.007522915500389317,97.89459720139683,0.8898540549428781,14,0.4666666666666667
0.97736040499833,0.6164703248852988,-0.5642923712730408,0.9999972581863403,1.0689055123392384,0.7568858246443552,-0.29734373092651367,0.9999862313270569,0.8849491308931668,0.7600864179112071,-0.2825784385204315,0.9999966621398926,1.0362882583114918,1.0898193993196787,-0.006440908648073673,0.9999819397926331,0.9199089749949806,1.0949161891075951,0.00625808397307992,0.9999898076057434,1.0334818827278112,1.3576905516598492,-0.034243591129779816,0.8761134147644043,0.9148200529969595,1.370674061363792,-0.0024720137007534504,0.9765344858169556,1.0461651149768054,1.616470324885299,0.17486684024333954,0.9273883104324341,0.9146181524938587,1.628495147348324,0.186306431889534,0.9851064085960388,1.116892523505466,1.1100941614728408,-0.3986615538597107,0.8381345272064209,0.8346543135660929,1.1210118143442942,-0.39223426580429077,0.991726815700531,0.0016124248504638672,0.9780986166532362,1.092367794213637,176.59384042067055,178.98763427257464,1.0,0.01458120012388637,0.0127424241689323,0.0256588408864657,0.08394518238642036,98.10301511355078,0.8977143830313142,15,0.5
0.9798766951285665,0.6160966333052303,-0.5595963597297668,0.9999973177909851,1.0714877191567365,0.7561406877395228,-0.29372796416282654,0.9999874234199524,0.8852188555911871,0.7597625325368472,-0.2812317907810211,0.9999967217445374,1.0397180014740004,1.0895605750836923,-0.00542832538485527,0.9999825358390808,0.9208285081591299,1.0945585517777388,0.005243823863565922,0.9999898076057434,1.0345995075350776,1.357396373353436,-0.03743761032819748,0.8872799873352051,0.9149226309446772,1.3705442252459028,0.00025443450431339443,0.9764769673347473,1.0459056572320429,1.6160966333052305,0.16579218208789825,0.9329639673233032,0.9149996839231237,1.6271726293628144,0.19513648748397827,0.9851654767990112,1.1197289154400036,1.1096229708470677,-0.37752658128738403,0.8536280989646912,0.8355966783365758,1.1204864355120678,-0.37037473917007446,0.9923379421234131,0.0018253028392791748,0.9802732548165651,1.0920595634307155,176.40273526327536,178.7568991785185,1.0,0.01933929726568956,0.0006455788637312915,0.036466667707098374,-0.09257473116682852,97.85019273317464,0.8987607489454668,16,0.5333333333333333
0.9849794937606223,0.6157945787137756,-0.5365194082260132,0.9999972581863403,1.0741337580917092,0.7559096785370196,-0.28347617387771606,0.9999884366989136,0.8869244602349238,0.7589479662120794,-0.2715080976486206,0.9999967217445374,1.042264345277002,1.0894929358200383,-0.005042525008320808,0.9999829530715942,0.9235543123410814,1.0944328804607304,0.004850680939853191,0.9999896287918091,1.0349916588546955,1.3575547303591378,-0.0618646964430809,0.8970310688018799,0.9149364591860355,1.370006110631701,-0.0052327062003314495,0.9755273461341858,1.0457856300528376,1.6157945787137755,0.1419539898633957,0.9371002912521362,0.9151671081871526,1.6247487974590178,0.18171599507331848,0.984566330909729,1.1244484689275709,1.109404194193333,-0.3845430314540863,0.8675999641418457,0.8367284736221442,1.1203386478387076,-0.37212830781936646,0.9928590655326843,0.001531451940536499,0.9829093288090417,1.0919629081403843,176.0524408821817,178.15692701184759,1.0,0.02216871122037576,0.0006176618882140558,0.02248483736239994,-0.00022079042333855614,97.84018665749528,0.9013024395219578,17,0.5666666666666667
0.9925842201204812,0.6156751517957813,-0.5339871644973755,0.999997079372406,1.0774173412768115,0.7557911374238316,-0.2802776098251343,0.9999893307685852,0.8900339398464155,0.7587935016311902,-0.2736673355102539,0.9999966621398926,1.0445775084178588,1.091373785446039,-0.004739917349070311,0.9999832510948181,0.9265242852853174,1.0959691769177828,0.00454832473769784,0.99998939037323,1.035965051423535,1.3577190758348967,-0.05072103813290596,0.9053261280059814,0.9163762079471398,1.3704577365343968,0.0024873940274119377,0.9737697839736938,1.0457379440884973,1.6156751517957813,0.15895001590251923,0.9409099221229553,0.9154826464673135,1.6222791351502575,0.20680442452430725,0.9836581349372864,1.1278705160007159,1.1091197958276462,-0.4210285246372223,0.879963755607605,0.8376031528755753,1.1202249310747445,-0.41183632612228394,0.993301510810852,0.001513451337814331,0.9855508968515881,1.093671481181911,175.97828383636164,178.08599737747346,1.0,0.021075280819119042,0.013881500392964631,-0.00848868167346182,0.10311948045573802,97.81831552387949,0.9099942346446577,18,0.6
1.000090138014075,0.6158074159927313,-0.5125945806503296,0.9999969005584717,1.0805087427367628,0.7563663521181191,-0.263666570186615,0.9999901652336121,0.8945271675619548,0.7584132066149,-0.2637043595314026,0.9999966025352478,1.047306842930252,1.0938320165730924,-0.004429532214999199,0.999983549118042,0.9309706054258117,1.098134154937783,0.004232400096952915,0.9999892711639404,1.0381211641809511,1.3593066848929989,-0.04274305701255798,0.9131788611412048,0.9191088213058821,1.3712406267407313,0.003758421167731285,0.973129391670227,1.046383697179804,1.6158074159927311,0.16976341605186462,0.9446926712989807,0.9161308955377306,1.621630662917777,0.20983925461769104,0.9832634329795837,1.1334139607223013,1.1095451306959803,-0.40439373254776,0.8912185430526733,0.8380226393096611,1.1202460034377835,-0.405988872051239,0.993749737739563,0.0010313689708709717,0.9891387241780318,1.0959830857554376,176.17329850493834,178.19444082593049,1.0,0.02564639918223261,0.015009075114952143,0.036751905231018164,0.009037056860031189,97.7368641237099,0.9187126492069124,19,0.6333333333333333
1.007870134484674,0.6166994193873588,-0.5025620460510254,0.9999969005584717,1.0866040720514818,0.7584283885199196,-0.2529434561729431,0.9999908804893494,0.9001752540187713,0.7595490447547825,-0.25539785623550415,0.9999966025352478,1.052049625794092,1.0968172082924887,-0.0041504791006445885,0.9999837279319763,0.936071809229002,1.1016768421138714,0.003956911154091358,0.9999889731407166,1.0408364263824676,1.3612664796200091,-0.08951440453529358,0.9204262495040894,0.9242267851240189,1.374052188885598,0.0032920308876782656,0.9711453914642334,1.0485504713677696,1.6166994193873587,0.10741903632879257,0.9473693370819092,0.9180695462275585,1.6239597737093372,0.19725501537322998,0.9822744727134705,1.1399377324972055,1.1109804636865543,-0.40559738874435425,0.9012623429298401,0.8408065477470904,1.1214545787260561,-0.41579681634902954,0.9941298961639404,0.0005635917186737061,0.994060717511547,1.09924702520318,175.84219404757692,178.92126896908127,1.0,0.02310529160706293,0.008840419588559974,-0.01982803715988186,-0.04743755070221638,98.2298974294951,0.9262267406580845,20,0.6666666666666666
1.016946674813909,0.6160104211411936,-0.5072777271270752,0.9999970197677612,1.0905118665343332,0.7586703449302016,-0.24918632209300995,0.9999915361404419,0.9045186394231601,0.7577761108416687,-0.26111018657684326,0.9999966621398926,1.0536320107964388,1.0974615053459762,-0.002232075436040759,0.9999837875366211,0.9391291769918906,1.1021163559839466,0.002028624527156353,0.9999886751174927,1.04305307404,1.3618203684692243,-0.0819733589887619,0.9258995652198792,0.9289978015239829,1.3738494369707421,0.0015840582782402635,0.9673970341682434,1.048238174632302,1.6160104211411936,0.12078803777694702,0.9491967558860779,0.9178100724272156,1.623587214389439,0.19326964020729065,0.9803977012634277,1.1428549766374902,1.1104531030876517,-0.4049242436885834,0.9101976752281189,0.8420631082740554,1.1203322662783537,-0.42789942026138306,0.9945173859596252,0.00044992566108703613,0.9963805938941647,1.0997889306649613,176.53981143911696,179.57022760630224,1.0,0.022415894696075873,0.008422129274567512,-0.005490958788650318,-0.003350658238588637,98.54054236451273,0.9308553091018863,21,0.7
1.0208766721915383,0.6157536416484133,-0.4806961119174957,0.9999970197677612,1.095067349547914,0.7584141782537971,-0.2265777885913849,0.9999920725822449,0.9088582109482468,0.7566662343883884,-0.2416846752166748,0.9999966025352478,1.056377969914616,1.0983436635998596,-0.0009931086096912622,0.9999836087226868,0.9424790981609223,1.1028979817341702,0.000773245410528034,0.9999881386756897,1.045495571516296,1.3620123323663327,-0.08054465055465698,0.9314970970153809,0.934441031617307,1.3753644017061373,-0.0003426643379498273,0.9651184678077698,1.0480068122319357,1.6157536416484133,0.11160635948181152,0.9509226083755493,0.9176782274458808,1.623259176882942,0.19046473503112793,0.9789133071899414,1.1475659476043196,1.109387722231006,-0.38933560252189636,0.9183006882667542,0.8441616673387705,1.1169708306908104,-0.419030100107193,0.9948520660400391,0.0008797049522399902,0.9994285340377693,1.1006208226670149,177.0695429166272,177.82131162428382,1.0,0.024692013414796054,0.00843885598481461,0.016957799229505327,0.00014157132479120576,98.78301692316761,0.9348722115324021,22,0.7333333333333333
1.0199232077240827,0.6152616437760354,-0.49890628457069397,0.9999969601631165,1.0987472213321214,0.757931774586828,-0.2397376000881195,0.9999924898147583,0.9128032790426086,0.754410407581351,-0.25007370114326477,0.999996542930603,1.0582418255459622,1.0981262317786995,-0.0009876274270936847,0.9999834299087524,0.944968987507127,1.1026321045208145,0.0007674788939766586,0.999987781047821,1.0476291412987937,1.3634280706332715,-0.07183507084846497,0.9365129470825195,0.9367701974721926,1.3773737657063343,0.0038943630643188953,0.9634754061698914,1.0474262870783697,1.6152616437760354,0.11379454284906387,0.9529139995574951,0.9171417437947645,1.6223073365708347,0.20692448318004608,0.9781341552734375,1.1515721645900443,1.1085528676976846,-0.40327972173690796,0.925571084022522,0.8463086360686994,1.1151154502662461,-0.41959595680236816,0.9951967000961304,0.001773446798324585,1.0016054065265445,1.100379168149757,177.7554105385757,177.1275327391599,1.0,0.022245952618295557,0.003977996905267661,-0.018889164985323087,-0.03464272825115153,99.06794422843235,0.9358016369745201,23,0.7666666666666667
1.0216170424559612,0.6158866062017029,-0.5043532252311707,0.9999969601631165,1.1004884273251028,0.7581594226173504,-0.24389104545116425,0.9999929666519165,0.9158093739379972,0.7526264267649958,-0.2527957558631897,0.999996542930603,1.0595713695197695,1.0985912141329774,-0.0010046635288745165,0.9999832510948181,0.9466452742313638,1.1029818567815368,0.0007858153549022973,0.9999874234199524,1.0486004456586346,1.364200232294665,-0.06917877495288849,0.941150426864624,0.9380862085387143,1.3795054447650796,0.0027863308787345886,0.9624722003936768,1.0478440465893997,1.6158866062017028,0.12157131731510162,0.9545088410377502,0.9174846635027504,1.6229831898623819,0.20611576735973358,0.9773722290992737,1.1532837563803042,1.1088755895197824,-0.4100345969200134,0.9322157502174377,0.8493955466930805,1.1145555084031153,-0.4210497736930847,0.9955170154571533,0.002785623073577881,1.0031083218755665,1.100786535457257,177.80694639204563,176.93638946064388,1.0,0.008957734213751527,0.0003085119157896596,-0.10190234601290198,-0.02813436312341532,99.08017484609985,0.9348812719236282,24,0.8
1.0291092533139727,0.6189651558856221,-0.5079182386398315,0.9999969601631165,1.1060350309273288,0.7595862027901433,-0.24749282002449036,0.9999933838844299,0.9212412611570329,0.7532779149255008,-0.25597143173217773,0.9999964833259583,1.0640929733066236,1.101538472852164,-0.0008378609200008214,0.9999825954437256,0.950420969641057,1.1055921359694638,0.0006211248692125082,0.9999865889549255,1.0524747497091944,1.3683106878476574,-0.07818431407213211,0.9452784657478333,0.9427646632450442,1.3829989302438068,0.0021151599939912558,0.9606099128723145,1.0499871128716733,1.6189651558856222,0.11767472326755524,0.9555814266204834,0.9193262208404258,1.6260504077088869,0.20228859782218933,0.9759953022003174,1.1620151032636756,1.1134087456690531,-0.41351771354675293,0.9381776452064514,0.8537953808689067,1.1134611719067007,-0.4296828806400299,0.9957934617996216,0.0031700432300567627,1.0072569714738404,1.1035653044108138,178.07489863383464,176.07270465142238,1.0,0.016971090186093312,0.005419376820864177,0.05952578174499621,0.03804009584554991,99.03503289954,0.9338826261882573,25,0.8333333333333334
1.034898226848319,0.6195729861531013,-0.5036942958831787,0.9999969005584717,1.1078722820304863,0.7600649349879175,-0.23632006347179413,0.9999937415122986,0.9241953282580586,0.7532691661283883,-0.25773531198501587,0.9999964237213135,1.0666340339135512,1.1025276111282827,0.0028641561511904,0.9999823570251465,0.9531920834063755,1.1055934847723967,-0.0030681160278618336,0.9999861717224121,1.0539449772404932,1.373673172579663,-0.03968926891684532,0.9489017128944397,0.94453803858572,1.383423027938365,-0.002602500142529607,0.9608821868896484,1.0499653548805972,1.6195729861531012,0.17885668575763702,0.9571526646614075,0.9191276048183877,1.6256137618337219,0.21224439144134521,0.9756634831428528,1.1654373836613094,1.1143049354054144,-0.40727314352989197,0.9437814354896545,0.8554302814711354,1.1136329078582152,-0.4106910228729248,0.9960574507713318,0.003415137529373169,1.0099130586599634,1.1040605479503398,178.24781900526304,175.7946072168315,1.0,0.02020151328111034,0.0040184598158635055,0.02423762863051107,-0.010507464693342202,98.41440684049007,0.934463626313691,26,0.8666666666666667
1.039356557112666,0.6207900794701365,-0.5145065784454346,0.9999967813491821,1.1102720325047215,0.7612679922628944,-0.24126026034355164,0.9999940991401672,0.9256945410059412,0.75347676283806,-0.2755318284034729,0.9999963045120239,1.0685600771360437,1.1033403759675906,0.004894391167908907,0.9999818205833435,0.9546951557750343,1.106231019174873,-0.005105702206492424,0.9999853372573853,1.0561352014859857,1.3744951478107508,-0.0838390365242958,0.9524977803230286,0.946103343758711,1.3844414814777888,-0.010091597214341164,0.9593893885612488,1.050807321372309,1.6207900794701366,0.13568390905857086,0.9577586650848389,0.9198164606546296,1.6254790365163583,0.20710201561450958,0.9743726849555969,1.169988134879354,1.117335794071404,-0.4049728810787201,0.9485868811607361,0.8572075786032344,1.1161823379373657,-0.42727169394493103,0.9962359070777893,0.003912568092346191,1.011627616455539,1.1047856975712318,178.61565896509777,175.5449491507614,1.0,0.007447182193642709,-0.0005488342165004538,-0.09655504081841931,-0.034558549167002114,98.40649878994577,0.9340502441891684,27,0.9
1.0417053235063058,0.6217132085811325,-0.5115990042686462,0.9999966025352478,1.112877773798356,0.7618181255648581,-0.23810522258281708,0.9999943375587463,0.9275818409066494,0.7529353316378264,-0.26846444606781006,0.9999961853027344,1.0702635704139023,1.1040898169288482,0.004513142164796591,0.9999811053276062,0.9556623988407195,1.1069330283503418,-0.0047267223708331585,0.9999843239784241,1.0572705966106055,1.3730268087199498,-0.13269728422164917,0.9557677507400513,0.947658911307398,1.3848945648864517,-0.016182277351617813,0.9567804336547852,1.0515568568944433,1.6217132085811325,0.07424650341272354,0.9576849937438965,0.9206312406807151,1.6262126539001458,0.20129311084747314,0.9723333120346069,1.1732270414003247,1.1194879820307233,-0.3936309218406677,0.9524583220481873,0.8593261200556386,1.1173759126582175,-0.41718825697898865,0.9962785243988037,0.0044578611850738525,1.012962984627311,1.105511422639595,178.55023586167312,175.2587849702943,1.0,0.005111625040604958,0.00011825698690248016,-0.017455077026413194,0.004978025649387173,98.51822951180094,0.9335489195027261,28,0.9333333333333333
1.0450902550104515,0.6248035735452542,-0.5033103823661804,0.9999964833259583,1.1154997074727502,0.7635615180759943,-0.2282518446445465,0.9999945759773254,0.9304154672414704,0.754240336008843,-0.2668761610984802,0.9999961853027344,1.0728553515825272,1.1063249675458986,0.006768957711756229,0.999980628490448,0.9579296901591358,1.1090827925903253,-0.007008420769125223,0.9999836683273315,1.0593866020139395,1.3732708402458467,-0.1300763189792633,0.958807110786438,0.9515696026818251,1.386661162044863,-0.02389635145664215,0.9550917744636536,1.0537639616901173,1.6248035735452542,0.07531149685382843,0.9578909277915955,0.9229393014287421,1.6280668352169485,0.1918412446975708,0.9707338809967041,1.1779933106706038,1.123299045680427,-0.3700609803199768,0.9557092785835266,0.8622539998162482,1.1216289745265653,-0.40838679671287537,0.9963548183441162,0.004668384790420532,1.0153925208708314,1.107703880068112,178.39214046316022,174.54898634053345,1.0,0.00278978616000808,-0.00039908293896267284,-0.017496094897702565,-0.0038828337561204536,98.4665596893574,0.9314161801991128,29,0.9666666666666667
1.0474476630637346,0.6278657622064853,-0.5079048275947571,0.9999964237213135,1.1182792992918376,0.7657207007081624,-0.23064956068992615,0.9999948143959045,0.9326292657472978,0.7558946254193067,-0.27379947900772095,0.9999961853027344,1.0750088110324263,1.1091152292210213,0.010758718475699425,0.9999805092811584,0.9597481028699217,1.111459709280656,-0.010992888361215591,0.9999834299087524,1.0618463510995155,1.3763937085352218,-0.10782957077026367,0.9617183804512024,0.9546950130450987,1.3897564219157659,-0.032433584332466125,0.9557884931564331,1.0560775251584047,1.6278657622064854,0.10864521563053131,0.9588251709938049,0.9252204248975028,1.629476615728662,0.19244734942913055,0.9703696370124817,1.1830639731643682,1.1262899142750653,-0.3738318681716919,0.9591341614723206,0.8654628401043608,1.1257646515095043,-0.4128336012363434,0.9965059161186218,0.004910558462142944,1.0173784569511741,1.1102874692508387,178.49482368030255,174.03064561445146,1.0,-0.0017915145473886328,0.0013583777189453002,-0.036433970870840215,0.01396504829319077,98.34715377651797,0.9311919630227447,30,1.0
1.0461721882757304,0.6282376599198014,-0.48611193895339966,0.9999964237213135,1.1188479807141494,0.7661726059767042,-0.21266093850135803,0.9999950528144836,0.9332188037044109,0.7563699995226275,-0.2530510425567627,0.9999961853027344,1.0755834685888868,1.10979580389536,0.011989613994956017,0.9999799132347107,0.9601261456940997,1.1109169133091465,-0.01222906168550253,0.9999827146530151,1.0630038667175865,1.3761532127172045,-0.11359347403049469,0.9637593626976013,0.9569952978804659,1.3893167605499332,-0.043270185589790344,0.9549128413200378,1.0567550601489402,1.6282376599198014,0.08858653157949448,0.9581274390220642,0.925818395550888,1.6305438466679396,0.1563919484615326,0.9690391421318054,1.185321987779263,1.1269696391063586,-0.3600414991378784,0.9621672630310059,0.8676120035325569,1.1267039812869963,-0.39514365792274475,0.9965366721153259,0.004895806312561035,1.0178548071414932,1.1103563586022531,178.71601637627188,173.280059991333,1.0,-0.0010998834150948694,-0.0044638770560799625,0.005013245866872465,-0.0421409226426362,97.73250342806294,0.9292568699091285,31,1.0333333333333334
1.0451355981324073,0.6283602320597041,-0.49307069182395935,0.999996542930603,1.1187252949565545,0.7660249462749604,-0.22233331203460693,0.9999953508377075,0.932963958268977,0.7561838702176837,-0.262540727853775,0.9999963045120239,1.0754488863721978,1.1099679105984785,0.014744376763701439,0.9999802708625793,0.9600541619060943,1.1101321533320505,-0.014964091591536999,0.9999830722808838,1.0631130157114408,1.378432446342997,-0.02291545830667019,0.965624988079071,0.9578962678226045,1.3909563128652194,-0.026134392246603966,0.9566274285316467,1.0569613136744966,1.6283602320597041,0.1909923106431961,0.959895670413971,0.9253478579930589,1.6329190421783935,0.18516245484352112,0.97007155418396,1.186002747246189,1.1270546455627486,-0.3692769408226013,0.9651309251785278,0.8684834666293619,1.1269596330511764,-0.39656686782836914,0.9966498017311096,0.004914224147796631,1.0177515241391462,1.1100500319652646,178.77911435672976,172.77892106484833,1.0,-0.002224815363578117,-0.00403449038543313,-0.009336211954910405,0.0035701946130607823,97.25306790840408,0.9255606958033312,32,1.0666666666666667
1.044541341915264,0.6282611744220117,-0.4927000105381012,0.9999966621398926,1.1181548292157213,0.7659780077086997,-0.21607032418251038,0.9999955892562866,0.9324457607223907,0.7555329523341224,-0.25540369749069214,0.9999963641166687,1.075094001619555,1.1090018970395084,0.015408066101372242,0.9999799728393555,0.9598024548729568,1.107359427224158,-0.01563321053981781,0.9999828934669495,1.0628939907588695,1.3774197995069726,-0.052971936762332916,0.967346727848053,0.9588578139349755,1.3913953534168493,-0.027901101857423782,0.9577751159667969,1.0568638040207212,1.6282611744220117,0.1282377541065216,0.9609278440475464,0.9218728237603154,1.6425489432015987,0.1302860826253891,0.9709699749946594,1.1858058002027725,1.1268353812488476,-0.34356650710105896,0.9679272174835205,0.8682888273980482,1.1266807059922936,-0.36430883407592773,0.996749758720398,0.005216449499130249,1.0174482282462558,1.1081806621318333,178.77472500484893,171.81335895265727,1.0,-0.0013760239438509105,-0.013151987146744468,0.006425660994510316,-0.0690480506243,96.33889119239437,0.9104311209247667,33,1.1
1.0437333603762948,0.6278936615076253,-0.49301496148109436,0.9999967813491821,1.1174527916389525,0.7655814882974566,-0.21512524783611298,0.9999958276748657,0.9318357498009061,0.7542721217887726,-0.2555508315563202,0.9999964237213135,1.0745610241328605,1.108036233591534,0.01643454283475876,0.999979555606842,0.9593990497182859,1.1056516409211707,-0.016665108501911163,0.9999825358390808,1.0624550435620352,1.376401277779932,-0.05444158986210823,0.9686934351921082,0.9589601185913401,1.3912749463863345,-0.03238805755972862,0.9582200050354004,1.056519153276921,1.6278936615076252,0.09667525440454483,0.961378812789917,0.919538340854657,1.646478022125517,0.11552394926548004,0.9714522957801819,1.1853550432637674,1.126399040770247,-0.3402796685695648,0.9703906178474426,0.8679014164745323,1.1262580196797198,-0.3639364242553711,0.9967945218086243,0.005650043487548828,1.0169800369255733,1.1068439372563523,178.76921328638522,171.30685033585462,1.0,-0.0008903051260563265,-0.007176629600127078,0.0036429052015992005,0.04482509503464707,95.95278474936687,0.9031568390710127,34,1.1333333333333333
1.0423688448379336,0.6277925449181574,-0.5305349230766296,0.9999970197677612,1.1172651588734004,0.764972853362465,-0.2274317741394043,0.9999960660934448,0.9316814046114478,0.7536794059622927,-0.2935701608657837,0.9999966025352478,1.0737043183909067,1.107561814455615,0.023288730531930923,0.9999797344207764,0.9593159831148564,1.104379103170465,-0.023494577035307884,0.9999830722808838,1.0623583189133257,1.3765540069825666,0.003224852727726102,0.9691725969314575,0.9604798237304304,1.3913424359575988,-0.04513116925954819,0.9602168798446655,1.0565657796023138,1.6277925449181574,0.17065560817718506,0.9624186158180237,0.9161730539312563,1.6554764543727771,0.07740716636180878,0.9730283617973328,1.1847878378387244,1.1261156206546485,-0.34185710549354553,0.9722891449928284,0.8677699660165221,1.126103094052769,-0.38776183128356934,0.9969501495361328,0.00564238429069519,1.0165101507528815,1.1059704588130401,178.90548888171048,170.24528282801492,1.0,-0.0031933479668399506,-0.006248718812857858,-0.01763993232045604,0.007104236792546048,95.65261081747855,0.8925716196544627,35,1.1666666666666667
1.0375030565753727,0.6260284717801549,-0.502106249332428,0.9999972581863403,1.111021304114625,0.7638714070399097,-0.20061977207660675,0.9999963045120239,0.928757766706695,0.7532724622807143,-0.28410691022872925,0.9999968409538269,1.0700899438030504,1.1051010248372153,0.03340088948607445,0.9999799728393555,0.956975142194356,1.102210511739005,-0.033589188009500504,0.9999837875366211,1.059557650091166,1.3775666976137795,0.05610663816332817,0.9686034321784973,0.9588654135039901,1.3895178254952991,-0.08233841508626938,0.9633930325508118,1.0543597015389905,1.6260284717801547,0.22009995579719543,0.9635295867919922,0.9090696424296283,1.6663777066053034,-0.01613396406173706,0.9751762747764587,1.1814079045880737,1.1197321199192785,-0.32000142335891724,0.9742728471755981,0.8638481565361736,1.1229944506457028,-0.38440054655075073,0.9971683621406555,0.005307912826538086,1.0135325429987032,1.10365576828811,178.98478826381168,169.42688693392537,1.0,-0.004311359746057639,0.0021699149743147537,-0.008348390679423516,0.06233370102135762,95.37628652918103,0.8799350419957928,36,1.2
1.0345270240282307,0.6244330650973791,-0.4694902002811432,0.9999974966049194,1.0946071959625638,0.7666171332945598,-0.1492605209350586,0.999996542930603,0.9233969994908823,0.7525773900267939,-0.2831287682056427,0.9999971389770508,1.0641070681335485,1.1038144499012155,0.049803294241428375,0.9999807476997375,0.954369705515577,1.1014066420110846,-0.049969688057899475,0.999984860420227,1.0556411808941282,1.3798184156605071,0.10338807106018066,0.9660521149635315,0.9578438741620634,1.3928387351564016,-0.11107008159160614,0.9666135311126709,1.0534283694382718,1.624433065097379,0.26591888070106506,0.9638291597366333,0.906643823208699,1.6771520919308966,-0.063349150121212,0.9772614240646362,1.1769678197063682,1.1079579755947881,-0.25245827436447144,0.975890576839447,0.8584665734700162,1.1214128483875394,-0.3819717764854431,0.9974002242088318,0.007042407989501953,1.0092383868245627,1.10261054595615,178.7614036321377,169.1084185832118,1.0,-0.020255062441637835,0.005592673937658266,-0.12146644326881963,0.026091428360495203,93.91148917917086,0.8722759126096785,37,1.2333333333333334
1.0319002175360057,0.622586956550117,-0.44053229689598083,0.9999976754188538,1.0830981370890997,0.7680847349676639,-0.11716502904891968,0.9999967217445374,0.9184754417858293,0.7527070956184135,-0.287788450717926,0.9999973773956299,1.0572980891222385,1.1050042300315985,0.06186177209019661,0.9999816417694092,0.9514444706443876,1.103717953906006,-0.06200919672846794,0.999985933303833,1.0523016795165718,1.3808592523886416,0.13577750325202942,0.9611040949821472,0.956962499099583,1.3937631925185936,-0.1316523253917694,0.9695948958396912,1.0529610161854335,1.622586956550117,0.3227410614490509,0.9636368751525879,0.9057803628036808,1.6822871862143098,-0.08963094651699066,0.9792715311050415,1.1692291516522995,1.1005070697718464,-0.21624498069286346,0.9767739176750183,0.853269762803752,1.1206672733924783,-0.41496676206588745,0.9976160526275635,0.007723689079284668,1.004371279883313,1.1043610919688023,178.80606703968502,168.8508697657499,1.0,-0.02863000761907367,0.02594530637690017,-0.06802219109755998,0.16484039597656086,93.68275962184646,0.8795441055132035,38,1.2666666666666666
1.0326641527625806,0.6220762077591254,-0.40977996587753296,0.9999978542327881,1.0749804420861109,0.769247043492379,-0.09142041206359863,0.9999968409538269,0.9139834508313688,0.7541478109993565,-0.2759714722633362,0.9999975562095642,1.0548554616083676,1.110051923854522,0.06233866885304451,0.9999825358390808,0.9502904507698009,1.1096083496543758,-0.06249284744262695,0.9999868869781494,1.0519661676021106,1.3838523777455067,0.13504929840564728,0.9608798623085022,0.9582873257824295,1.4018198665616606,-0.10997466742992401,0.97232985496521,1.0551098155173475,1.6220762077591255,0.3361206650733948,0.964816153049469,0.9076009505704777,1.6856949935306154,-0.029894888401031494,0.9811116456985474,1.1648017216193929,1.0954111226824972,-0.1611061990261078,0.9778291583061218,0.850970360162758,1.1317959739341918,-0.3706568479537964,0.9977846145629883,0.007571995258331299,1.0025729561890844,1.109830136754449,178.63936330061074,168.30881887144375,1.0,-0.025588959515849437,0.028382659808667346,0.02342227929209679,0.018191396691729207,93.1364149282986,0.8975339969189483,39,1.3
1.024095524087046,0.6180652696545611,-0.3793872594833374,0.9999980330467224,1.063206566688109,0.7668871372714094,-0.0680009126663208,0.9999970197677612,0.9059780221083242,0.7520280785797077,-0.246778205037117,0.9999977350234985,1.0458723124216294,1.1083803532944605,0.06289295852184296,0.9999834895133972,0.9429906414615564,1.108218261155692,-0.06305208802223206,0.999987781047821,1.0433721567918326,1.3804556247572917,0.13275204598903656,0.9592547416687012,0.9559592576014039,1.3978939879468428,-0.12138740718364716,0.9747310876846313,1.0527523944755868,1.6180652696545612,0.32522401213645935,0.9652537703514099,0.9056664067896093,1.6841396933055472,-0.04897276684641838,0.9826971292495728,1.1539506549791159,1.0884951932625637,-0.1314794272184372,0.979149341583252,0.8456006569059611,1.1340794868070398,-0.3393186330795288,0.997925341129303,0.007469266653060913,0.9944314769415928,1.1082993072250762,177.212791211903,167.47155725290415,1.0,-0.0458062750634183,0.00875208615060118,-0.16115526499796673,-0.15547499908222975,92.81557900690606,0.9044455156792083,40,1.3333333333333333
1.0188674692624677,0.6140528525225928,-0.3405781686306,0.9999982118606567,1.0517150844243122,0.7642481532523617,-0.026443812996149063,0.999997079372406,0.8977507963042988,0.7499534420944144,-0.22900836169719696,0.9999979138374329,1.035866294329587,1.106232159332892,0.06979665905237198,0.9999842643737793,0.9378071542867781,1.1081520778428073,-0.06996532529592514,0.9999886155128479,1.0398532714816462,1.3768925293323677,0.14707188308238983,0.9539197087287903,0.9530766096808153,1.3939303867496762,-0.14111478626728058,0.9768707156181335,1.0512374703938145,1.6140528525225928,0.3331891894340515,0.9645479917526245,0.9030108194717729,1.6804927727759529,-0.08921105414628983,0.9841408729553223,1.1396068295021407,1.0800784739486562,-0.07699225842952728,0.9800167679786682,0.8424627733395564,1.1362722839974875,-0.3515626788139343,0.9980668425559998,0.007203519344329834,0.9868367243081826,1.1071921185878497,178.09572800943693,167.03131560845773,1.0,-0.03955238390735045,0.012767294840618395,0.0474421482879643,0.031193637526232987,93.77505917159,0.9148571913708656,41,1.3666666666666667
1.0143133561515303,0.6134980692954227,-0.3304676413536072,0.9999983310699463,1.0380992251707302,0.760690333497587,-0.013224638998508453,0.999997079372406,0.8907872136059483,0.7494420015233804,-0.237992525100708,0.9999980330467224,1.028079692638191,1.1054976037819835,0.07707430422306061,0.9999848008155823,0.9349957411667259,1.1091877848469702,-0.07724699378013611,0.9999892711639404,1.0385108345652359,1.3758720176124373,0.15231840312480927,0.9471306800842285,0.9499135082413197,1.395546166479687,-0.1265997439622879,0.9786021113395691,1.0505541329891985,1.6134980692954226,0.3372986316680908,0.9625501036643982,0.9021852002307708,1.6814202391838313,-0.053601086139678955,0.9852678775787354,1.12870140368615,1.0765446301553057,-0.06128481775522232,0.9798249006271362,0.8417458810837762,1.1417892111881864,-0.3599906861782074,0.9981992244720459,0.005671679973602295,0.9815377169024584,1.1073426943144768,179.3080294781138,167.5394519960032,1.0,-0.03641331434643738,0.006158837912605035,0.02403096532572567,-0.050908874146715355,93.93467380883324,0.9162960706591713,42,1.4
1.0127043689287374,0.6138679459804549,-0.27341094613075256,0.9999983906745911,1.0215579631398897,0.7594388572047005,0.02802572026848793,0.9999970197677612,0.8859464435200882,0.7497622724852024,-0.22695603966712952,0.999998152256012,1.0187086039352264,1.108523268436191,0.08274489641189575,0.9999854564666748,0.9323540361338726,1.1166723884496275,-0.08290831744670868,0.999989926815033,1.031044472299326,1.380705911296692,0.16109855473041534,0.9434098601341248,0.9466384451180476,1.4026858374487294,-0.11434096097946167,0.9802861213684082,1.0511536859075294,1.6138679459804548,0.35414040088653564,0.9609709978103638,0.9017249031806313,1.6841075482293077,-0.04360046982765198,0.9863014817237854,1.1166613884327725,1.0721022126297344,-0.014815479516983032,0.9797230958938599,0.84273624827866,1.1468856497979043,-0.3429577350616455,0.9983368515968323,0.004876315593719482,0.9755313200345496,1.1125978284429092,177.66567036347334,168.07318599181076,1.0,-0.05280859631399588,0.03697664862155713,-0.13140394782975204,0.2472890931402206,95.85859078358455,0.9323641893455583,43,1.4333333333333333
1.0108782381004537,0.6132517964683506,-0.3073367178440094,0.999998152256012,1.007843764174988,0.75036211759065,-0.0022610300220549107,0.9999968409538269,0.8823984797618832,0.7489268215852922,-0.2882196605205536,0.9999982714653015,1.0075216718176632,1.108833187942781,0.09215988218784332,0.999985933303833,0.9267012437420327,1.1207712824061127,-0.09229665994644165,0.9999905228614807,1.022651741715013,1.3817013022290894,0.19122253358364105,0.935882568359375,0.9398577594778276,1.405353704316144,-0.10973519086837769,0.9816389083862305,1.046875544623793,1.6132517964683506,0.38931795954704285,0.9591970443725586,0.900554516376435,1.6827330020957272,0.011104251258075237,0.9869818091392517,1.0911274425878643,1.0550169429323473,-0.10655708611011505,0.9728996753692627,0.8419895949753592,1.1496775945301487,-0.4236442446708679,0.998462438583374,0.0007240474224090576,0.9671114577798479,1.1148022351744469,177.20139307541444,169.28821212378085,1.0,-0.061161579579313174,0.02787954653464806,-0.06952895261358644,-0.07490322750690831,98.45395943465302,0.9441583534275988,44,1.4666666666666666
1.0100513160487103,0.6129359742252275,-0.3174145817756653,0.9999979734420776,1.0064133551341843,0.7448691329203826,-0.011248297058045864,0.9999966025352478,0.8818824281577089,0.7476000825854194,-0.29704469442367554,0.9999983906745911,1.0037397171059832,1.108318167293081,0.09119259566068649,0.9999862909317017,0.9234916208734294,1.121010540501266,-0.09133164584636688,0.9999910593032837,1.0195247938640308,1.3816174725060555,0.17938628792762756,0.9328619837760925,0.9373602696845995,1.4063845989761343,-0.10912810266017914,0.9829403162002563,1.0444607270090325,1.6129359742252276,0.3675582706928253,0.9594866633415222,0.8997309599350932,1.6806102160619196,0.024428650736808777,0.9877154231071472,1.0848169728382977,1.0503101734116738,-0.11296640336513519,0.9671269655227661,0.8413198958498229,1.148702744312543,-0.43367308378219604,0.9985853433609009,0.0013789236545562744,0.9636156689897062,1.1146643538971737,177.15291100425364,169.40437535987286,1.0,-0.019521935610417648,0.006681334936442267,0.31183469738145375,-0.15877360799112628,99.40916464946947,0.9468117116268757,45,1.5
1.0055599466370333,0.6108395099894341,-0.27924805879592896,0.9999974370002747,0.9965380442965814,0.7362167097069797,-0.0020889206789433956,0.999996542930603,0.8804664134634343,0.7425731115066059,-0.2910309135913849,0.9999984502792358,0.9960633250108397,1.1072486069242526,0.09242970496416092,0.9999870657920837,0.9176859823714865,1.1201253381301086,-0.09255217760801315,0.9999916553497314,1.0125911817891846,1.3792186278247283,0.19984295964241028,0.9327115416526794,0.931817354049562,1.4046585919277599,-0.09422317147254944,0.9842718243598938,1.0380725690921617,1.6108395099894341,0.3847862184047699,0.9613532423973083,0.8972812906527666,1.6753575560594463,0.03517809137701988,0.9885980486869812,1.0802792794504976,1.052147984146447,-0.04350125044584274,0.9610476493835449,0.8389564836928218,1.1456277900716945,-0.41616755723953247,0.9986563324928284,0.003219515085220337,0.9568746536911631,1.1136869725271805,177.19958412429696,169.88615671627758,1.0,-0.027627069472774258,0.018362334470877453,-0.060247346870842516,0.08633538980543201,99.40316987503944,0.954062627084623,46,1.5333333333333334
0.9970076635571349,0.6061546820434399,-0.2614050805568695,0.9999971985816956,0.9805518286938653,0.7281722993154356,0.007725569419562817,0.999996542930603,0.8750308251140332,0.7360505587371416,-0.2981453835964203,0.9999985098838806,0.9833323839694802,1.0992657766015403,0.09689351171255112,0.999987781047821,0.9102074725159165,1.111840261498622,-0.09701560437679291,0.9999921917915344,1.0007014776483234,1.3707972757639093,0.19031520187854767,0.9304203391075134,0.922361491465219,1.396946320046621,-0.08628977835178375,0.9851478934288025,1.0250599924927228,1.60615468204344,0.3584672510623932,0.9622232913970947,0.8915449655234865,1.6641528096058096,0.039126332849264145,0.9891512989997864,1.057503582022846,1.0498593626993482,-0.0237047728151083,0.9527661800384521,0.8363047253490373,1.1393249584835885,-0.4202340245246887,0.9987254738807678,0.004018843173980713,0.9467699282426983,1.105553019050081,177.7512225233938,170.98019722281146,1.0,-0.026108391796300187,-0.0018416307221843361,0.010410784285934902,-0.15799683261346043,99.32779648403097,0.9475025321115019,47,1.5666666666666667
0.9954139453299167,0.6045611598779945,-0.22725823521614075,0.9999961256980896,0.9650043851697967,0.7266018118835652,0.03196185827255249,0.9999963641166687,0.8742694591763907,0.7349476334432017,-0.3075883984565735,0.9999985694885254,0.9741286647782089,1.1007129663136366,0.10754126310348511,0.9999887347221375,0.9091668480696737,1.1140383295804492,-0.10761735588312149,0.999992847442627,0.9933892311242297,1.3705785787663523,0.234249547123909,0.925635039806366,0.9167766167207609,1.3984675120630083,-0.07529790699481964,0.986280083656311,1.0172078542485752,1.6045611598779945,0.41329139471054077,0.9639343619346619,0.8907530429625315,1.662822089496661,0.04545300826430321,0.9900043606758118,1.0268121810427675,1.0489764787378177,-0.04655549302697182,0.905082643032074,0.8406976538000022,1.1383686141766858,-0.46733999252319336,0.9987329840660095,0.004264175891876221,0.9416477564239413,1.107375647947043,178.26984096071644,172.8452516582693,1.0,-0.02932238081539025,0.029186321782634365,-0.026461383547702666,0.25215830346393653,100.19493649983117,0.9605262123245415,48,1.6
0.9892892846073882,0.6022127032690034,-0.21792224049568176,0.9999940991401672,0.9416967448360267,0.7245596118572107,0.050283730030059814,0.9999951124191284,0.8734129563397609,0.7331878289088374,-0.32436665892601013,0.9999986290931702,0.9582263751941731,1.1072841659938675,0.11925355345010757,0.9999896883964539,0.9042139298304126,1.1202207833835354,-0.1192781925201416,0.9999935030937195,0.99024208599082,1.368540231744269,0.2882552444934845,0.9112482070922852,0.9164797769100427,1.3983232256666216,-0.05098496004939079,0.9873319864273071,0.9983309375447954,1.6022127032690034,0.5051707625389099,0.9644631743431091,0.8899668756193456,1.6605112404410425,0.08287429809570312,0.9908162355422974,0.9938731923756552,1.0491993946292126,0.06973758339881897,0.8220672011375427,0.8568685895376723,1.1362296872245108,-0.504571795463562,0.9987966418266296,0.004414677619934082,0.9312201525122928,1.1137524746887013,174.99607390046265,171.70035859239937,1.0,-0.0697366099136317,0.06080476141040363,-0.3099652526998004,0.24257151206537478,100.99624993838076,0.9943069317068336,49,1.6333333333333333
0.9859757851132029,0.601918403179934,-0.22709277272224426,0.9999879598617554,0.9288996774786634,0.7252603058081522,0.03309672325849533,0.9999918937683105,0.8736383023297352,0.7337609530944013,-0.3480401933193207,0.9999986886978149,0.9502600945623585,1.1108146482786674,0.1208307296037674,0.9999905228614807,0.899793561869231,1.1251733016785155,-0.1208546981215477,0.9999940991401672,0.9853608704608742,1.3687958203052952,0.304442822933197,0.894523024559021,0.9147506964555286,1.3979487887748938,-0.024685297161340714,0.9882373809814453,0.9884742546738496,1.6019184031799338,0.5263153910636902,0.964724600315094,0.8913405832889717,1.6608981122201758,0.11071385443210602,0.9915679693222046,0.9527390420979359,1.065233924850693,0.05606763809919357,0.7408315539360046,0.867629481288139,1.13805189420461,-0.4947347044944763,0.9988309144973755,0.004347324371337891,0.9250268282157947,1.1179939749785914,173.01709274885314,171.7738637835393,1.0,-0.05195421689521283,0.029018552237884764,0.13941559128162445,-0.24896756734727818,102.71097458137469,1.0117405706439584,50,1.6666666666666667
0.9844468465578691,0.5994983147001183,-0.22918972373008728,0.9999831318855286,0.9193261900893317,0.7241176098976605,0.026728292927145958,0.9999892115592957,0.8739007786250965,0.7328331127683466,-0.361977756023407,0.9999987483024597,0.9459583923598185,1.109650792437119,0.12484284490346909,0.9999913573265076,0.8982245081929189,1.123144031306319,-0.1248759850859642,0.999994695186615,0.9809940740012043,1.3653890759372185,0.3177172541618347,0.8776984810829163,0.9125542194738564,1.3977346184769663,-0.033882010728120804,0.9892292022705078,0.9790419747952149,1.5994983147001183,0.5376483201980591,0.9644457101821899,0.8915882683826366,1.6606980468051569,0.01570657454431057,0.9923304319381714,0.9435511374696048,1.0697707623840227,0.027587955817580223,0.6678035855293274,0.8752411858897775,1.1380900385361261,-0.5057036280632019,0.9988824129104614,0.004456907510757446,0.9220914502763686,1.116397411871719,171.72139884025728,172.45416476406444,1.0,-0.022767898832433072,-0.012694165652370778,0.22175994150618508,-0.316913661947257,101.83269053076538,1.0131816496666193,51,1.7
0.9795948224225285,0.596079171458182,-0.22816553711891174,0.9999802112579346,0.9106453605940077,0.7196806847477666,0.03030342422425747,0.9999879002571106,0.8727959538690042,0.7293575234806801,-0.3532889485359192,0.9999988079071045,0.9453258349719196,1.1079122866528155,0.12400408834218979,0.9999920129776001,0.8983913602060891,1.1201181609356738,-0.12402971088886261,0.9999951720237732,0.9731540132545229,1.3614917020876545,0.3100237250328064,0.8551436066627502,0.9104059521342531,1.395351646742052,-0.06462550163269043,0.990039050579071,0.9656619367492626,1.596079171458182,0.5318122506141663,0.9626032114028931,0.8903281717358237,1.6580774662693907,0.005290082655847073,0.9929580688476562,0.950509720629415,1.0686267201372717,0.04263220354914665,0.6034413576126099,0.8836611058610787,1.1361406041112263,-0.516412615776062,0.9989230632781982,0.00495573878288269,0.9218585975890043,1.1140152237942447,171.90809006182857,173.13038180517927,1.0,0.008457360681398188,-0.005738441078979419,0.23729619080112593,0.052775435622787574,99.47289931042832,1.0156740981710914,52,1.7333333333333334
0.9750339878504191,0.5948100564037855,-0.2342759668827057,0.9999765753746033,0.9001124052514543,0.7190689631275426,0.024215031415224075,0.9999872446060181,0.871896384846186,0.7274407532349504,-0.3624511957168579,0.9999988079071045,0.9319932531268125,1.106275578095778,0.12497077882289886,0.9999923706054688,0.8975543049804352,1.118263766184054,-0.12499500811100006,0.9999955296516418,0.9533087980510067,1.3613403840778258,0.319367378950119,0.8019663691520691,0.909095523184993,1.3934819837649004,-0.0668085440993309,0.9897568821907043,0.9495449604726998,1.5948100564037855,0.5387500524520874,0.9463641047477722,0.8895079168552297,1.656390739118888,0.015172985382378101,0.9928708076477051,0.9515559179789334,1.06738559361647,0.018788523972034454,0.5460971593856812,0.8969891392364675,1.1327814503312275,-0.5615319609642029,0.9989001154899597,0.004291445016860962,0.9147737790536238,1.112269672139916,174.29933820318777,173.33785986483048,1.0,-0.04942874163688173,-0.005516437536710378,-0.46036697601481125,0.0017227294934061212,104.48613329776417,1.0148082643276743,53,1.7666666666666666
0.9747021810051933,0.5982781997952485,-0.2389991283416748,0.9999739527702332,0.8882057559984781,0.7203149699894011,0.019565042108297348,0.9999863505363464,0.873934100792028,0.7289655739013545,-0.37765708565711975,0.9999988079071045,0.9227183816593026,1.1083163241226248,0.1272459477186203,0.9999927282333374,0.8994628332965278,1.1204762540153488,-0.12729108333587646,0.9999958872795105,0.9477248639020363,1.3693249203048314,0.3199419677257538,0.7565089464187622,0.9109637011887122,1.3964653859891494,-0.06784211099147797,0.9893937110900879,0.9393375701466065,1.5982781997952484,0.5391420722007751,0.9272574782371521,0.8917821476995759,1.660062684015576,0.03740663453936577,0.9922894835472107,0.9312847309825565,1.0944174634241275,0.013949218206107616,0.49443143606185913,0.9134334793707359,1.133510077629591,-0.5199924111366272,0.9988583922386169,0.004424571990966797,0.9110906074779153,1.1143962890689867,172.42936976269172,173.45179598083126,1.0,-0.04361389936394503,-0.0025651699608038505,0.04526393701925763,0.022642251517878905,112.52123327221464,1.010155236477322,54,1.8
0.9714083535425454,0.5987986678678046,-0.2293962985277176,0.9999719262123108,0.8790411259530583,0.7185302712673238,0.020289909094572067,0.9999858736991882,0.8742441327224278,0.7293001759447375,-0.3779838979244232,0.9999988079071045,0.9119876451063202,1.1078365500492395,0.13012591004371643,0.9999930262565613,0.8957911115994417,1.1204446502686676,-0.13018080592155457,0.9999961853027344,0.9454777655921807,1.3701728641745679,0.3120027780532837,0.7199727296829224,0.9086194851875049,1.3940361816057456,-0.06561893969774246,0.9892029166221619,0.9302870635881244,1.5987986678678046,0.5177552103996277,0.9097856283187866,0.8921000900270489,1.6604358078579713,0.043994270265102386,0.991762638092041,0.9238378160819377,1.0990604720052017,0.028781089931726456,0.4484947919845581,0.9210121500085539,1.1305586893880288,-0.5073855519294739,0.9987480044364929,0.0055065155029296875,0.903889378352881,1.1141406001589536,168.92356818563917,173.76707888930707,1.0,-0.06060278122181178,-0.005354520951124173,-0.13648079155097145,-0.02242195384553305,123.06142683322719,1.0081777263779572,55,1.8333333333333333
0.9720584478836164,0.6011440078570441,-0.2340361624956131,0.999970555305481,0.8802748518152432,0.7165265155690944,0.017705906182527542,0.9999859929084778,0.87437325640318,0.7287452253977588,-0.3773936629295349,0.9999988079071045,0.9157421417448541,1.1079140788401791,0.12919750809669495,0.9999933838844299,0.8961445263804086,1.1199224613525016,-0.12926581501960754,0.9999964237213135,0.9448648883348116,1.3719778068498425,0.3057677149772644,0.6850444078445435,0.9081098980070086,1.395680131369368,-0.0560566782951355,0.9884130358695984,0.9287719306641178,1.6011440078570442,0.50957852602005,0.894869327545166,0.8915060036952012,1.6629816394874246,0.06777945905923843,0.9909021854400635,0.9260642290835641,1.1020608633796274,0.035675596445798874,0.4082737863063812,0.9247756532942107,1.1285102820819626,-0.498697429895401,0.9984328746795654,0.006239712238311768,0.9059433340626314,1.1139182700963404,169.6895233736739,173.9609841767135,1.0,0.0069825469558479,-0.011446498743285958,0.4926477130534772,-0.044310655908373714,116.31980065585286,0.9977912518320823,56,1.8666666666666667
0.9714909189141464,0.6054382143225723,-0.23954209685325623,0.9999687075614929,0.875123850264628,0.7129893894419495,0.004557461012154818,0.9999858736991882,0.876085767386326,0.7302396372886579,-0.39011627435684204,0.9999987483024597,0.9153296003082625,1.1025815526035818,0.12897832691669464,0.9999935626983643,0.8984683643520567,1.1171295331243363,-0.1290614902973175,0.9999966025352478,0.9369994278549003,1.3743880722510795,0.3024778962135315,0.644758403301239,0.9096705970335578,1.3970201092776675,-0.04138683155179024,0.9865339398384094,0.9221120778748829,1.6054382143225723,0.501029908657074,0.874872624874115,0.89283462083035,1.6661804359120014,0.08354765176773071,0.9893909692764282,0.9333732499800466,1.106675386738805,0.04307897388935089,0.3711712956428528,0.9340736818808927,1.130457561129918,-0.49487966299057007,0.9980050921440125,0.008792251348495483,0.9068989823301596,1.109855542863959,171.75505765676752,174.12885154056565,1.0,-0.00611013650329888,-0.04819308007481366,-0.10179158881806985,-0.2852296567292175,124.89578877852088,0.9668794324116822,57,1.9
0.9720408263653518,0.6056074048074115,-0.24081501364707947,0.9999679327011108,0.873309729434465,0.7049797878480025,-0.0009015207178890705,0.9999858140945435,0.8775813242792126,0.7305357178055686,-0.39866581559181213,0.9999987483024597,0.8985571822903728,1.0983280997313372,0.13058263063430786,0.9999938011169434,0.8900094888585897,1.1099909205725274,-0.13065992295742035,0.9999967813491821,0.9323322079631662,1.364404748862849,0.3032096326351166,0.6049768924713135,0.9094857761582762,1.3931725489537778,-0.04494214802980423,0.9846126437187195,0.9190552926780322,1.6056074048074116,0.49648317694664,0.8505222797393799,0.8927223794405217,1.6666721842383876,0.0686068907380104,0.9877851009368896,0.9314514631401156,1.1037525941116904,0.04266779497265816,0.33698028326034546,0.9452957914633963,1.1255741028501494,-0.4939219355583191,0.9976304173469543,0.01302143931388855,0.8942833355744813,1.1041595101519324,169.61507734243105,172.55818611970204,1.0,-0.0974566118603142,-0.04567677436790586,-0.6899418417286445,0.019121339384461478,140.0897238980637,0.9482636560865503,58,1.9333333333333333
0.9744044905874936,0.6058253102057511,-0.2426847219467163,0.9999677538871765,0.8720733853672478,0.7052160493302562,0.00044149887980893254,0.9999856352806091,0.881317240404761,0.7354184526962274,-0.4015677869319916,0.9999987483024597,0.9018979275424353,1.0961008206568337,0.13235045969486237,0.9999937415122986,0.8933513017162705,1.1087004136311125,-0.13239896297454834,0.9999969005584717,0.9307553982661053,1.3645083956747641,0.3321121335029602,0.5658731460571289,0.9113683117411676,1.3918896464802908,-0.03578556701540947,0.9831893444061279,0.9166220885801111,1.6058253102057511,0.5495598316192627,0.8221119046211243,0.8942892438034604,1.6695711436663179,0.09636202454566956,0.9863590002059937,0.9376646255988736,1.103902684244548,0.05199333280324936,0.3060607612133026,0.9523638772203741,1.1266906387073221,-0.49026718735694885,0.9975277185440063,0.015357375144958496,0.8976246146293528,1.102400617143973,170.51165786257394,172.84004717379156,1.0,0.01143873660664088,-0.030659864321379692,0.8302812325627742,0.11500194926593604,141.4867337668731,0.9385815262147613,59,1.9666666666666666
0.9813063434370279,0.6193639864132329,-0.21233327686786652,0.9999663829803467,0.8782257355661583,0.7173887176018126,0.03618110343813896,0.9999847412109375,0.8929624468806951,0.7440059588553593,-0.384083092212677,0.9999987483024597,0.9043338543174303,1.1058411477499748,0.1333482563495636,0.9999936819076538,0.9004132622953853,1.1164290988247978,-0.13341262936592102,0.9999970197677612,0.9358069999526522,1.3764263099707796,0.31617894768714905,0.5346726179122925,0.9172814548951334,1.4038138258472386,-0.0561189241707325,0.9829481840133667,0.924013776867916,1.6193639864132328,0.5248352885246277,0.8005756139755249,0.9010184400706422,1.6837858048985588,0.06498455256223679,0.9856072068214417,0.9456683002762313,1.1120509881486709,0.06553307175636292,0.2795730531215668,0.9649437857942585,1.1344604173362212,-0.43394261598587036,0.9975571632385254,0.013419777154922485,0.9023735583064079,1.1111351232873863,170.58624949631894,173.31638721368182,1.0,-0.0220070514150257,-0.005132117081597158,-0.2530678300282104,0.19456883882986023,155.8359090971027,0.9214273324084927,60,2.0
0.9850621747768997,0.6294857517227391,-0.18479546904563904,0.999967634677887,0.8825160489818306,0.7264363380468116,0.06052260473370552,0.9999844431877136,0.9023914089918101,0.7490507853919152,-0.35185521841049194,0.9999988079071045,0.9055918614057399,1.112748174179839,0.1348087638616562,0.999993622303009,0.9054876495567991,1.117972693281734,-0.1348915994167328,0.9999971389770508,0.9402198340323641,1.3852970948283785,0.3067043125629425,0.5081451535224915,0.9229411999967624,1.4134422691353428,-0.07604070007801056,0.9831627607345581,0.9288266400481077,1.629485751722739,0.4829671382904053,0.7774530649185181,0.9067623550854192,1.6947871221531894,0.023566070944070816,0.9849590063095093,0.9518307361510725,1.1192459704354971,0.07335425168275833,0.25724563002586365,0.9760310961967615,1.1395417487783823,-0.41093844175338745,0.9976509213447571,0.011324137449264526,0.9055397554812695,1.1153604337307865,170.08790128760717,173.3282437179707,1.0,-0.023874379064092323,-0.02680834003778002,-0.013608902619847374,-0.17156031108325367,175.43886693377638,0.9002112819631699,61,2.033333333333333
0.9840712583638594,0.6301423341281912,-0.18822796642780304,0.9999696612358093,0.8760834104636676,0.7269883948054305,0.05577349662780762,0.9999845027923584,0.9036302703801113,0.7473877874982215,-0.3534007668495178,0.9999988675117493,0.9030226773009551,1.1121463049830196,0.13561590015888214,0.9999937415122986,0.9066101684114372,1.1145304616331653,-0.1357136070728302,0.9999973177909851,0.9368069250602844,1.3826757834612593,0.3054080605506897,0.4961985945701599,0.9224173556979837,1.4127153711103129,-0.07791870087385178,0.9839402437210083,0.9293311241133039,1.630142334128191,0.48561111092567444,0.7711691856384277,0.9071928669692165,1.6942928952405785,0.02666420303285122,0.9852088093757629,0.9502890355177521,1.1196327665025514,0.06930029392242432,0.2370682656764984,0.9790528682806456,1.1391374453325542,-0.39942604303359985,0.9976983666419983,0.010207980871200562,0.9048164228561961,1.1133383833080923,171.151302286133,173.87062699157386,1.0,-0.010076716345226807,-0.020905686780048904,0.10373601951983545,0.044463489175968526,127.60796362690938,0.8918246972935611,62,2.066666666666667
0.9862120614344425,0.6309058475089426,-0.19936716556549072,0.9999712109565735,0.8786189661620801,0.7281251558857569,0.04504655301570892,0.9999843239784241,0.9071475215686219,0.7490235733872552,-0.3595106601715088,0.9999988675117493,0.907575827008996,1.1128205936034152,0.13512328267097473,0.9999937415122986,0.9087249959245943,1.1140473921342164,-0.13521724939346313,0.9999974370002747,0.937434289305348,1.3790540142208385,0.3041139543056488,0.4903739094734192,0.923749578437178,1.4129465910634171,-0.06640669703483582,0.9843981862068176,0.9300625189897195,1.6309058475089426,0.47516506910324097,0.7677760124206543,0.9090115870405204,1.6945501981375097,0.0353107675909996,0.9854080677032471,0.9520268668878246,1.120709457113009,0.06018860265612602,0.21758273243904114,0.9816780980899416,1.138968467697607,-0.41479983925819397,0.9977324604988098,0.01043790578842163,0.9081504114667952,1.113433992868816,171.92435123104545,174.12647468481893,1.0,0.012048801544154298,-0.015002810181104087,0.1648573346690643,0.04423949477217612,141.17601044046424,0.8896780814686057,63,2.1
0.9896589964374553,0.6379884858120297,-0.17805083096027374,0.9999730587005615,0.8762451743152602,0.7308265505674199,0.056255120784044266,0.9999843239784241,0.9133609970448536,0.7528077787774502,-0.3516828417778015,0.9999988675117493,0.907259850512826,1.1174578486162798,0.1349169909954071,0.9999937415122986,0.9133946947672893,1.1172754492005335,-0.13502058386802673,0.9999974966049194,0.9426225522307202,1.3849885040999395,0.29349157214164734,0.48687565326690674,0.9279796326648453,1.4181995882522065,-0.06612759083509445,0.9848887324333191,0.9324140011038702,1.6379884858120297,0.45451250672340393,0.7628018856048584,0.9133746080466204,1.700826343704177,0.03613477200269699,0.9854171872138977,0.9491931284227997,1.125101955097485,0.059954095631837845,0.20036226511001587,0.9868269487042116,1.1412603128072032,-0.38626986742019653,0.9977554082870483,0.01092541217803955,0.9103272726400576,1.1173666489084066,170.15955644408302,174.2670214686115,1.0,-0.01749678139559303,-0.0116451333134991,-0.22973511417670575,0.026624277940692585,92.88331554833839,0.8799539579523924,64,2.1333333333333333
0.9944574721533477,0.6486980869812562,-0.16205063462257385,0.9999747276306152,0.8780366792618849,0.7357928317002047,0.060835935175418854,0.9999841451644897,0.9224390189131104,0.7585088351449448,-0.3414161503314972,0.9999988675117493,0.9124263094014529,1.1250746579678086,0.1345270425081253,0.9999938607215881,0.9204802546200409,1.1258978122423493,-0.13463976979255676,0.999997615814209,0.9464635213351857,1.39508519670888,0.29998505115509033,0.497141033411026,0.9332663106908761,1.427094887183314,-0.06309597194194794,0.9858812689781189,0.9363271213638235,1.6486980869812562,0.4636850357055664,0.7696943879127502,0.9195715613599456,1.710774278131249,0.022795122116804123,0.9862717390060425,0.9485166380872686,1.1321977555101415,0.06830165535211563,0.18450255692005157,0.9931305614677597,1.1494732500818265,-0.3684777617454529,0.9977002739906311,0.01121470332145691,0.9164532820107469,1.125486235105079,170.52647893773397,174.80537428125456,1.0,-0.00026377840298719406,0.0040300086298707405,0.12584141958089645,0.11425573938257541,100.88413066496109,0.8714862967908088,65,2.1666666666666665
0.9959545214460482,0.6526251423520093,-0.1520671248435974,0.999975860118866,0.8796554569894458,0.7378699502792442,0.06835345923900604,0.9999837279319763,0.9266303186566449,0.7612806892894027,-0.33180904388427734,0.9999988675117493,0.9146539854991318,1.1293777139493044,0.13415081799030304,0.9999939203262329,0.9238757081584967,1.1291677950513617,-0.13426412642002106,0.9999976754188538,0.947363865355065,1.3992922561354366,0.3017337918281555,0.5085778832435608,0.9352626582971897,1.431092790084855,-0.05714317038655281,0.9867364764213562,0.9390891989463379,1.6526251423520093,0.4645930826663971,0.7766451239585876,0.9220805020814536,1.714752782968919,0.028618935495615005,0.9870011806488037,0.9495071808848384,1.1348972250876568,0.0745762512087822,0.16992297768592834,0.9957255960504255,1.1529842683097642,-0.35901132225990295,0.9975718855857849,0.011526376008987427,0.9192648468288143,1.1292727545003332,171.2194452549493,175.17942518519894,1.0,0.002489463938861219,0.005637511268147884,0.021296178837746392,0.012346050161308793,93.80430396002957,0.870600943304476,66,2.2
0.9909881105045681,0.6511456560120727,-0.08704373240470886,0.9999774694442749,0.8755496221894665,0.7369800791689433,0.11325214058160782,0.9999830722808838,0.9286119159403243,0.7606304142998881,-0.2896721661090851,0.999998927116394,0.9125747701813635,1.1290018994715436,0.13409259915351868,0.9999939203262329,0.9250391335414447,1.1288191079228038,-0.1342175006866455,0.9999977946281433,0.9483499554483404,1.398725406990948,0.28761720657348633,0.5263302326202393,0.9344387443563412,1.4300603060893478,-0.0704631581902504,0.9877451062202454,0.9396763089511062,1.6511456560120727,0.4324754774570465,0.783638596534729,0.9214841343044875,1.713355632450593,-0.007775266654789448,0.9878297448158264,0.9418477298009441,1.1322057719909513,0.11611215025186539,0.1570650041103363,0.9960325402829446,1.1525371279455554,-0.32131439447402954,0.9977086782455444,0.01165267825126648,0.918806951861404,1.1289105036971738,170.47656860758147,175.59456922882876,1.0,0.0014688020561625015,0.003277003254921002,-0.007492866626183643,-0.017329554462213227,94.5551998600713,0.873017413316138,67,2.2333333333333334
0.9906852639902178,0.6524089420884114,-0.09972046315670013,0.99997878074646,0.8744761839218724,0.7380087828323302,0.10431469976902008,0.9999827146530151,0.9306146189425076,0.7611275703730377,-0.29661205410957336,0.999998927116394,0.9145653038381636,1.1308226187253843,0.13395389914512634,0.9999939799308777,0.9284389026839205,1.1310231427777295,-0.13408364355564117,0.9999978542327881,0.9511648205933719,1.4010616748980478,0.28949040174484253,0.5424993634223938,0.9361914896865209,1.4323194368751495,-0.08093644678592682,0.9886993169784546,0.9410351451418535,1.6524089420884114,0.44286903738975525,0.7915834784507751,0.9235109786615753,1.7160074170878479,-0.021044481545686722,0.9886597990989685,0.9443845026288643,1.1326985787872936,0.10701151937246323,0.14665602147579193,0.9974405013028611,1.154495967346203,-0.3337177038192749,0.9978277683258057,0.011373043060302734,0.9215021032610421,1.1309228807515568,169.9792828591796,175.9667117150816,1.0,0.009719678137640842,0.0019380105591360098,0.06352294652995143,-0.01035103917360238,96.65529417173659,0.8736829482091074,68,2.2666666666666666
0.9911028046952143,0.6529221592764279,-0.0437079593539238,0.999979555606842,0.8753829159802137,0.7389832138999616,0.14615853130817413,0.9999816417694092,0.9331732571715978,0.7595746509575606,-0.25670188665390015,0.999998927116394,0.9151350280192928,1.1323547724631557,0.13422435522079468,0.9999938011169434,0.9318055170471953,1.1329718902078747,-0.1343696564435959,0.9999978542327881,0.9573442682990666,1.4029690921302687,0.2703913748264313,0.546771228313446,0.9440121230215186,1.4325696354656245,-0.10703624784946442,0.9893815517425537,0.9424593203613251,1.6529221592764278,0.39272359013557434,0.7895232439041138,0.9259098407594807,1.718142903822254,-0.08037977665662766,0.9891286492347717,0.9448773252537452,1.1352813202267893,0.14625565707683563,0.13607963919639587,0.9981848586091292,1.1553525077368696,-0.29886943101882935,0.9978765249252319,0.010117202997207642,0.9234702725332441,1.1326633313355152,167.72669230553092,174.03978535610574,1.0,0.00643183369850256,0.0026393063222337537,-0.0256862652757604,0.005440178817850468,97.89046813626845,0.8761426800581936,69,2.3
0.9932144488220143,0.6555032547603534,-0.05953063815832138,0.9999807476997375,0.8753613727842359,0.7396721491161301,0.1356143206357956,0.9999803900718689,0.9389711425457158,0.7624338543791598,-0.2652193009853363,0.999998927116394,0.9166889131109907,1.1368922366810579,0.13446059823036194,0.9999938011169434,0.9363507712168359,1.1376755713337514,-0.13461941480636597,0.9999979138374329,0.9691656974442976,1.405073163602706,0.2509395480155945,0.5345107913017273,0.9548421943600393,1.4334711151436175,-0.1059337705373764,0.989716112613678,0.9461217505678323,1.6555032547603534,0.3701116144657135,0.7728402018547058,0.9311784729115034,1.7242755798588487,-0.0916987806558609,0.9892452955245972,0.947339621607468,0.9930754288428398,0.23213787376880646,0.1306552141904831,1.002470390510349,1.1600293506920552,-0.32492589950561523,0.9978850483894348,0.01113995909690857,0.9265198421639133,1.1372839040074048,163.6710304539078,171.77075784572543,1.0,-0.004323149210815878,0.001472139166432423,-0.08297243059481829,-0.009062879292712428,98.22126761013897,0.8799336614886,70,2.3333333333333335
0.9855658511695032,0.6507609394672246,-0.062226783484220505,0.9999819993972778,0.8705261028534853,0.7341182153866592,0.13588562607765198,0.9999797940254211,0.9326237511661821,0.7547717000443829,-0.2687916159629822,0.999998927116394,0.9100155490943784,1.127462599144347,0.13437849283218384,0.9999934434890747,0.9285264591239972,1.1277621079137343,-0.13453592360019684,0.9999978542327881,0.9736538560244438,1.393438946405442,0.221321702003479,0.532486081123352,0.9587796225344118,1.4175419146218853,-0.09638729691505432,0.9895718693733215,0.9416264050795721,1.6507609394672247,0.31781667470932007,0.7638306021690369,0.9243600868333892,1.708616251369981,-0.053995709866285324,0.98880934715271,0.9408415834110788,1.102060511640686,0.15686194598674774,0.12244048714637756,0.9943084276091532,1.1504000193231465,-0.32938700914382935,0.9979970455169678,0.010193318128585815,0.9192710041091878,1.1276123535290405,159.44939490959692,167.29597421522735,1.0,0.0037203723291812066,-0.0012897900138758435,0.06060743778098091,-0.020811744363138998,96.65991941802014,0.8717768825899979,71,2.3666666666666667
0.9901991476902106,0.6587882131161782,-0.03410429134964943,0.9999833703041077,0.8756322070603216,0.7368214426228593,0.15089306235313416,0.9999798536300659,0.9396812862339263,0.7544513332372953,-0.2540822923183441,0.9999989867210388,0.9126101697425836,1.1304408902296164,0.13432469964027405,0.9999929666519165,0.9360036142335091,1.1285344573298441,-0.13448666036128998,0.9999977350234985,0.9806386938737054,1.3961080576657707,0.1996111422777176,0.5152481198310852,0.9749206700148835,1.4146607506782911,-0.09532482177019119,0.9877704381942749,0.9467709777583435,1.6587882131161782,0.27298277616500854,0.7355141639709473,0.9340750233918054,1.712415896192531,-0.06675372272729874,0.9858880639076233,0.9442572351295775,1.1312935764004928,0.1602606475353241,0.11690365523099899,1.0005243236834587,1.1561010011200992,-0.3280593454837799,0.9980974197387695,0.008654922246932983,0.9243068919880464,1.1294876737797304,158.29038075201547,164.4435216883516,1.0,0.0010422934418398474,-0.031672886681900235,-0.020665312790897318,-0.23267432565758178,90.70782628085941,0.8542989831135798,72,2.4
0.9928487547840267,0.6622615288197677,-0.0020766183733940125,0.999984622001648,0.8772384377148629,0.7368672763448515,0.1760772317647934,0.9999791979789734,0.9435436783917152,0.7484713627706892,-0.22268323600292206,0.9999989867210388,0.9124472311970259,1.1297188300506849,0.13401371240615845,0.9999929666519165,0.9457373637807349,1.1263817851036513,-0.13420790433883667,0.9999977350234985,0.9870413571119995,1.3970540739523818,0.19219061732292175,0.5079621076583862,0.9958484688072334,1.4119955704020104,-0.0949612557888031,0.986808180809021,0.9464460386129517,1.6622615288197677,0.2617381811141968,0.7167953252792358,0.951559729599815,1.7076386226870865,-0.0698096975684166,0.9845497608184814,0.9434569726618355,1.131799037414283,0.1946811079978943,0.10970994085073471,1.0067239837175765,1.1568862603362358,-0.29358890652656555,0.9979076385498047,0.0056836605072021484,0.9290922974888803,1.1280503075771682,155.70666999914766,161.528881527394,1.0,0.020006277840255406,-0.03029563876257709,0.14248544675034466,0.010895891694147121,89.39709499799761,0.843652834159683,73,2.433333333333333
0.992679138241317,0.6624532376769762,0.010153205133974552,0.9999853372573853,0.8776540716291443,0.7304422950957263,0.17625118792057037,0.9999781847000122,0.9463767296205676,0.7452329647084726,-0.20277027785778046,0.999998927116394,0.909964244422428,1.1237307195695951,0.13179372251033783,0.999993085861206,0.9484579608920709,1.1202843416844106,-0.13204360008239746,0.9999977946281433,0.984577723527097,1.3935450204626025,0.1622607409954071,0.512999951839447,1.0027515799294375,1.4028889095673995,-0.10588537156581879,0.9874376058578491,0.9440370777858668,1.662453237676976,0.20259761810302734,0.7223326563835144,0.9620056695610499,1.7008261064979786,-0.1263330578804016,0.9852785468101501,0.961643856444914,0.8793749494440826,0.25719013810157776,0.11344409734010696,1.0099115142204294,1.149496995229954,-0.28996002674102783,0.997807502746582,0.007247656583786011,0.9292111026572494,1.1220075306270028,155.96858374916656,161.33745235050512,1.0,0.0040696641137683495,-0.042500509904320284,-0.12213282129736058,-0.09368909416967329,89.58042078467285,0.8282142240033964,74,2.466666666666667
0.9879613765167435,0.6592880962775156,-0.010418156161904335,0.9999862313270569,0.8722019875095075,0.72697324561369,0.16288593411445618,0.9999774694442749,0.9447126210479089,0.7408329024559075,-0.22291651368141174,0.999998927116394,0.9019714162886011,1.1178165853603033,0.13176393508911133,0.9999932646751404,0.9462189318109314,1.1142354053599801,-0.132017582654953,0.9999978542327881,0.9737592772807144,1.387449722308754,0.19072608649730682,0.5123858451843262,1.010913369155624,1.395411356655932,-0.10064669698476791,0.9879732728004456,0.9377303792098611,1.6592880962775156,0.2555140256881714,0.727855384349823,0.9671121544837651,1.691358328803648,-0.0994798094034195,0.9859551191329956,0.9615858677933897,0.8970277295421688,0.25308868288993835,0.11281636357307434,1.0123791896462075,1.1440349143564161,-0.3000548481941223,0.9976813793182373,0.006824612617492676,0.9240951740497663,1.1160259953601417,157.54140063768105,158.62373261777694,1.0,-0.005091762562140036,-0.004486297301346985,-0.07756670987034237,0.32079730532306927,89.72848942901922,0.8235147809662599,75,2.5
0.9863423443012665,0.656194242428662,-0.031577933579683304,0.9999872446060181,0.8679810773650973,0.7239124022978793,0.15071386098861694,0.9999771118164062,0.9453321929353745,0.7378912167862208,-0.2406037151813507,0.999998927116394,0.8968000917011099,1.1133991255850797,0.13160830736160278,0.9999933838844299,0.9455345669671823,1.110621213547513,-0.13186383247375488,0.9999979138374329,0.9627774612460961,1.383103564277982,0.20163702964782715,0.5230889916419983,1.0132273547496244,1.3913907748538876,-0.09808914363384247,0.988246500492096,0.9328616013535316,1.656194242428662,0.2718464732170105,0.7354164123535156,0.9760759904244177,1.6849108644239832,-0.08946876227855682,0.986423671245575,0.9424569509212237,1.0871237684141988,0.208026722073555,0.10554239898920059,1.0150171415264644,1.1382461728828681,-0.31096547842025757,0.9977413415908813,0.006912678480148315,0.921167329334146,1.1120101695662965,160.00221701561236,159.23116331051364,1.0,0.007104868764141272,0.00517534138579738,0.08639250921768446,0.06842271083395896,90.96935002249117,0.8229169544207405,76,2.533333333333333
0.9856569780334755,0.6543281210935779,-0.039522960782051086,0.9999881982803345,0.8655690948633407,0.7219878105954055,0.146294504404068,0.9999768137931824,0.944487695929377,0.7362696973844784,-0.24676267802715302,0.999998927116394,0.894322766205075,1.1108464925750816,0.13146620988845825,0.9999935030937195,0.944851320991722,1.1085565383471152,-0.13172313570976257,0.9999979734420776,0.9572506410627494,1.3807289056436545,0.20355801284313202,0.5335208177566528,1.0112248874634835,1.3890363166398232,-0.0974593535065651,0.9884918332099915,0.929972689948409,1.6543281210935779,0.27367454767227173,0.7429274916648865,0.9758309259478672,1.6813450604670186,-0.08517567813396454,0.9868723750114441,0.9348761279274929,1.1127157742643987,0.195907324552536,0.09913785010576248,1.0146597586921808,1.1347796221124675,-0.3146539032459259,0.9977983236312866,0.007080525159835815,0.9195870435983985,1.1097015154610983,161.18137867029628,159.78227098795364,1.0,0.005944733558152987,0.004032133438246098,-0.008955695219299117,-0.008861369763544872,91.63409946999685,0.8229590042819525,77,2.566666666666667
0.977196112101371,0.6484563165483777,-0.04029666632413864,0.999987781047821,0.857953787860463,0.7133482049074288,0.12795159220695496,0.9999741911888123,0.9392201562933247,0.729932043634776,-0.24828770756721497,0.9999987483024597,0.886594158905482,1.1050476407114762,0.12990200519561768,0.9999935626983643,0.9400168988299628,1.1009920168459244,-0.13016073405742645,0.9999979734420776,0.9409360154913488,1.373910027254755,0.20093794167041779,0.555709183216095,1.007283941452501,1.37772292853792,-0.0800112783908844,0.9892410039901733,0.9210781625102162,1.6484563165483777,0.26516568660736084,0.7614343166351318,0.9827690202098425,1.6670295391118783,-0.07970001548528671,0.9878208041191101,0.9399082277474212,0.8481548019570804,0.23239333927631378,0.09971370548009872,1.0071228413389088,1.1244419733953648,-0.3249005079269409,0.9975168704986572,0.008295565843582153,0.9133055288677224,1.1030198287787003,164.4364620048516,161.4941706888204,1.0,0.013676876533546586,0.022972726083459197,0.05604685900868385,0.13661746851985487,89.84060309991436,0.8254958457488974,78,2.6
0.981175065842377,0.6487715782234148,-0.053262848407030106,0.9999884366989136,0.8586978113908028,0.7150540570446335,0.10655226558446884,0.9999738335609436,0.9442207038385557,0.7305732793939353,-0.2639123201370239,0.9999986886978149,0.8875669870471041,1.111486931206282,0.12915582954883575,0.9999936819076538,0.9471684081550112,1.108383682918756,-0.1294088065624237,0.9999980330467224,0.9399135845629792,1.3768263449634994,0.2325470745563507,0.5760542154312134,1.0131534516095493,1.3792337292302,-0.057494860142469406,0.9899042844772339,0.921814919725241,1.6487715782234147,0.31254348158836365,0.7784110307693481,0.9938553871512691,1.668597621757126,-0.03436456620693207,0.9887017011642456,0.9447628720535477,0.8950672589062486,0.258697509765625,0.09910564869642258,1.016037543270914,1.125589624328818,-0.33250510692596436,0.9975071549415588,0.007757842540740967,0.9173676976010576,1.109935307062519,165.0323363881153,162.49272106684575,1.0,0.02753009807965251,0.04927371950808103,0.11040104289481326,0.20961752105365788,91.18455163411087,0.8460959944498142,79,2.6333333333333333
0.9819254903323326,0.6483807878035842,-0.04154107719659805,0.9999883770942688,0.8585220751981273,0.715083780570884,0.10997434705495834,0.9999726414680481,0.9455181198328649,0.7290803348159571,-0.2617422342300415,0.9999986290931702,0.886724248482686,1.1141055742645767,0.12610331177711487,0.9999936819076538,0.9502565841256053,1.110129528989772,-0.12633642554283142,0.9999980330467224,0.9325401902930643,1.3788992476349247,0.2475316822528839,0.6050978899002075,1.015473238246199,1.3792935385926877,-0.050376661121845245,0.9905930161476135,0.9215185184147763,1.6483807878035843,0.3399384617805481,0.7962636947631836,1.0066350657800205,1.6681453968169586,-0.005954780615866184,0.9895105957984924,0.935893212945068,1.0822346356596004,0.16879063844680786,0.09237240254878998,1.02260277683102,1.1253781477347906,-0.3019936978816986,0.9975306391716003,0.006999224424362183,0.9184904163041456,1.1121175516271744,167.8415184994861,164.6275214156295,1.0,0.011084219502828622,0.01968299674464639,-0.12512763958817993,-0.22514024580293007,90.4617716838207,0.8540426827662618,80,2.6666666666666665
0.9859533031643098,0.6505961820690439,-0.0581028051674366,0.9999887943267822,0.8601132403666523,0.7172147307606529,0.0826626867055893,0.9999726414680481,0.9488762827539372,0.7313078586174214,-0.27058905363082886,0.9999985694885254,0.8882051420386405,1.1212828998547926,0.12367694079875946,0.9999938607215881,0.9532179413046246,1.1183789915981934,-0.12390559911727905,0.9999980926513672,0.9326846875923361,1.3841259261810026,0.25172847509384155,0.6254546046257019,1.0170659068053016,1.3854789905896017,0.006276173982769251,0.991138219833374,0.9229879448239527,1.6505961820690438,0.34686583280563354,0.8112241625785828,1.0178035513046968,1.670684103802814,0.06850524246692657,0.9902568459510803,0.9452070384892277,0.876103236570409,0.27564364671707153,0.09019552916288376,1.029808417132474,1.1297769120733128,-0.30988842248916626,0.9970830678939819,0.00703766942024231,0.9207115416716325,1.119830945726493,168.3110808697985,166.7043963115644,1.0,0.0073269008899112835,0.04820694734933562,-0.029539215955755937,0.22311145729719054,91.4194425378551,0.8723228049300574,81,2.7
0.9874622989268627,0.6525973185525538,-0.02167285978794098,0.9999884963035583,0.8616464847991987,0.7212281425541909,0.08791731297969818,0.9999714493751526,0.9538074534284027,0.7314349845513107,-0.23500914871692657,0.9999983906745911,0.8899441027842554,1.125360211854758,0.11870647966861725,0.9999939799308777,0.9557684383064843,1.1221142623717897,-0.1189502701163292,0.9999980926513672,0.9298168043646471,1.3872716765141362,0.24398350715637207,0.6489207744598389,1.0213605786800495,1.3896816278099484,-0.0019290030468255281,0.9915045499801636,0.9237283773498773,1.6525973185525538,0.33637070655822754,0.8246711492538452,1.029614984693593,1.6749173462390154,0.03834288939833641,0.9908468723297119,0.9479808138894308,0.9664895889709456,0.24452035129070282,0.08563510328531265,1.0369725339562987,1.1351114515789718,-0.2716929316520691,0.9963287711143494,0.005088239908218384,0.9228562705453699,1.123737237113274,170.02937161215502,167.88360956145894,1.0,0.004229289250524726,0.01488632622174931,-0.023349037706500368,-0.2507680220612345,91.18225432513611,0.8762697232979226,82,2.7333333333333334
0.9947522863866428,0.6601726213204488,-0.023282155394554138,0.9999887943267822,0.8698543234268393,0.7255764717303632,0.09707356989383698,0.9999701380729675,0.9652862600051568,0.7355917211164589,-0.2363172471523285,0.9999983310699463,0.8944100763214232,1.1305479374039855,0.11879249662160873,0.9999940991401672,0.9628633233521063,1.1273439082595396,-0.11903592199087143,0.999998152256012,0.9345208157964993,1.3946103056149028,0.22572581470012665,0.6675449013710022,1.0315833625497088,1.3964912474627411,-0.006006521638482809,0.9918938875198364,0.9273390542160611,1.6601726213204488,0.29157736897468567,0.8366013765335083,1.0439755913702797,1.6831720164874076,0.026983093470335007,0.991386890411377,0.9632288784828663,0.9126488443171286,0.2891797423362732,0.08193502575159073,1.0480987648862339,1.1431127010372995,-0.273015558719635,0.9958482384681702,0.004968434572219849,0.9286366998367648,1.1289459228317624,169.8137619017843,168.15212597981986,1.0,0.010166242433303219,-0.002293202578587479,0.04743513830701125,-0.1383245904598616,90.7900889158395,0.8675083111319215,83,2.7666666666666666
0.9950155918418299,0.6590403875514926,-0.009238393977284431,0.9999887347221375,0.8741347067917535,0.7254389481568259,0.11289624124765396,0.9999678730964661,0.9739031697410242,0.7349455905935223,-0.22349122166633606,0.9999983310699463,0.8942975149076733,1.1302193660517952,0.11745675653219223,0.9999942183494568,0.9653607848973987,1.1263336486110178,-0.11769688129425049,0.9999982118606567,0.9350171282203935,1.3945495770157768,0.2182246744632721,0.6884743571281433,1.0376554382999972,1.398758174014077,-0.015004766173660755,0.9923842549324036,0.9265301970405508,1.6590403875514927,0.2889121174812317,0.8486309051513672,1.0604893845843615,1.6855683640449006,0.019251195713877678,0.9919804930686951,0.9618184720715184,0.8971865067552645,0.3169200122356415,0.07898540794849396,1.0540097079920492,1.1437900298633583,-0.2666357159614563,0.9959046244621277,0.004720836877822876,0.929829149902536,1.1282765073314065,169.4046595402468,169.68961298025195,1.0,0.01643436927097475,0.003552471833467699,0.04866842050585389,0.045297148047590996,89.7218456661219,0.864896989824771,84,2.8
1.0029331896297422,0.6574317702932357,0.044401027262210846,0.9999881386756897,0.8759898863626359,0.7308577646508693,0.15679726004600525,0.9999663233757019,0.9872536136583578,0.7388269888904642,-0.1747065633535385,0.9999982714653015,0.89665386619382,1.1278905059136675,0.1117892637848854,0.9999938011169434,0.9770462383314954,1.123998553620241,-0.11203096061944962,0.999998152256012,0.9340799307501068,1.3918175563357669,0.20845918357372284,0.711688220500946,1.039967052154305,1.4017790566870296,-0.03426876291632652,0.9928551912307739,0.9247502781741426,1.6574317702932357,0.2494182586669922,0.8600422739982605,1.0697771618025649,1.6867514477124552,-0.032660339027643204,0.9924933910369873,0.93881923828831,1.0950110619780435,0.262859046459198,0.07403072714805603,1.067303557724047,1.1433419961586002,-0.17719560861587524,0.995884120464325,0.003965198993682861,0.9368500522626577,1.1259445297669541,169.9173304404668,173.20896875077534,1.0,0.07012840451528496,-0.0008510792033825327,0.42553414633612896,-0.03482235075721446,90.20769292520248,0.8610868098325836,85,2.8333333333333335
1.0081857388801834,0.6557602465642539,0.16535112261772156,0.9999879002571106,0.8760784014778155,0.7516675805679144,0.26186805963516235,0.9999661445617676,0.9978376322593817,0.7401201131913169,-0.0790124163031578,0.9999982714653015,0.9013193686350528,1.1258846512220149,0.11270631849765778,0.9999934434890747,0.9842040287128545,1.1180833013607514,-0.112958624958992,0.9999980330467224,0.9374934030371519,1.3873445779487557,0.19207847118377686,0.7271069288253784,1.0439444488457439,1.4034999266405763,-0.06805149465799332,0.9930887222290039,0.9239145497945338,1.6557602465642538,0.20579898357391357,0.8645883202552795,1.070495773276538,1.6874485257388658,-0.10011309385299683,0.9925199151039124,0.9236650918524607,1.109576600043226,0.3194877803325653,0.07068280130624771,1.0775552714789332,1.1421937794559627,-0.0892217755317688,0.9955763816833496,0.005751371383666992,0.9427616986739537,1.1219839762913832,169.22684317464535,173.52016783595653,1.0,0.052460715010067896,-0.02168118111117197,-0.13474740186495973,-0.15950780899855055,88.48175214721057,0.8524013111682699,86,2.8666666666666667
1.0054658600260742,0.6438781921903497,0.1357327103614807,0.9999868869781494,0.87559499293816,0.7492359357159463,0.23161570727825165,0.9999639987945557,1.0036556561085703,0.7366108719584767,-0.10276485979557037,0.9999982118606567,0.9030407371965401,1.1182741256451756,0.11159241199493408,0.9999931454658508,0.9867891491667112,1.1100770296630569,-0.1118408665060997,0.9999979734420776,0.9348942394275538,1.377020943121353,0.19331684708595276,0.7382149696350098,1.0415578334116662,1.3989141035237633,-0.04703465849161148,0.9930996894836426,0.9170986759666631,1.6438781921903498,0.250150591135025,0.8675205111503601,1.0662817927688018,1.6798649557206196,-0.059340931475162506,0.9925041794776917,0.9199391637385733,1.0998887925885186,0.30081644654273987,0.06565209478139877,1.0829511946935715,1.1352032829754584,-0.1212216392159462,0.9948921799659729,0.006329953670501709,0.9449149431816257,1.1141755776541162,169.16664915410675,174.29229451615623,1.0,0.06707404191222416,-0.0030923581497808365,0.11960994606688323,0.14747353336945515,88.66314588193991,0.8626277069651258,87,2.9
1.0095671060671156,0.6440598876994138,0.12618163228034973,0.9999855160713196,0.8770745355373227,0.7479206551908173,0.22213976085186005,0.9999621510505676,1.0062841350520844,0.738164984040948,-0.11325617134571075,0.999998152256012,0.9061977019559688,1.119702196804027,0.11091955006122589,0.9999927282333374,0.98841939229238,1.1110609090192802,-0.1111716777086258,0.9999978542327881,0.9376890222237418,1.377102989776395,0.20283791422843933,0.7501189112663269,1.0430445143824731,1.404515988041489,-0.032812826335430145,0.9929743409156799,0.9167434911299782,1.644059887699414,0.24773149192333221,0.8708536624908447,1.066040058930305,1.6818653136284507,-0.033958204090595245,0.9922476410865784,0.9217906844329742,1.1010327669740536,0.2920334041118622,0.060688722878694534,1.083932155817435,1.1356956793858404,-0.12605415284633636,0.9944987893104553,0.004889249801635742,0.9473085471241743,1.1153815529116535,168.53863951154472,174.1950340282397,1.0,0.015163164346714468,0.005611038789092578,-0.39421268523781816,0.0660679234618121,88.47945184920735,0.8654079177539628,88,2.933333333333333
1.0026343347571876,0.6368494652062966,0.16349884867668152,0.9999810457229614,0.8795391906966877,0.7478267759818172,0.23681242763996124,0.9999577403068542,1.0124361470075223,0.7355320490988405,-0.0868002250790596,0.9999980330467224,0.9095597576125393,1.1149587492065105,0.10874594748020172,0.9999924898147583,0.9919829949998984,1.1060615993609326,-0.10900368541479111,0.9999977946281433,0.9345644701361618,1.3722823780871767,0.20137770473957062,0.7578738927841187,1.0429359907524978,1.3984460486666446,-0.025363553315401077,0.9924359321594238,0.9130436790978391,1.6368494652062966,0.23547737300395966,0.8719731569290161,1.0624577716132502,1.6756349411226212,-0.024981724098324776,0.9917184114456177,0.920802894398549,1.0877309928658048,0.33138975501060486,0.05582413077354431,1.08939795001225,1.1309803227636004,-0.11107887327671051,0.9935744404792786,0.006187170743942261,0.9507713763062189,1.1105101742837216,169.799470419463,174.14306185240085,1.0,0.05763141408454126,-0.002259800695591075,0.33324628568124653,-0.0614909703434057,88.51378507217532,0.8711229515239448,89,2.966666666666667
0.9951072967537895,0.6269151893370668,0.1988259106874466,0.9999783039093018,0.881041663796951,0.7443761520804467,0.22737152874469757,0.9999580383300781,1.0200869497342377,0.7292165776436733,-0.0754932090640068,0.9999980926513672,0.9105691832218353,1.1082580349388318,0.10433453321456909,0.9999923706054688,0.9933452030657863,1.0994095390877636,-0.10456424951553345,0.9999977946281433,0.930277919154195,1.3653810222968956,0.204701229929924,0.7670862078666687,1.0412811682020675,1.390857268527561,-0.0028611612506210804,0.9918386936187744,0.9075931556782165,1.6269151893370668,0.2424553632736206,0.8740799427032471,1.054950786290306,1.6655883599860746,0.026353880763053894,0.9906083941459656,0.9163867884532768,1.0976795862146749,0.3186127841472626,0.05195638909935951,1.0968136679227485,1.124044119802592,-0.07641743123531342,0.9933393001556396,0.007674902677536011,0.9519571931438109,1.1038337870132977,170.65951832417358,173.50836143067943,1.0,0.051905365448997876,-0.00011887656068819988,-0.04054251952326631,0.01603024985551402,88.53758440840066,0.8815472950167271,90,3.0
1.0088621549082575,0.627210323427432,0.17500534653663635,0.9999774694442749,0.8836129312596733,0.7469894407027347,0.21591801941394806,0.9999603033065796,1.0328116346758667,0.728915168833593,-0.08886699378490448,0.999998152256012,0.91636742567102,1.108153103660855,0.09805033355951309,0.9999917149543762,1.0046151797379093,1.0995202748193682,-0.09826113283634186,0.9999975562095642,0.9312649106814103,1.3675566051997876,0.1811409890651703,0.7790954113006592,1.0427861710673596,1.3909980015030656,-0.014961136505007744,0.9914969801902771,0.9074176478442555,1.627210323427432,0.18987753987312317,0.8775140047073364,1.053188406163828,1.6649702108558146,0.005454139318317175,0.9893627762794495,0.9005739977900664,1.1019947836999715,0.25266629457473755,0.05415859445929527,1.1092284704928204,1.1236896063153468,-0.07525359094142914,0.9935926795005798,0.009153515100479126,0.9604913027044646,1.1038366892401115,171.46565658888812,174.71355865380744,1.0,0.07186776682370757,0.002940092828363704,0.16236183158696776,0.024858436571243675,89.59488964722361,0.8828957580631653,91,3.033333333333333
1.0279995153669645,0.6205571861413475,0.0870511382818222,0.9999790787696838,0.8875111508680577,0.7445407712195034,0.07672055065631866,0.9999638795852661,1.0382422240225,0.724464314320748,-0.15326468646526337,0.9999982118606567,0.9211932054542201,1.1043176125949725,0.08790747076272964,0.9999915361404419,1.0120262027741431,1.097340022300857,-0.08806759864091873,0.9999973177909851,0.9307958327420494,1.364420889606421,0.18460580706596375,0.7940501570701599,1.0431965241471575,1.3892670663892746,-0.017054755240678787,0.9914401173591614,0.9038904344821914,1.6205571861413475,0.21853084862232208,0.8852466344833374,1.050804113941283,1.658873676014844,0.01887037605047226,0.9892189502716064,0.8859909576197554,1.1002916649155283,0.08517588675022125,0.104132279753685,1.1126154586332468,1.1190629302561597,-0.17679183185100555,0.993950605392456,0.01020762324333191,0.9666097041141816,1.1008288174479146,171.8891390212345,175.52167872438267,1.0,0.07282649910380551,0.009797497765891347,0.00913639640915122,0.05056090478076396,90.9556929987622,0.898299173065381,92,3.066666666666667
1.0402649247757292,0.6183749707670121,0.06374002993106842,0.9999809265136719,0.89047213873076,0.7425342827212627,0.03594066575169563,0.9999673366546631,1.0485324088830819,0.723589667488849,-0.16137917339801788,0.9999983310699463,0.9289226425625864,1.1028524078762085,0.07848378270864487,0.9999915957450867,1.0182978747069018,1.0966773471345233,-0.0785958543419838,0.9999971389770508,0.9357127156106643,1.364122935726648,0.18051007390022278,0.8100658655166626,1.0463657578756376,1.3889271442231956,-0.006111860275268555,0.9914648532867432,0.9027720336237168,1.618374970767012,0.22096498310565948,0.8936752080917358,1.0490342064740201,1.6577188991010436,0.03972429409623146,0.9892971515655518,0.875819379795271,1.0994571371955708,0.034803710877895355,0.1789073944091797,1.121326895197653,1.1176028686524901,-0.2104130983352661,0.9943419694900513,0.00964471697807312,0.9736102586347442,1.099764877505366,171.1292214514703,175.0828864500773,1.0,0.06376268908702087,0.0028573761102863105,-0.06923708555553948,-0.05347680597321936,92.13876834118314,0.9028285643811106,93,3.1
1.0480755677917954,0.6219516703472795,0.07135055214166641,0.999982476234436,0.8975168684812986,0.7444710708758466,0.03026486001908779,0.9999704957008362,1.0649851838559719,0.7283428979976347,-0.15000340342521667,0.9999983906745911,0.9394609503151885,1.1063065522341693,0.07115665078163147,0.9999915361404419,1.02987311127758,1.1016299812235346,-0.0712442547082901,0.9999969005584717,0.9407738006868626,1.3679209621005042,0.1745559424161911,0.8255265355110168,1.0532113694379606,1.3933511666136393,-0.0028468058444559574,0.9915623664855957,0.9069277517427116,1.6219516703472796,0.20828256011009216,0.9017273187637329,1.0540154044709324,1.6620095383364866,0.039775677025318146,0.9893046617507935,0.8768784827385966,1.103093228748143,0.03978407382965088,0.25236865878105164,1.1357943698300612,1.1202744164173837,-0.1931084841489792,0.9946514368057251,0.008191138505935669,0.9846670307963843,1.103968266728852,172.12331011026123,175.59744187493402,1.0,0.06503267413360055,0.011607181535923654,0.008333724012195435,0.06526239452868822,93.65124603344394,0.9036090079117072,94,3.1333333333333333
1.0492304497291425,0.6229714635820288,0.07647053897380829,0.999983549118042,0.9025182455521976,0.7451766589270998,0.02116316929459572,0.9999732971191406,1.0754991791389341,0.7334149307097121,-0.1494220346212387,0.9999983906745911,0.9440685008956103,1.112391120655617,0.06783296167850494,0.9999913573265076,1.0367631870623575,1.1098431810706624,-0.06793750822544098,0.9999966025352478,0.9471105966678864,1.3700450617084077,0.18561473488807678,0.8368163108825684,1.0566390903342073,1.3979432313324993,0.022502942010760307,0.9903882741928101,0.9097434801089059,1.622971463582029,0.2423871010541916,0.9069249629974365,1.0569759322019356,1.6658713194722397,0.0838899239897728,0.9876638650894165,0.8800719544062319,1.1034743311159085,0.04346196725964546,0.31206291913986206,1.1446737584847335,1.1221062935894208,-0.18777227401733398,0.994806706905365,0.005964875221252441,0.990415843978984,1.1111171508631397,170.919511836341,176.12547403571756,1.0,0.03386603251229592,0.04348211437880498,-0.2449551503834966,0.24963497204754168,94.88103366247361,0.9218588503610985,95,3.1666666666666665
1.0654031161563244,0.6239145370370861,0.045094266533851624,0.999984622001648,0.9075310121140063,0.745584511823373,-0.006280522793531418,0.999975860118866,1.088620721482447,0.7366778549172329,-0.17028020322322845,0.9999983906745911,0.950125486180637,1.115952195774325,0.06822006404399872,0.9999910593032837,1.0458444140781005,1.1149553184721788,-0.06831001490354538,0.9999961853027344,0.9521693023088363,1.3718071733634103,0.19972926378250122,0.8449134826660156,1.0587919360120779,1.4002800033390037,0.03298090398311615,0.9885385632514954,0.9122826213625759,1.623914537037086,0.27118247747421265,0.9101640582084656,1.0583161456415031,1.6675594795319253,0.11008447408676147,0.9855523705482483,0.8808266304717731,1.1019208506717686,-0.011507333256304264,0.37119653820991516,1.15195978512488,1.1231477603821336,-0.23177555203437805,0.9948902130126953,0.004512220621109009,0.9979849501293687,1.115453757123252,170.55189917168062,177.29980936837578,1.0,0.04941296676691141,0.024002789903499668,0.1173441086169442,-0.14770545462929396,95.9638380118294,0.9353442199661688,96,3.2
1.0514933567652964,0.6192245820348605,0.059566400945186615,0.9999851584434509,0.9117340823151073,0.7412254565712487,-0.012732568196952343,0.9999781250953674,1.1012937428674252,0.737357986763067,-0.15985117852687836,0.9999983906745911,0.9514885555499734,1.114480611971464,0.059239186346530914,0.999991238117218,1.0502924080826672,1.1121721595051666,-0.059337884187698364,0.9999961256980896,0.9527315368502656,1.3672386287846283,0.20024824142456055,0.8566300272941589,1.0553965865410855,1.3960746459426125,0.03714364022016525,0.9879993796348572,0.9146587200593076,1.6192245820348605,0.2661269009113312,0.9162009358406067,1.055193516823394,1.662422857396108,0.11117933690547943,0.984207034111023,0.8792853118395214,1.0987631096187807,-0.005884917452931404,0.4273146688938141,1.1609398446411139,1.1191995207460865,-0.20930540561676025,0.995059609413147,0.001966118812561035,1.0008904818163202,1.1133263857383153,171.1263487925876,178.9263276534623,1.0,0.04953497268939387,0.013523063060678074,0.0022824762789451203,-0.08093509450571233,94.74109632299547,0.9411556629623171,97,3.2333333333333334
1.0340749316331397,0.6019677269217847,0.08274228870868683,0.9999852776527405,0.9034957649601907,0.7317885053674611,-0.01160147599875927,0.999980092048645,1.0927176289483247,0.7291820459966694,-0.14053669571876526,0.9999983906745911,0.9437054183063714,1.102230825819715,0.054941870272159576,0.9999914169311523,1.0416088268549457,1.0996971434198077,-0.055051930248737335,0.9999961256980896,0.9442789936203302,1.3524414151183342,0.2046303004026413,0.8645817637443542,1.0444147125228465,1.381398530983795,0.050725191831588745,0.9868678450584412,0.9063347627001034,1.6019677269217847,0.2809516191482544,0.9199846982955933,1.044330047680224,1.6451557270604957,0.1314695179462433,0.9821369647979736,0.8714854956946768,1.0885110620415848,0.000568204210139811,0.4725037217140198,1.1486247240129095,1.1061134627189964,-0.18586048483848572,0.9951889514923096,0.0013395249843597412,0.9926571225806586,1.1009639846197614,171.22221165590517,179.41093278401624,1.0,0.0189258928346996,-0.0024628216553350857,-0.2207090010631466,-0.11624624678529594,94.71246550288413,0.9575919977144465,98,3.2666666666666666
1.0181300465280025,0.5841781672387147,0.10671601444482803,0.9999858140945435,0.8937885866362439,0.720201528638247,-0.0062547167763113976,0.9999819397926331,1.0829194859429991,0.719329464793491,-0.11941073089838028,0.9999984502792358,0.9329306850304996,1.087424529194825,0.05208302661776543,0.9999915957450867,1.0339153234533385,1.084770969218361,-0.05220062658190727,0.9999961256980896,0.9332550408197298,1.3346079043239694,0.1990414708852768,0.8707422614097595,1.0315262610876403,1.3631169927525824,0.05026126652956009,0.985462486743927,0.8989976788074237,1.5841781672387147,0.2741149067878723,0.922727644443512,1.0307889639831165,1.623487021590948,0.12118901312351227,0.979392409324646,0.8601964172305029,1.075755045683922,-0.005878580268472433,0.5195772051811218,1.1368693302831223,1.0874416969324343,-0.17665597796440125,0.9953063726425171,0.00045415759086608887,0.9834230042419191,1.086097749206593,172.1089321847938,179.67048423336692,1.0,0.028668752328228655,-0.002721265529628641,0.0745813640152765,-0.0021711546049922033,94.57894657202127,0.971142558289334,99,3.3
1.0190343188192703,0.587719180179772,0.10557003319263458,0.9999858140945435,0.8969517311759788,0.7202670205619441,-0.011897040531039238,0.999983549118042,1.0912855197078954,0.7198469121516372,-0.11923308670520782,0.9999984502792358,0.9341412053382806,1.0881797530197834,0.050194524228572845,0.9999915361404419,1.0373838065189713,1.0862856855175544,-0.050311170518398285,0.9999959468841553,0.9368282382039315,1.3362028236439878,0.1999044567346573,0.8762617707252502,1.0335798637542892,1.3639565540892584,0.05953817814588547,0.9834679365158081,0.906401048947985,1.587719180179772,0.2701001465320587,0.9251032471656799,1.0311880809029714,1.624972801774868,0.14420998096466064,0.9758283495903015,0.8608652492107718,1.0767484513979244,-0.0039058246184140444,0.5622806549072266,1.1436952323394243,1.0844777588536487,-0.17113669216632843,0.9955044984817505,0.00021860003471374512,0.985762505928626,1.0872327192686688,172.4814561740084,179.74013398867865,1.0,0.011814886224391145,0.0016564124162195062,-0.1327159990507498,0.03444046416369661,94.72096649692708,0.9638577221185716,100,3.3333333333333335
1.0096532547441435,0.5799460068629181,0.10117516666650772,0.9999861717224121,0.8909721577113228,0.713151672534436,-0.019749972969293594,0.9999850392341614,1.086805998846048,0.7138865996397238,-0.12069648504257202,0.9999984502792358,0.9274139173660122,1.0795850204413142,0.04834991320967674,0.9999915957450867,1.0310091512202717,1.0779919871071002,-0.048452991992235184,0.9999958276748657,0.9308860005051026,1.326682683361756,0.20757827162742615,0.8811593055725098,1.026044146193393,1.3528433610969306,0.0678802877664566,0.9816491603851318,0.9048770239969183,1.579946006862918,0.2970784604549408,0.9272094964981079,1.02257490390125,1.611967238216664,0.16903065145015717,0.9727490544319153,0.8520824402420742,1.0683307211745652,-0.013655880466103554,0.6015499234199524,1.1365527515449236,1.0756879465988953,-0.17214654386043549,0.9955309629440308,0.00038549304008483887,0.9792115342931419,1.0787885037742073,173.33150601719376,179.73215324833504,1.0,0.010229162691708357,0.0018654741118565305,-0.011521212353473677,0.0017173194115614578,94.79838997393628,0.9659233256283287,101,3.3666666666666667
1.004810645601624,0.5769169836624378,0.09417898207902908,0.9999865293502808,0.8877713562004226,0.7099295544618706,-0.030411118641495705,0.9999863505363464,1.0874542689251243,0.7115689877075618,-0.1237463727593422,0.9999984502792358,0.9244127033917449,1.07621137363111,0.04657673090696335,0.9999916553497314,1.0289814328312625,1.0754391165206592,-0.046676091849803925,0.999995768070221,0.9277420009213428,1.3226535374656485,0.21386680006980896,0.88563472032547,1.0236546473446926,1.3476673324205184,0.07680228352546692,0.9797978401184082,0.9040566761100813,1.576916983662438,0.31425410509109497,0.9290545582771301,1.0182440931302228,1.6058081387092404,0.18895618617534637,0.9697061777114868,0.8463489654647005,1.0632033353990626,-0.031282879412174225,0.6382777094841003,1.1335441626186467,1.0717017860454996,-0.18810875713825226,0.995566725730896,0.0008632242679595947,0.9766970681115037,1.0758252450758845,173.90411456785986,179.9202570469697,1.0,0.009381221616309292,0.00884538887619145,-0.006241633429033724,0.053908413503105324,95.28950114582209,0.9688354708879674,102,3.4
0.998225627208017,0.5686496086508169,0.09378578513860703,0.999987006187439,0.8861864585965901,0.702549646298232,-0.02837904915213585,0.9999875426292419,1.0824317518962783,0.7070480427253444,-0.11812980473041534,0.9999984502792358,0.920787374903062,1.0694349844665743,0.044191230088472366,0.999991774559021,1.0232741798862455,1.068564363383223,-0.04429107531905174,0.9999956488609314,0.9225125861220479,1.314656398010295,0.2076892852783203,0.8902972340583801,1.018366009935925,1.3391768856458501,0.07821062952280045,0.9777241945266724,0.9003599538376205,1.5686496086508168,0.2946615219116211,0.9310484528541565,1.0118668949848615,1.5955885756829198,0.18138428032398224,0.9667578935623169,0.8398906003128679,1.0559752882659705,-0.030808310955762863,0.6724198460578918,1.1284595839839695,1.062905945079773,-0.1878388375043869,0.9956390261650085,0.0023833811283111572,0.9720307773946537,1.0689996739248986,174.6123359573052,179.58714332953585,1.0,0.011130552928792717,-0.0011407352264412927,0.014370179709836338,-0.07895162975616617,94.90090977193181,0.9759766071162251,103,3.433333333333333
0.9905410146452592,0.5599034632831977,0.07971791923046112,0.9999876022338867,0.8825005475901955,0.6962716842645755,-0.04121633619070053,0.9999886155128479,1.0759036522730214,0.7018525247175121,-0.12115766853094101,0.9999984502792358,0.9160628281701618,1.0616813861666374,0.041490308940410614,0.9999918341636658,1.017572702720906,1.060971445670508,-0.04159388691186905,0.9999955892562866,0.9152806761367844,1.3060235591676093,0.20168575644493103,0.8934301733970642,1.0118032633806637,1.3295475425012089,0.08449284732341766,0.9747053980827332,0.8934106330008624,1.5599034632831978,0.293120414018631,0.9320029616355896,1.0045650201505374,1.5836941769353559,0.19978110492229462,0.9630227088928223,0.8314775954909619,1.047590809777833,-0.03883334994316101,0.7032678723335266,1.1201655827861992,1.0555177712425623,-0.18817201256752014,0.9958069920539856,0.002978116273880005,0.966817765445534,1.0613264159185727,175.25991530937543,179.59923873259902,1.0,0.013012245350928152,-0.0004140895641137684,0.01488241800274538,0.0054529049351776885,94.84709010938484,0.9827682412760015,104,3.466666666666667
0.9881048360582473,0.5593813101565003,0.07983599603176117,0.9999876618385315,0.8834359527265003,0.6941474736861111,-0.03620826452970505,0.9999895095825195,1.0757168627554126,0.7002209940933759,-0.1102205291390419,0.9999983906745911,0.9147683769254928,1.05769239770957,0.038220152258872986,0.9999917149543762,1.0165481990915046,1.058333569235714,-0.03832458332180977,0.9999953508377075,0.9126821454292483,1.3039076133462646,0.18639490008354187,0.8978479504585266,1.0099106862441123,1.3264254057725275,0.08557909727096558,0.9724457263946533,0.8905068944049677,1.5593813101565002,0.2721158564090729,0.9341117739677429,1.0021411763184918,1.5798274710291444,0.1900656521320343,0.9607176184654236,0.8283884293560043,1.0390756876628702,-0.048154301941394806,0.7310294508934021,1.115542385639541,1.0527658643979618,-0.1855964958667755,0.9959594011306763,0.0032481849193573,0.9656582880084987,1.058012983472642,175.52459741681136,179.66207527971622,1.0,0.007041621940577288,-0.007063639002380533,-0.0430766240853283,-0.04821307391576576,95.28684767936237,0.974955308522219,105,3.5
0.9877695271768736,0.5599685580393472,0.08158121258020401,0.9999874234199524,0.8855472433386827,0.6923700463545098,-0.03672071173787117,0.9999903440475464,1.076636382789279,0.6995489377035833,-0.11312896013259888,0.9999982714653015,0.9143865788839551,1.0550431408287155,0.03823740407824516,0.9999917149543762,1.0156091807496272,1.0571890468484768,-0.038352228701114655,0.9999951124191284,0.9114762822320184,1.3040602176572955,0.16348396241664886,0.9031505584716797,1.0092795875798242,1.3250692956938455,0.0759585052728653,0.970496416091919,0.8888483374155769,1.5599685580393472,0.22470445930957794,0.9368695020675659,1.0012221119073677,1.577538017423808,0.1708974540233612,0.9589480757713318,0.8257405385710767,1.0345441761996963,-0.03722425922751427,0.7562981843948364,1.113911074349391,1.0519430410108463,-0.18645261228084564,0.9958379864692688,0.003842651844024658,0.9649978798167912,1.056116093838596,175.6165235195479,179.5255982759695,1.0,0.001232304175482488,-0.0071797048660562895,-0.042188877081813604,-0.0008879146764213031,95.76100696806665,0.9681152367708223,106,3.533333333333333
0.9837648892833761,0.5578901659813513,0.11299405992031097,0.9999876618385315,0.8844748831858305,0.6891094061644829,-0.022996675223112106,0.9999911189079285,1.0730604660809806,0.6967330298147527,-0.08822876214981079,0.9999982714653015,0.9099687802329711,1.0475213157610883,0.03911175578832626,0.999991774559021,1.0108773672355769,1.0516101929669426,-0.03922991454601288,0.9999949932098389,0.9071339621652693,1.2989425097653624,0.15105336904525757,0.9069592356681824,1.0054414287611722,1.319579887693134,0.05896804481744766,0.9695400595664978,0.8848971361499613,1.5578901659813513,0.20308096706867218,0.9380943775177002,0.99711737761721,1.5711312957714532,0.13086184859275818,0.9570246934890747,0.8205157597572517,1.0281902933393672,-0.03146705403923988,0.7791122794151306,1.1086312021870197,1.0478947661761733,-0.1410432606935501,0.9957865476608276,0.004096865653991699,0.960423073734274,1.0495657543640153,175.73782593466208,179.26684778406798,1.0,-0.005448799037254124,-0.016914136082861925,-0.04736468008659353,-0.06926197826371994,96.38899594594022,0.9552050680374341,107,3.566666666666667
0.9800963601930739,0.5526818637222802,0.12043006718158722,0.9999880194664001,0.8825317337483103,0.6858161041347149,-0.021992282941937447,0.9999918937683105,1.0676272822772375,0.6938152628098913,-0.08643724024295807,0.9999982714653015,0.9056556835076529,1.0405656981507478,0.03883463889360428,0.999991774559021,1.006179749556733,1.0450378875102535,-0.03895527869462967,0.9999948143959045,0.9005731580595377,1.2939769107372148,0.1483796238899231,0.9107527732849121,1.0013176079089394,1.3142558658131094,0.05893060564994812,0.9679648876190186,0.8803102208538419,1.5526818637222801,0.19719082117080688,0.9392520785331726,0.9931674946156481,1.5644873654630085,0.13458748161792755,0.9541686773300171,0.813098629925281,1.024102199756208,-0.0058687361888587475,0.7999865412712097,1.1040475003865002,1.044020918454735,-0.1276060789823532,0.9956843256950378,0.004316061735153198,0.9559177165321929,1.0428017928305007,176.670474718405,179.16918224862795,1.0,-0.005035479518716044,-0.020066305024196884,0.0030969251637298135,-0.02548244496490937,96.27682173590766,0.9507398934533379,108,3.6
